onset	duration	sample	value	response_type	congruence	response_time	response_out_of_range	largeletter	smallletter
43.1015625	n/a	11034	largeHSmallT	correct	incongruent	2.0508	yes	H	T
45.15234375	n/a	11559	responseLargeH	correct	n/a	2.0508	yes	n/a	n/a
46.234375	n/a	11836	largeTSmallH	correct	incongruent	0.58203	no	T	H
46.81640625	n/a	11985	responseLargeT	correct	n/a	0.58203	no	n/a	n/a
47.88671875	n/a	12259	largeHSmallT	correct	incongruent	0.57812	no	H	T
48.46484375	n/a	12407	responseLargeH	correct	n/a	0.57812	no	n/a	n/a
49.52734375	n/a	12679	largeTSmallH	correct	incongruent	0.41797	no	T	H
49.9453125	n/a	12786	responseLargeT	correct	n/a	0.41797	no	n/a	n/a
51.01953125	n/a	13061	largeHSmallH	correct	congruent	0.41406	no	H	H
51.43359375	n/a	13167	responseLargeH	correct	n/a	0.41406	no	n/a	n/a
52.5	n/a	13440	largeTSmallT	correct	congruent	0.37891	no	T	T
52.87890625	n/a	13537	responseLargeT	correct	n/a	0.37891	no	n/a	n/a
53.953125	n/a	13812	largeHSmallH	correct	congruent	0.38672	no	H	H
54.33984375	n/a	13911	responseLargeH	correct	n/a	0.38672	no	n/a	n/a
55.421875	n/a	14188	largeTSmallH	error	incongruent	0.40234	no	T	H
55.82421875	n/a	14291	responseLargeH	error	n/a	0.40234	no	n/a	n/a
56.8984375	n/a	14566	largeHSmallH	correct	congruent	0.36719	no	H	H
57.265625	n/a	14660	responseLargeH	correct	n/a	0.36719	no	n/a	n/a
58.328125	n/a	14932	largeTSmallH	correct	incongruent	0.33594	no	T	H
58.6640625	n/a	15018	responseLargeT	correct	n/a	0.33594	no	n/a	n/a
59.73828125	n/a	15293	largeHSmallH	correct	congruent	0.36719	no	H	H
60.10546875	n/a	15387	responseLargeH	correct	n/a	0.36719	no	n/a	n/a
61.1796875	n/a	15662	largeHSmallH	correct	congruent	0.50391	no	H	H
61.68359375	n/a	15791	responseLargeH	correct	n/a	0.50391	no	n/a	n/a
62.75390625	n/a	16065	largeTSmallH	correct	incongruent	0.41406	no	T	H
63.16796875	n/a	16171	responseLargeT	correct	n/a	0.41406	no	n/a	n/a
64.24609375	n/a	16447	largeHSmallH	correct	congruent	0.375	no	H	H
64.62109375	n/a	16543	responseLargeH	correct	n/a	0.375	no	n/a	n/a
65.69921875	n/a	16819	largeHSmallH	correct	congruent	0.45312	no	H	H
66.15234375	n/a	16935	responseLargeH	correct	n/a	0.45312	no	n/a	n/a
67.21875	n/a	17208	largeTSmallT	correct	congruent	0.36719	no	T	T
67.5859375	n/a	17302	responseLargeT	correct	n/a	0.36719	no	n/a	n/a
68.66015625	n/a	17577	largeHSmallT	correct	incongruent	0.38281	no	H	T
69.04296875	n/a	17675	responseLargeH	correct	n/a	0.38281	no	n/a	n/a
70.11328125	n/a	17949	largeHSmallH	correct	congruent	0.46094	no	H	H
70.57421875	n/a	18067	responseLargeH	correct	n/a	0.46094	no	n/a	n/a
71.6328125	n/a	18338	largeHSmallH	correct	congruent	0.48828	no	H	H
72.12109375	n/a	18463	responseLargeH	correct	n/a	0.48828	no	n/a	n/a
73.19140625	n/a	18737	largeTSmallH	correct	incongruent	0.37891	no	T	H
73.5703125	n/a	18834	responseLargeT	correct	n/a	0.37891	no	n/a	n/a
74.64453125	n/a	19109	largeTSmallT	correct	congruent	0.49219	no	T	T
75.13671875	n/a	19235	responseLargeT	correct	n/a	0.49219	no	n/a	n/a
76.20703125	n/a	19509	largeTSmallT	correct	congruent	0.51562	no	T	T
76.72265625	n/a	19641	responseLargeT	correct	n/a	0.51562	no	n/a	n/a
77.79296875	n/a	19915	largeTSmallH	correct	incongruent	0.40625	no	T	H
78.19921875	n/a	20019	responseLargeT	correct	n/a	0.40625	no	n/a	n/a
79.26171875	n/a	20291	largeHSmallH	correct	congruent	0.49219	no	H	H
79.75390625	n/a	20417	responseLargeH	correct	n/a	0.49219	no	n/a	n/a
80.8203125	n/a	20690	largeTSmallH	correct	incongruent	0.48438	no	T	H
81.3046875	n/a	20814	responseLargeT	correct	n/a	0.48438	no	n/a	n/a
82.3671875	n/a	21086	largeHSmallT	correct	incongruent	0.35156	no	H	T
82.71875	n/a	21176	responseLargeH	correct	n/a	0.35156	no	n/a	n/a
83.79296875	n/a	21451	largeHSmallH	error	congruent	0.39453	no	H	H
84.1875	n/a	21552	responseLargeT	error	n/a	0.39453	no	n/a	n/a
85.2578125	n/a	21826	largeHSmallH	correct	congruent	0.49219	no	H	H
85.75	n/a	21952	responseLargeH	correct	n/a	0.49219	no	n/a	n/a
86.8203125	n/a	22226	largeTSmallH	correct	incongruent	0.46484	no	T	H
87.28515625	n/a	22345	responseLargeT	correct	n/a	0.46484	no	n/a	n/a
88.3671875	n/a	22622	largeHSmallT	correct	incongruent	0.38281	no	H	T
88.75	n/a	22720	responseLargeH	correct	n/a	0.38281	no	n/a	n/a
89.83203125	n/a	22997	largeHSmallH	correct	congruent	0.45312	no	H	H
90.28515625	n/a	23113	responseLargeH	correct	n/a	0.45312	no	n/a	n/a
91.3515625	n/a	23386	largeTSmallH	error	incongruent	0.43359	no	T	H
91.78515625	n/a	23497	responseLargeH	error	n/a	0.43359	no	n/a	n/a
92.859375	n/a	23772	largeTSmallT	correct	congruent	0.5	no	T	T
93.359375	n/a	23900	responseLargeT	correct	n/a	0.5	no	n/a	n/a
94.43359375	n/a	24175	largeTSmallH	correct	incongruent	0.46094	no	T	H
94.89453125	n/a	24293	responseLargeT	correct	n/a	0.46094	no	n/a	n/a
95.953125	n/a	24564	largeHSmallH	correct	congruent	0.36328	no	H	H
96.31640625	n/a	24657	responseLargeH	correct	n/a	0.36328	no	n/a	n/a
97.390625	n/a	24932	largeTSmallT	correct	congruent	0.40234	no	T	T
97.79296875	n/a	25035	responseLargeT	correct	n/a	0.40234	no	n/a	n/a
98.859375	n/a	25308	largeHSmallH	correct	congruent	0.375	no	H	H
99.234375	n/a	25404	responseLargeH	correct	n/a	0.375	no	n/a	n/a
100.3125	n/a	25680	largeTSmallH	correct	incongruent	0.50391	no	T	H
100.8164062	n/a	25809	responseLargeT	correct	n/a	0.50391	no	n/a	n/a
101.8867188	n/a	26083	largeTSmallT	correct	congruent	0.46094	no	T	T
102.3476562	n/a	26201	responseLargeT	correct	n/a	0.46094	no	n/a	n/a
103.4179688	n/a	26475	largeTSmallH	correct	incongruent	0.46094	no	T	H
103.8789062	n/a	26593	responseLargeT	correct	n/a	0.46094	no	n/a	n/a
104.9375	n/a	26864	largeTSmallT	correct	congruent	0.45312	no	T	T
105.390625	n/a	26980	responseLargeT	correct	n/a	0.45312	no	n/a	n/a
106.4570312	n/a	27253	largeTSmallH	correct	incongruent	0.44922	no	T	H
106.90625	n/a	27368	responseLargeT	correct	n/a	0.44922	no	n/a	n/a
107.9804688	n/a	27643	largeTSmallT	correct	congruent	0.47656	no	T	T
108.4570312	n/a	27765	responseLargeT	correct	n/a	0.47656	no	n/a	n/a
109.5273438	n/a	28039	largeHSmallT	correct	incongruent	0.54297	no	H	T
110.0703125	n/a	28178	responseLargeH	correct	n/a	0.54297	no	n/a	n/a
111.1367188	n/a	28451	largeTSmallT	correct	congruent	0.49609	no	T	T
111.6328125	n/a	28578	responseLargeT	correct	n/a	0.49609	no	n/a	n/a
112.6992188	n/a	28851	largeHSmallT	correct	incongruent	0.42969	no	H	T
113.1289062	n/a	28961	responseLargeH	correct	n/a	0.42969	no	n/a	n/a
114.1914062	n/a	29233	largeHSmallH	correct	congruent	0.52344	no	H	H
114.7148438	n/a	29367	responseLargeH	correct	n/a	0.52344	no	n/a	n/a
115.7773438	n/a	29639	largeTSmallH	correct	incongruent	0.58203	no	T	H
116.359375	n/a	29788	responseLargeT	correct	n/a	0.58203	no	n/a	n/a
117.4179688	n/a	30059	largeTSmallH	correct	incongruent	0.43359	no	T	H
117.8515625	n/a	30170	responseLargeT	correct	n/a	0.43359	no	n/a	n/a
118.9257812	n/a	30445	largeTSmallT	correct	congruent	0.46484	no	T	T
119.390625	n/a	30564	responseLargeT	correct	n/a	0.46484	no	n/a	n/a
120.4726562	n/a	30841	largeTSmallT	correct	congruent	0.41016	no	T	T
120.8828125	n/a	30946	responseLargeT	correct	n/a	0.41016	no	n/a	n/a
121.953125	n/a	31220	largeHSmallH	correct	congruent	0.44922	no	H	H
122.4023438	n/a	31335	responseLargeH	correct	n/a	0.44922	no	n/a	n/a
123.4726562	n/a	31609	largeHSmallH	correct	congruent	0.44922	no	H	H
123.921875	n/a	31724	responseLargeH	correct	n/a	0.44922	no	n/a	n/a
124.9921875	n/a	31998	largeTSmallT	correct	congruent	0.41016	no	T	T
125.4023438	n/a	32103	responseLargeT	correct	n/a	0.41016	no	n/a	n/a
126.4726562	n/a	32377	largeTSmallT	correct	congruent	0.44141	no	T	T
126.9140625	n/a	32490	responseLargeT	correct	n/a	0.44141	no	n/a	n/a
127.9765625	n/a	32762	largeTSmallT	correct	congruent	0.46875	no	T	T
128.4453125	n/a	32882	responseLargeT	correct	n/a	0.46875	no	n/a	n/a
129.5117188	n/a	33155	largeTSmallH	correct	incongruent	0.41797	no	T	H
129.9296875	n/a	33262	responseLargeT	correct	n/a	0.41797	no	n/a	n/a
130.9921875	n/a	33534	largeTSmallH	correct	incongruent	0.45703	no	T	H
131.4492188	n/a	33651	responseLargeT	correct	n/a	0.45703	no	n/a	n/a
132.5234375	n/a	33926	largeTSmallT	correct	congruent	0.4375	no	T	T
132.9609375	n/a	34038	responseLargeT	correct	n/a	0.4375	no	n/a	n/a
134.03125	n/a	34312	largeTSmallT	correct	congruent	0.42188	no	T	T
134.453125	n/a	34420	responseLargeT	correct	n/a	0.42188	no	n/a	n/a
135.5117188	n/a	34691	largeHSmallH	correct	congruent	0.48047	no	H	H
135.9921875	n/a	34814	responseLargeH	correct	n/a	0.48047	no	n/a	n/a
137.0585938	n/a	35087	largeTSmallH	correct	incongruent	0.42578	no	T	H
137.484375	n/a	35196	responseLargeT	correct	n/a	0.42578	no	n/a	n/a
138.5664062	n/a	35473	largeHSmallT	correct	incongruent	0.45703	no	H	T
139.0234375	n/a	35590	responseLargeH	correct	n/a	0.45703	no	n/a	n/a
140.0859375	n/a	35862	largeTSmallH	correct	incongruent	0.37891	no	T	H
140.4648438	n/a	35959	responseLargeT	correct	n/a	0.37891	no	n/a	n/a
141.5390625	n/a	36234	largeHSmallT	correct	incongruent	0.50391	no	H	T
142.0429688	n/a	36363	responseLargeH	correct	n/a	0.50391	no	n/a	n/a
143.109375	n/a	36636	largeHSmallH	correct	congruent	0.51172	no	H	H
143.6210938	n/a	36767	responseLargeH	correct	n/a	0.51172	no	n/a	n/a
144.6835938	n/a	37039	largeTSmallT	correct	congruent	0.35938	no	T	T
145.0429688	n/a	37131	responseLargeT	correct	n/a	0.35938	no	n/a	n/a
146.109375	n/a	37404	largeTSmallH	correct	incongruent	0.45703	no	T	H
146.5664062	n/a	37521	responseLargeT	correct	n/a	0.45703	no	n/a	n/a
147.6445312	n/a	37797	largeHSmallT	correct	incongruent	0.41016	no	H	T
148.0546875	n/a	37902	responseLargeH	correct	n/a	0.41016	no	n/a	n/a
149.125	n/a	38176	largeTSmallT	correct	congruent	0.41016	no	T	T
149.5351562	n/a	38281	responseLargeT	correct	n/a	0.41016	no	n/a	n/a
150.6054688	n/a	38555	largeTSmallT	correct	congruent	0.44531	no	T	T
151.0507812	n/a	38669	responseLargeT	correct	n/a	0.44531	no	n/a	n/a
152.125	n/a	38944	largeHSmallT	correct	incongruent	0.44922	no	H	T
152.5742188	n/a	39059	responseLargeH	correct	n/a	0.44922	no	n/a	n/a
153.6445312	n/a	39333	largeTSmallH	correct	incongruent	0.39844	no	T	H
154.0429688	n/a	39435	responseLargeT	correct	n/a	0.39844	no	n/a	n/a
155.109375	n/a	39708	largeTSmallT	correct	congruent	0.46484	no	T	T
155.5742188	n/a	39827	responseLargeT	correct	n/a	0.46484	no	n/a	n/a
156.6445312	n/a	40101	largeTSmallT	correct	congruent	0.46094	no	T	T
157.1054688	n/a	40219	responseLargeT	correct	n/a	0.46094	no	n/a	n/a
158.1914062	n/a	40497	largeTSmallT	correct	congruent	0.43359	no	T	T
158.625	n/a	40608	responseLargeT	correct	n/a	0.43359	no	n/a	n/a
159.6992188	n/a	40883	largeTSmallH	correct	incongruent	0.51953	no	T	H
160.21875	n/a	41016	responseLargeT	correct	n/a	0.51953	no	n/a	n/a
161.2851562	n/a	41289	largeTSmallH	correct	incongruent	0.43359	no	T	H
161.71875	n/a	41400	responseLargeT	correct	n/a	0.43359	no	n/a	n/a
162.7890625	n/a	41674	largeTSmallH	correct	incongruent	0.41797	no	T	H
163.2070312	n/a	41781	responseLargeT	correct	n/a	0.41797	no	n/a	n/a
164.2851562	n/a	42057	largeHSmallT	correct	incongruent	0.42969	no	H	T
164.7148438	n/a	42167	responseLargeH	correct	n/a	0.42969	no	n/a	n/a
165.7773438	n/a	42439	largeHSmallH	correct	congruent	0.47656	no	H	H
166.2539062	n/a	42561	responseLargeH	correct	n/a	0.47656	no	n/a	n/a
167.3242188	n/a	42835	largeHSmallH	correct	congruent	0.42578	no	H	H
167.75	n/a	42944	responseLargeH	correct	n/a	0.42578	no	n/a	n/a
168.8320312	n/a	43221	largeHSmallH	correct	congruent	0.44141	no	H	H
169.2734375	n/a	43334	responseLargeH	correct	n/a	0.44141	no	n/a	n/a
170.3359375	n/a	43606	largeTSmallT	correct	congruent	0.45703	no	T	T
170.7929688	n/a	43723	responseLargeT	correct	n/a	0.45703	no	n/a	n/a
171.8710938	n/a	43999	largeHSmallT	correct	incongruent	0.4375	no	H	T
172.3085938	n/a	44111	responseLargeH	correct	n/a	0.4375	no	n/a	n/a
173.3789062	n/a	44385	largeTSmallH	correct	incongruent	0.41406	no	T	H
173.7929688	n/a	44491	responseLargeT	correct	n/a	0.41406	no	n/a	n/a
174.8554688	n/a	44763	largeHSmallH	correct	congruent	0.42188	no	H	H
175.2773438	n/a	44871	responseLargeH	correct	n/a	0.42188	no	n/a	n/a
176.3359375	n/a	45142	largeTSmallT	correct	congruent	0.35547	no	T	T
176.6914062	n/a	45233	responseLargeT	correct	n/a	0.35547	no	n/a	n/a
177.7617188	n/a	45507	largeTSmallT	correct	congruent	0.46094	no	T	T
178.2226562	n/a	45625	responseLargeT	correct	n/a	0.46094	no	n/a	n/a
179.296875	n/a	45900	largeTSmallH	correct	incongruent	0.42969	no	T	H
179.7265625	n/a	46010	responseLargeT	correct	n/a	0.42969	no	n/a	n/a
180.8046875	n/a	46286	largeHSmallH	correct	congruent	0.37891	no	H	H
181.1835938	n/a	46383	responseLargeH	correct	n/a	0.37891	no	n/a	n/a
182.2578125	n/a	46658	largeHSmallH	correct	congruent	0.46094	no	H	H
182.71875	n/a	46776	responseLargeH	correct	n/a	0.46094	no	n/a	n/a
183.7890625	n/a	47050	largeHSmallT	correct	incongruent	0.48828	no	H	T
184.2773438	n/a	47175	responseLargeH	correct	n/a	0.48828	no	n/a	n/a
185.3515625	n/a	47450	largeHSmallT	correct	incongruent	0.42969	no	H	T
185.78125	n/a	47560	responseLargeH	correct	n/a	0.42969	no	n/a	n/a
186.84375	n/a	47832	largeHSmallH	correct	congruent	0.53125	no	H	H
187.375	n/a	47968	responseLargeH	correct	n/a	0.53125	no	n/a	n/a
188.4570312	n/a	48245	largeHSmallT	correct	incongruent	0.40625	no	H	T
188.8632812	n/a	48349	responseLargeH	correct	n/a	0.40625	no	n/a	n/a
189.9375	n/a	48624	largeHSmallT	correct	incongruent	0.43359	no	H	T
190.3710938	n/a	48735	responseLargeH	correct	n/a	0.43359	no	n/a	n/a
191.4414062	n/a	49009	largeHSmallH	correct	congruent	0.41406	no	H	H
191.8554688	n/a	49115	responseLargeH	correct	n/a	0.41406	no	n/a	n/a
192.921875	n/a	49388	largeTSmallH	correct	incongruent	0.42578	no	T	H
193.3476562	n/a	49497	responseLargeT	correct	n/a	0.42578	no	n/a	n/a
194.4296875	n/a	49774	largeHSmallH	correct	congruent	0.41797	no	H	H
194.8476562	n/a	49881	responseLargeH	correct	n/a	0.41797	no	n/a	n/a
195.921875	n/a	50156	largeHSmallH	correct	congruent	0.46484	no	H	H
196.3867188	n/a	50275	responseLargeH	correct	n/a	0.46484	no	n/a	n/a
197.4570312	n/a	50549	largeHSmallT	correct	incongruent	0.44141	no	H	T
197.8984375	n/a	50662	responseLargeH	correct	n/a	0.44141	no	n/a	n/a
198.9648438	n/a	50935	largeTSmallT	correct	congruent	0.49609	no	T	T
199.4609375	n/a	51062	responseLargeT	correct	n/a	0.49609	no	n/a	n/a
200.5351562	n/a	51337	largeHSmallT	correct	incongruent	0.375	no	H	T
200.9101562	n/a	51433	responseLargeH	correct	n/a	0.375	no	n/a	n/a
201.9765625	n/a	51706	largeTSmallT	correct	congruent	0.46094	no	T	T
202.4375	n/a	51824	responseLargeT	correct	n/a	0.46094	no	n/a	n/a
203.5078125	n/a	52098	largeTSmallT	correct	congruent	0.46484	no	T	T
203.9726562	n/a	52217	responseLargeT	correct	n/a	0.46484	no	n/a	n/a
205.0546875	n/a	52494	largeHSmallH	correct	congruent	0.41016	no	H	H
205.4648438	n/a	52599	responseLargeH	correct	n/a	0.41016	no	n/a	n/a
206.5351562	n/a	52873	largeHSmallH	correct	congruent	0.40625	no	H	H
206.9414062	n/a	52977	responseLargeH	correct	n/a	0.40625	no	n/a	n/a
208.015625	n/a	53252	largeHSmallT	correct	incongruent	0.46875	no	H	T
208.484375	n/a	53372	responseLargeH	correct	n/a	0.46875	no	n/a	n/a
209.5507812	n/a	53645	largeTSmallT	correct	congruent	0.46875	no	T	T
210.0195312	n/a	53765	responseLargeT	correct	n/a	0.46875	no	n/a	n/a
211.0820312	n/a	54037	largeTSmallH	correct	incongruent	0.44531	no	T	H
211.5273438	n/a	54151	responseLargeT	correct	n/a	0.44531	no	n/a	n/a
212.6015625	n/a	54426	largeTSmallH	correct	incongruent	0.42188	no	T	H
213.0234375	n/a	54534	responseLargeT	correct	n/a	0.42188	no	n/a	n/a
214.0976562	n/a	54809	largeHSmallH	correct	congruent	0.42188	no	H	H
214.5195312	n/a	54917	responseLargeH	correct	n/a	0.42188	no	n/a	n/a
215.5898438	n/a	55191	largeHSmallT	correct	incongruent	0.42578	no	H	T
216.015625	n/a	55300	responseLargeH	correct	n/a	0.42578	no	n/a	n/a
217.0976562	n/a	55577	largeTSmallH	correct	incongruent	0.35156	no	T	H
217.4492188	n/a	55667	responseLargeT	correct	n/a	0.35156	no	n/a	n/a
218.5234375	n/a	55942	largeHSmallT	correct	incongruent	0.51562	no	H	T
219.0390625	n/a	56074	responseLargeH	correct	n/a	0.51562	no	n/a	n/a
220.0976562	n/a	56345	largeHSmallT	correct	incongruent	0.45312	no	H	T
220.5507812	n/a	56461	responseLargeH	correct	n/a	0.45312	no	n/a	n/a
221.6171875	n/a	56734	largeTSmallT	correct	congruent	0.43359	no	T	T
222.0507812	n/a	56845	responseLargeT	correct	n/a	0.43359	no	n/a	n/a
223.1210938	n/a	57119	largeHSmallT	correct	incongruent	0.48828	no	H	T
223.609375	n/a	57244	responseLargeH	correct	n/a	0.48828	no	n/a	n/a
224.6953125	n/a	57522	largeTSmallT	correct	congruent	0.46094	no	T	T
225.15625	n/a	57640	responseLargeT	correct	n/a	0.46094	no	n/a	n/a
226.2304688	n/a	57915	largeTSmallT	correct	congruent	0.40234	no	T	T
226.6328125	n/a	58018	responseLargeT	correct	n/a	0.40234	no	n/a	n/a
227.6953125	n/a	58290	largeTSmallT	correct	congruent	0.49219	no	T	T
228.1875	n/a	58416	responseLargeT	correct	n/a	0.49219	no	n/a	n/a
229.2539062	n/a	58689	largeHSmallT	correct	incongruent	0.38281	no	H	T
229.6367188	n/a	58787	responseLargeH	correct	n/a	0.38281	no	n/a	n/a
230.7070312	n/a	59061	largeHSmallT	correct	incongruent	0.4375	no	H	T
231.1445312	n/a	59173	responseLargeH	correct	n/a	0.4375	no	n/a	n/a
232.203125	n/a	59444	largeTSmallT	correct	congruent	0.45703	no	T	T
232.6601562	n/a	59561	responseLargeT	correct	n/a	0.45703	no	n/a	n/a
233.734375	n/a	59836	largeHSmallT	correct	incongruent	0.39453	no	H	T
234.1289062	n/a	59937	responseLargeH	correct	n/a	0.39453	no	n/a	n/a
235.203125	n/a	60212	largeHSmallH	correct	congruent	0.42969	no	H	H
235.6328125	n/a	60322	responseLargeH	correct	n/a	0.42969	no	n/a	n/a
236.6953125	n/a	60594	largeHSmallH	correct	congruent	0.36719	no	H	H
237.0625	n/a	60688	responseLargeH	correct	n/a	0.36719	no	n/a	n/a
238.1367188	n/a	60963	largeTSmallH	correct	incongruent	0.4375	no	T	H
238.5742188	n/a	61075	responseLargeT	correct	n/a	0.4375	no	n/a	n/a
239.65625	n/a	61352	largeTSmallH	correct	incongruent	0.4375	no	T	H
240.09375	n/a	61464	responseLargeT	correct	n/a	0.4375	no	n/a	n/a
241.1601562	n/a	61737	largeHSmallT	correct	incongruent	0.42969	no	H	T
241.5898438	n/a	61847	responseLargeH	correct	n/a	0.42969	no	n/a	n/a
242.65625	n/a	62120	largeHSmallT	error	incongruent	0.58984	no	H	T
243.2460938	n/a	62271	responseLargeT	error	n/a	0.58984	no	n/a	n/a
244.3085938	n/a	62543	largeHSmallH	correct	congruent	0.48828	no	H	H
244.796875	n/a	62668	responseLargeH	correct	n/a	0.48828	no	n/a	n/a
245.8671875	n/a	62942	largeTSmallH	correct	incongruent	0.37109	no	T	H
246.2382812	n/a	63037	responseLargeT	correct	n/a	0.37109	no	n/a	n/a
247.3085938	n/a	63311	largeHSmallT	correct	incongruent	0.43359	no	H	T
247.7421875	n/a	63422	responseLargeH	correct	n/a	0.43359	no	n/a	n/a
248.8007812	n/a	63693	largeHSmallT	correct	incongruent	0.42969	no	H	T
249.2304688	n/a	63803	responseLargeH	correct	n/a	0.42969	no	n/a	n/a
250.3085938	n/a	64079	largeTSmallT	correct	congruent	0.45312	no	T	T
250.7617188	n/a	64195	responseLargeT	correct	n/a	0.45312	no	n/a	n/a
251.828125	n/a	64468	largeHSmallT	correct	incongruent	0.44922	no	H	T
252.2773438	n/a	64583	responseLargeH	correct	n/a	0.44922	no	n/a	n/a
253.3476562	n/a	64857	largeHSmallT	correct	incongruent	0.47656	no	H	T
253.8242188	n/a	64979	responseLargeH	correct	n/a	0.47656	no	n/a	n/a
254.8945312	n/a	65253	largeTSmallT	correct	congruent	0.41797	no	T	T
255.3125	n/a	65360	responseLargeT	correct	n/a	0.41797	no	n/a	n/a
256.3867188	n/a	65635	largeHSmallT	correct	incongruent	0.40234	no	H	T
256.7890625	n/a	65738	responseLargeH	correct	n/a	0.40234	no	n/a	n/a
257.8554688	n/a	66011	largeHSmallH	correct	congruent	0.44922	no	H	H
258.3046875	n/a	66126	responseLargeH	correct	n/a	0.44922	no	n/a	n/a
259.3632812	n/a	66397	largeHSmallH	correct	congruent	0.60156	no	H	H
259.9648438	n/a	66551	responseLargeH	correct	n/a	0.60156	no	n/a	n/a
261.0429688	n/a	66827	largeHSmallT	correct	incongruent	0.40625	no	H	T
261.4492188	n/a	66931	responseLargeH	correct	n/a	0.40625	no	n/a	n/a
262.5195312	n/a	67205	largeHSmallH	correct	congruent	0.43359	no	H	H
262.953125	n/a	67316	responseLargeH	correct	n/a	0.43359	no	n/a	n/a
264.0273438	n/a	67591	largeTSmallH	correct	incongruent	0.44141	no	T	H
264.46875	n/a	67704	responseLargeT	correct	n/a	0.44141	no	n/a	n/a
265.546875	n/a	67980	largeHSmallH	correct	congruent	0.42188	no	H	H
265.96875	n/a	68088	responseLargeH	correct	n/a	0.42188	no	n/a	n/a
267.0429688	n/a	68363	largeHSmallT	correct	incongruent	0.48047	no	H	T
267.5234375	n/a	68486	responseLargeH	correct	n/a	0.48047	no	n/a	n/a
268.5898438	n/a	68759	largeHSmallT	correct	incongruent	0.47266	no	H	T
269.0625	n/a	68880	responseLargeH	correct	n/a	0.47266	no	n/a	n/a
270.1328125	n/a	69154	largeTSmallT	correct	congruent	0.46094	no	T	T
270.59375	n/a	69272	responseLargeT	correct	n/a	0.46094	no	n/a	n/a
271.6679688	n/a	69547	largeTSmallT	correct	congruent	0.49219	no	T	T
272.1601562	n/a	69673	responseLargeT	correct	n/a	0.49219	no	n/a	n/a
273.2421875	n/a	69950	largeHSmallH	correct	congruent	0.375	no	H	H
273.6171875	n/a	70046	responseLargeH	correct	n/a	0.375	no	n/a	n/a
274.6796875	n/a	70318	largeTSmallH	correct	incongruent	0.37891	no	T	H
275.0585938	n/a	70415	responseLargeT	correct	n/a	0.37891	no	n/a	n/a
276.1328125	n/a	70690	largeHSmallH	correct	congruent	0.37891	no	H	H
276.5117188	n/a	70787	responseLargeH	correct	n/a	0.37891	no	n/a	n/a
277.5859375	n/a	71062	largeTSmallH	correct	incongruent	0.48047	no	T	H
278.0664062	n/a	71185	responseLargeT	correct	n/a	0.48047	no	n/a	n/a
279.1328125	n/a	71458	largeTSmallH	correct	incongruent	0.51562	no	T	H
279.6484375	n/a	71590	responseLargeT	correct	n/a	0.51562	no	n/a	n/a
280.7226562	n/a	71865	largeTSmallT	correct	congruent	0.45312	no	T	T
281.1757812	n/a	71981	responseLargeT	correct	n/a	0.45312	no	n/a	n/a
282.2539062	n/a	72257	largeTSmallH	correct	incongruent	0.44922	no	T	H
282.703125	n/a	72372	responseLargeT	correct	n/a	0.44922	no	n/a	n/a
283.7890625	n/a	72650	largeHSmallH	correct	congruent	0.40625	no	H	H
284.1953125	n/a	72754	responseLargeH	correct	n/a	0.40625	no	n/a	n/a
285.265625	n/a	73028	largeTSmallH	correct	incongruent	0.49609	no	T	H
285.7617188	n/a	73155	responseLargeT	correct	n/a	0.49609	no	n/a	n/a
286.8398438	n/a	73431	largeTSmallH	correct	incongruent	0.46484	no	T	H
287.3046875	n/a	73550	responseLargeT	correct	n/a	0.46484	no	n/a	n/a
288.375	n/a	73824	largeTSmallH	correct	incongruent	0.36719	no	T	H
288.7421875	n/a	73918	responseLargeT	correct	n/a	0.36719	no	n/a	n/a
289.8125	n/a	74192	largeHSmallH	correct	congruent	0.35938	no	H	H
290.171875	n/a	74284	responseLargeH	correct	n/a	0.35938	no	n/a	n/a
291.2421875	n/a	74558	largeTSmallH	correct	incongruent	0.48828	no	T	H
291.7304688	n/a	74683	responseLargeT	correct	n/a	0.48828	no	n/a	n/a
292.8007812	n/a	74957	largeHSmallH	correct	congruent	0.37109	no	H	H
293.171875	n/a	75052	responseLargeH	correct	n/a	0.37109	no	n/a	n/a
294.2539062	n/a	75329	largeHSmallH	correct	congruent	0.44531	no	H	H
294.6992188	n/a	75443	responseLargeH	correct	n/a	0.44531	no	n/a	n/a
295.7617188	n/a	75715	largeTSmallT	correct	congruent	0.45703	no	T	T
296.21875	n/a	75832	responseLargeT	correct	n/a	0.45703	no	n/a	n/a
297.2929688	n/a	76107	largeHSmallT	error	incongruent	0.42188	no	H	T
297.7148438	n/a	76215	responseLargeT	error	n/a	0.42188	no	n/a	n/a
298.8007812	n/a	76493	largeTSmallH	error	incongruent	0.42578	no	T	H
299.2265625	n/a	76602	responseLargeH	error	n/a	0.42578	no	n/a	n/a
300.3085938	n/a	76879	largeHSmallH	correct	congruent	0.43359	no	H	H
300.7421875	n/a	76990	responseLargeH	correct	n/a	0.43359	no	n/a	n/a
301.8125	n/a	77264	largeHSmallT	correct	incongruent	0.64062	no	H	T
302.453125	n/a	77428	responseLargeH	correct	n/a	0.64062	no	n/a	n/a
303.5195312	n/a	77701	largeHSmallT	correct	incongruent	0.45312	no	H	T
303.9726562	n/a	77817	responseLargeH	correct	n/a	0.45312	no	n/a	n/a
305.0390625	n/a	78090	largeTSmallT	correct	congruent	0.46094	no	T	T
305.5	n/a	78208	responseLargeT	correct	n/a	0.46094	no	n/a	n/a
306.5742188	n/a	78483	largeTSmallT	correct	congruent	0.45312	no	T	T
307.0273438	n/a	78599	responseLargeT	correct	n/a	0.45312	no	n/a	n/a
308.1054688	n/a	78875	largeHSmallT	correct	incongruent	0.43359	no	H	T
308.5390625	n/a	78986	responseLargeH	correct	n/a	0.43359	no	n/a	n/a
309.6132812	n/a	79261	largeHSmallT	correct	incongruent	0.42578	no	H	T
310.0390625	n/a	79370	responseLargeH	correct	n/a	0.42578	no	n/a	n/a
311.1210938	n/a	79647	largeTSmallH	correct	incongruent	0.49219	no	T	H
311.6132812	n/a	79773	responseLargeT	correct	n/a	0.49219	no	n/a	n/a
312.6953125	n/a	80050	largeTSmallT	correct	congruent	0.46484	no	T	T
313.1601562	n/a	80169	responseLargeT	correct	n/a	0.46484	no	n/a	n/a
314.2265625	n/a	80442	largeTSmallH	correct	incongruent	0.40234	no	T	H
314.6289062	n/a	80545	responseLargeT	correct	n/a	0.40234	no	n/a	n/a
315.7070312	n/a	80821	largeHSmallT	correct	incongruent	0.38672	no	H	T
316.09375	n/a	80920	responseLargeH	correct	n/a	0.38672	no	n/a	n/a
317.171875	n/a	81196	largeTSmallH	correct	incongruent	0.41406	no	T	H
317.5859375	n/a	81302	responseLargeT	correct	n/a	0.41406	no	n/a	n/a
318.6679688	n/a	81579	largeHSmallH	correct	congruent	0.34375	no	H	H
319.0117188	n/a	81667	responseLargeH	correct	n/a	0.34375	no	n/a	n/a
320.078125	n/a	81940	largeHSmallT	error	incongruent	0.37891	no	H	T
320.4570312	n/a	82037	responseLargeT	error	n/a	0.37891	no	n/a	n/a
321.5351562	n/a	82313	largeTSmallT	correct	congruent	0.43359	no	T	T
321.96875	n/a	82424	responseLargeT	correct	n/a	0.43359	no	n/a	n/a
323.0546875	n/a	82702	largeHSmallH	correct	congruent	0.35547	no	H	H
323.4101562	n/a	82793	responseLargeH	correct	n/a	0.35547	no	n/a	n/a
324.4804688	n/a	83067	largeTSmallH	correct	incongruent	0.48828	no	T	H
324.96875	n/a	83192	responseLargeT	correct	n/a	0.48828	no	n/a	n/a
326.0390625	n/a	83466	largeTSmallT	correct	congruent	0.42969	no	T	T
326.46875	n/a	83576	responseLargeT	correct	n/a	0.42969	no	n/a	n/a
327.546875	n/a	83852	largeTSmallH	correct	incongruent	0.4375	no	T	H
327.984375	n/a	83964	responseLargeT	correct	n/a	0.4375	no	n/a	n/a
329.0546875	n/a	84238	largeHSmallT	correct	incongruent	0.34766	no	H	T
329.4023438	n/a	84327	responseLargeH	correct	n/a	0.34766	no	n/a	n/a
330.4804688	n/a	84603	largeTSmallT	correct	congruent	0.39844	no	T	T
330.8789062	n/a	84705	responseLargeT	correct	n/a	0.39844	no	n/a	n/a
331.9609375	n/a	84982	largeHSmallH	correct	congruent	0.49609	no	H	H
332.4570312	n/a	85109	responseLargeH	correct	n/a	0.49609	no	n/a	n/a
333.53125	n/a	85384	largeTSmallT	correct	congruent	0.39453	no	T	T
333.9257812	n/a	85485	responseLargeT	correct	n/a	0.39453	no	n/a	n/a
335	n/a	85760	largeHSmallT	correct	incongruent	0.37891	no	H	T
335.3789062	n/a	85857	responseLargeH	correct	n/a	0.37891	no	n/a	n/a
336.453125	n/a	86132	largeHSmallT	error	incongruent	0.37891	no	H	T
336.8320312	n/a	86229	responseLargeT	error	n/a	0.37891	no	n/a	n/a
337.8945312	n/a	86501	largeTSmallH	correct	incongruent	0.33594	no	T	H
338.2304688	n/a	86587	responseLargeT	correct	n/a	0.33594	no	n/a	n/a
339.3046875	n/a	86862	largeTSmallT	correct	congruent	0.49609	no	T	T
339.8007812	n/a	86989	responseLargeT	correct	n/a	0.49609	no	n/a	n/a
340.8789062	n/a	87265	largeTSmallT	correct	congruent	0.44141	no	T	T
341.3203125	n/a	87378	responseLargeT	correct	n/a	0.44141	no	n/a	n/a
342.3867188	n/a	87651	largeHSmallT	correct	incongruent	0.38672	no	H	T
342.7734375	n/a	87750	responseLargeH	correct	n/a	0.38672	no	n/a	n/a
343.8398438	n/a	88023	largeHSmallT	correct	incongruent	0.46875	no	H	T
344.3085938	n/a	88143	responseLargeH	correct	n/a	0.46875	no	n/a	n/a
345.3867188	n/a	88419	largeHSmallT	correct	incongruent	0.48438	no	H	T
345.8710938	n/a	88543	responseLargeH	correct	n/a	0.48438	no	n/a	n/a
382.8789062	n/a	98017	largeTSmallT	correct	congruent	0.98438	no	T	T
383.8632812	n/a	98269	responseSmallT	correct	n/a	0.98438	no	n/a	n/a
384.9296875	n/a	98542	largeTSmallH	correct	incongruent	0.66797	no	T	H
385.5976562	n/a	98713	responseSmallH	correct	n/a	0.66797	no	n/a	n/a
386.6640625	n/a	98986	largeTSmallH	correct	incongruent	0.54688	no	T	H
387.2109375	n/a	99126	responseSmallH	correct	n/a	0.54688	no	n/a	n/a
388.2929688	n/a	99403	largeTSmallT	correct	congruent	0.54297	no	T	T
388.8359375	n/a	99542	responseSmallT	correct	n/a	0.54297	no	n/a	n/a
389.90625	n/a	99816	largeTSmallH	correct	incongruent	0.36328	no	T	H
390.2695312	n/a	99909	responseSmallH	correct	n/a	0.36328	no	n/a	n/a
391.34375	n/a	100184	largeHSmallT	correct	incongruent	0.55078	no	H	T
391.8945312	n/a	100325	responseSmallT	correct	n/a	0.55078	no	n/a	n/a
392.9726562	n/a	100601	largeHSmallH	correct	congruent	0.46875	no	H	H
393.4414062	n/a	100721	responseSmallH	correct	n/a	0.46875	no	n/a	n/a
394.5039062	n/a	100993	largeTSmallH	correct	incongruent	0.57422	no	T	H
395.078125	n/a	101140	responseSmallH	correct	n/a	0.57422	no	n/a	n/a
396.1445312	n/a	101413	largeTSmallH	error	incongruent	0.57422	no	T	H
396.71875	n/a	101560	responseSmallT	error	n/a	0.57422	no	n/a	n/a
397.7851562	n/a	101833	largeHSmallT	correct	incongruent	0.51562	no	H	T
398.3007812	n/a	101965	responseSmallT	correct	n/a	0.51562	no	n/a	n/a
399.3828125	n/a	102242	largeHSmallT	correct	incongruent	0.49609	no	H	T
399.8789062	n/a	102369	responseSmallT	correct	n/a	0.49609	no	n/a	n/a
400.9570312	n/a	102645	largeHSmallH	correct	congruent	0.50781	no	H	H
401.4648438	n/a	102775	responseSmallH	correct	n/a	0.50781	no	n/a	n/a
402.53125	n/a	103048	largeTSmallT	correct	congruent	0.46094	no	T	T
402.9921875	n/a	103166	responseSmallT	correct	n/a	0.46094	no	n/a	n/a
404.0625	n/a	103440	largeHSmallH	correct	congruent	0.48047	no	H	H
404.5429688	n/a	103563	responseSmallH	correct	n/a	0.48047	no	n/a	n/a
405.625	n/a	103840	largeTSmallH	correct	incongruent	0.59766	no	T	H
406.2226562	n/a	103993	responseSmallH	correct	n/a	0.59766	no	n/a	n/a
407.2929688	n/a	104267	largeTSmallH	correct	incongruent	0.70312	no	T	H
407.9960938	n/a	104447	responseSmallH	correct	n/a	0.70312	no	n/a	n/a
409.0664062	n/a	104721	largeTSmallT	correct	congruent	0.50781	no	T	T
409.5742188	n/a	104851	responseSmallT	correct	n/a	0.50781	no	n/a	n/a
410.6367188	n/a	105123	largeHSmallT	correct	incongruent	0.60938	no	H	T
411.2460938	n/a	105279	responseSmallT	correct	n/a	0.60938	no	n/a	n/a
412.3046875	n/a	105550	largeTSmallH	correct	incongruent	0.39453	no	T	H
412.6992188	n/a	105651	responseSmallH	correct	n/a	0.39453	no	n/a	n/a
413.7851562	n/a	105929	largeHSmallT	correct	incongruent	0.46094	no	H	T
414.2460938	n/a	106047	responseSmallT	correct	n/a	0.46094	no	n/a	n/a
415.3164062	n/a	106321	largeHSmallT	correct	incongruent	0.42188	no	H	T
415.7382812	n/a	106429	responseSmallT	correct	n/a	0.42188	no	n/a	n/a
416.796875	n/a	106700	largeHSmallH	correct	congruent	0.40234	no	H	H
417.1992188	n/a	106803	responseSmallH	correct	n/a	0.40234	no	n/a	n/a
418.265625	n/a	107076	largeTSmallT	correct	congruent	0.41406	no	T	T
418.6796875	n/a	107182	responseSmallT	correct	n/a	0.41406	no	n/a	n/a
419.7578125	n/a	107458	largeTSmallH	correct	incongruent	0.49609	no	T	H
420.2539062	n/a	107585	responseSmallH	correct	n/a	0.49609	no	n/a	n/a
421.3320312	n/a	107861	largeTSmallT	correct	congruent	0.51562	no	T	T
421.8476562	n/a	107993	responseSmallT	correct	n/a	0.51562	no	n/a	n/a
422.9179688	n/a	108267	largeHSmallH	correct	congruent	0.42578	no	H	H
423.34375	n/a	108376	responseSmallH	correct	n/a	0.42578	no	n/a	n/a
424.4101562	n/a	108649	largeHSmallT	correct	incongruent	0.35156	no	H	T
424.7617188	n/a	108739	responseSmallT	correct	n/a	0.35156	no	n/a	n/a
425.8359375	n/a	109014	largeHSmallT	correct	incongruent	0.41016	no	H	T
426.2460938	n/a	109119	responseSmallT	correct	n/a	0.41016	no	n/a	n/a
427.3164062	n/a	109393	largeTSmallH	correct	incongruent	0.41406	no	T	H
427.7304688	n/a	109499	responseSmallH	correct	n/a	0.41406	no	n/a	n/a
428.796875	n/a	109772	largeHSmallH	correct	congruent	0.41406	no	H	H
429.2109375	n/a	109878	responseSmallH	correct	n/a	0.41406	no	n/a	n/a
430.2773438	n/a	110151	largeTSmallT	correct	congruent	0.37891	no	T	T
430.65625	n/a	110248	responseSmallT	correct	n/a	0.37891	no	n/a	n/a
431.7304688	n/a	110523	largeHSmallT	correct	incongruent	0.44922	no	H	T
432.1796875	n/a	110638	responseSmallT	correct	n/a	0.44922	no	n/a	n/a
433.25	n/a	110912	largeTSmallH	correct	incongruent	0.33203	no	T	H
433.5820312	n/a	110997	responseSmallH	correct	n/a	0.33203	no	n/a	n/a
434.6484375	n/a	111270	largeHSmallT	correct	incongruent	0.33203	no	H	T
434.9804688	n/a	111355	responseSmallT	correct	n/a	0.33203	no	n/a	n/a
436.0507812	n/a	111629	largeTSmallT	correct	congruent	0.41797	no	T	T
436.46875	n/a	111736	responseSmallT	correct	n/a	0.41797	no	n/a	n/a
437.5429688	n/a	112011	largeHSmallH	correct	congruent	0.32812	no	H	H
437.8710938	n/a	112095	responseSmallH	correct	n/a	0.32812	no	n/a	n/a
438.9453125	n/a	112370	largeTSmallT	correct	congruent	0.36328	no	T	T
439.3085938	n/a	112463	responseSmallT	correct	n/a	0.36328	no	n/a	n/a
440.3710938	n/a	112735	largeHSmallH	correct	congruent	0.34375	no	H	H
440.7148438	n/a	112823	responseSmallH	correct	n/a	0.34375	no	n/a	n/a
441.7851562	n/a	113097	largeTSmallT	correct	congruent	0.33203	no	T	T
442.1171875	n/a	113182	responseSmallT	correct	n/a	0.33203	no	n/a	n/a
443.1835938	n/a	113455	largeTSmallH	correct	incongruent	0.29297	no	T	H
443.4765625	n/a	113530	responseSmallH	correct	n/a	0.29297	no	n/a	n/a
444.5585938	n/a	113807	largeTSmallT	correct	congruent	0.33594	no	T	T
444.8945312	n/a	113893	responseSmallT	correct	n/a	0.33594	no	n/a	n/a
445.9570312	n/a	114165	largeTSmallT	correct	congruent	0.48047	no	T	T
446.4375	n/a	114288	responseSmallT	correct	n/a	0.48047	no	n/a	n/a
447.5039062	n/a	114561	largeHSmallT	correct	incongruent	0.51172	no	H	T
448.015625	n/a	114692	responseSmallT	correct	n/a	0.51172	no	n/a	n/a
449.1015625	n/a	114970	largeHSmallH	correct	congruent	0.49609	no	H	H
449.5976562	n/a	115097	responseSmallH	correct	n/a	0.49609	no	n/a	n/a
450.6757812	n/a	115373	largeTSmallH	correct	incongruent	0.48047	no	T	H
451.15625	n/a	115496	responseSmallH	correct	n/a	0.48047	no	n/a	n/a
452.2382812	n/a	115773	largeTSmallH	correct	incongruent	0.44922	no	T	H
452.6875	n/a	115888	responseSmallH	correct	n/a	0.44922	no	n/a	n/a
453.7578125	n/a	116162	largeTSmallH	correct	incongruent	0.42969	no	T	H
454.1875	n/a	116272	responseSmallH	correct	n/a	0.42969	no	n/a	n/a
455.2617188	n/a	116547	largeHSmallH	correct	congruent	0.44922	no	H	H
455.7109375	n/a	116662	responseSmallH	correct	n/a	0.44922	no	n/a	n/a
456.78125	n/a	116936	largeTSmallT	correct	congruent	0.57422	no	T	T
457.3554688	n/a	117083	responseSmallT	correct	n/a	0.57422	no	n/a	n/a
458.421875	n/a	117356	largeHSmallT	correct	incongruent	0.47266	no	H	T
458.8945312	n/a	117477	responseSmallT	correct	n/a	0.47266	no	n/a	n/a
459.96875	n/a	117752	largeTSmallT	correct	congruent	0.5	no	T	T
460.46875	n/a	117880	responseSmallT	correct	n/a	0.5	no	n/a	n/a
461.5429688	n/a	118155	largeHSmallH	correct	congruent	0.44531	no	H	H
461.9882812	n/a	118269	responseSmallH	correct	n/a	0.44531	no	n/a	n/a
463.0625	n/a	118544	largeTSmallT	correct	congruent	0.4375	no	T	T
463.5	n/a	118656	responseSmallT	correct	n/a	0.4375	no	n/a	n/a
464.5703125	n/a	118930	largeHSmallH	correct	congruent	0.41406	no	H	H
464.984375	n/a	119036	responseSmallH	correct	n/a	0.41406	no	n/a	n/a
466.0507812	n/a	119309	largeHSmallT	correct	incongruent	0.42188	no	H	T
466.4726562	n/a	119417	responseSmallT	correct	n/a	0.42188	no	n/a	n/a
467.5546875	n/a	119694	largeHSmallH	correct	congruent	0.35156	no	H	H
467.90625	n/a	119784	responseSmallH	correct	n/a	0.35156	no	n/a	n/a
468.96875	n/a	120056	largeHSmallT	correct	incongruent	0.37891	no	H	T
469.3476562	n/a	120153	responseSmallT	correct	n/a	0.37891	no	n/a	n/a
470.421875	n/a	120428	largeHSmallH	correct	congruent	0.375	no	H	H
470.796875	n/a	120524	responseSmallH	correct	n/a	0.375	no	n/a	n/a
471.875	n/a	120800	largeHSmallT	correct	incongruent	0.36719	no	H	T
472.2421875	n/a	120894	responseSmallT	correct	n/a	0.36719	no	n/a	n/a
473.3007812	n/a	121165	largeHSmallH	correct	congruent	0.35938	no	H	H
473.6601562	n/a	121257	responseSmallH	correct	n/a	0.35938	no	n/a	n/a
474.7304688	n/a	121531	largeHSmallT	correct	incongruent	0.375	no	H	T
475.1054688	n/a	121627	responseSmallT	correct	n/a	0.375	no	n/a	n/a
476.1835938	n/a	121903	largeTSmallH	correct	incongruent	0.375	no	T	H
476.5585938	n/a	121999	responseSmallH	correct	n/a	0.375	no	n/a	n/a
477.6210938	n/a	122271	largeHSmallH	correct	congruent	0.41016	no	H	H
478.03125	n/a	122376	responseSmallH	correct	n/a	0.41016	no	n/a	n/a
479.1015625	n/a	122650	largeTSmallT	correct	congruent	0.41797	no	T	T
479.5195312	n/a	122757	responseSmallT	correct	n/a	0.41797	no	n/a	n/a
480.5976562	n/a	123033	largeTSmallT	correct	congruent	0.46875	no	T	T
481.0664062	n/a	123153	responseSmallT	correct	n/a	0.46875	no	n/a	n/a
482.1289062	n/a	123425	largeTSmallT	correct	congruent	0.47266	no	T	T
482.6015625	n/a	123546	responseSmallT	correct	n/a	0.47266	no	n/a	n/a
483.6757812	n/a	123821	largeHSmallT	correct	incongruent	0.52734	no	H	T
484.203125	n/a	123956	responseSmallT	correct	n/a	0.52734	no	n/a	n/a
485.2773438	n/a	124231	largeHSmallH	correct	congruent	0.39844	no	H	H
485.6757812	n/a	124333	responseSmallH	correct	n/a	0.39844	no	n/a	n/a
486.7421875	n/a	124606	largeHSmallT	correct	incongruent	0.5	no	H	T
487.2421875	n/a	124734	responseSmallT	correct	n/a	0.5	no	n/a	n/a
488.3164062	n/a	125009	largeTSmallH	correct	incongruent	0.48047	no	T	H
488.796875	n/a	125132	responseSmallH	correct	n/a	0.48047	no	n/a	n/a
489.875	n/a	125408	largeHSmallT	correct	incongruent	0.50781	no	H	T
490.3828125	n/a	125538	responseSmallT	correct	n/a	0.50781	no	n/a	n/a
491.4492188	n/a	125811	largeTSmallH	correct	incongruent	0.44922	no	T	H
491.8984375	n/a	125926	responseSmallH	correct	n/a	0.44922	no	n/a	n/a
492.96875	n/a	126200	largeHSmallH	correct	congruent	0.46094	no	H	H
493.4296875	n/a	126318	responseSmallH	correct	n/a	0.46094	no	n/a	n/a
494.5039062	n/a	126593	largeTSmallT	correct	congruent	0.34766	no	T	T
494.8515625	n/a	126682	responseSmallT	correct	n/a	0.34766	no	n/a	n/a
495.9296875	n/a	126958	largeHSmallH	correct	congruent	0.35156	no	H	H
496.28125	n/a	127048	responseSmallH	correct	n/a	0.35156	no	n/a	n/a
497.34375	n/a	127320	largeTSmallH	correct	incongruent	0.45312	no	T	H
497.796875	n/a	127436	responseSmallH	correct	n/a	0.45312	no	n/a	n/a
498.8632812	n/a	127709	largeTSmallH	correct	incongruent	0.42188	no	T	H
499.2851562	n/a	127817	responseSmallH	correct	n/a	0.42188	no	n/a	n/a
500.3554688	n/a	128091	largeTSmallT	correct	congruent	0.35547	no	T	T
500.7109375	n/a	128182	responseSmallT	correct	n/a	0.35547	no	n/a	n/a
501.78125	n/a	128456	largeTSmallT	correct	congruent	0.37109	no	T	T
502.1523438	n/a	128551	responseSmallT	correct	n/a	0.37109	no	n/a	n/a
503.2226562	n/a	128825	largeHSmallT	correct	incongruent	0.43359	no	H	T
503.65625	n/a	128936	responseSmallT	correct	n/a	0.43359	no	n/a	n/a
504.7304688	n/a	129211	largeTSmallT	correct	congruent	0.44531	no	T	T
505.1757812	n/a	129325	responseSmallT	correct	n/a	0.44531	no	n/a	n/a
506.234375	n/a	129596	largeTSmallT	correct	congruent	0.42578	no	T	T
506.6601562	n/a	129705	responseSmallT	correct	n/a	0.42578	no	n/a	n/a
507.7421875	n/a	129982	largeTSmallH	correct	incongruent	0.36719	no	T	H
508.109375	n/a	130076	responseSmallH	correct	n/a	0.36719	no	n/a	n/a
509.1796875	n/a	130350	largeHSmallT	correct	incongruent	0.45703	no	H	T
509.6367188	n/a	130467	responseSmallT	correct	n/a	0.45703	no	n/a	n/a
510.703125	n/a	130740	largeHSmallH	correct	congruent	0.38281	no	H	H
511.0859375	n/a	130838	responseSmallH	correct	n/a	0.38281	no	n/a	n/a
512.15625	n/a	131112	largeHSmallT	correct	incongruent	0.37891	no	H	T
512.5351562	n/a	131209	responseSmallT	correct	n/a	0.37891	no	n/a	n/a
513.59375	n/a	131480	largeTSmallT	correct	congruent	0.44531	no	T	T
514.0390625	n/a	131594	responseSmallT	correct	n/a	0.44531	no	n/a	n/a
515.1132812	n/a	131869	largeTSmallT	correct	congruent	0.53906	no	T	T
515.6523438	n/a	132007	responseSmallT	correct	n/a	0.53906	no	n/a	n/a
516.7148438	n/a	132279	largeHSmallH	correct	congruent	0.38281	no	H	H
517.0976562	n/a	132377	responseSmallH	correct	n/a	0.38281	no	n/a	n/a
518.1679688	n/a	132651	largeTSmallH	correct	incongruent	0.49219	no	T	H
518.6601562	n/a	132777	responseSmallH	correct	n/a	0.49219	no	n/a	n/a
519.7265625	n/a	133050	largeTSmallH	correct	incongruent	0.5	no	T	H
520.2265625	n/a	133178	responseSmallH	correct	n/a	0.5	no	n/a	n/a
521.2890625	n/a	133450	largeHSmallH	correct	congruent	0.38672	no	H	H
521.6757812	n/a	133549	responseSmallH	correct	n/a	0.38672	no	n/a	n/a
522.7421875	n/a	133822	largeHSmallT	correct	incongruent	0.54688	no	H	T
523.2890625	n/a	133962	responseSmallT	correct	n/a	0.54688	no	n/a	n/a
524.3671875	n/a	134238	largeTSmallH	correct	incongruent	0.34375	no	T	H
524.7109375	n/a	134326	responseSmallH	correct	n/a	0.34375	no	n/a	n/a
525.78125	n/a	134600	largeHSmallH	correct	congruent	0.44141	no	H	H
526.2226562	n/a	134713	responseSmallH	correct	n/a	0.44141	no	n/a	n/a
527.3007812	n/a	134989	largeHSmallH	correct	congruent	0.44141	no	H	H
527.7421875	n/a	135102	responseSmallH	correct	n/a	0.44141	no	n/a	n/a
528.8085938	n/a	135375	largeHSmallT	correct	incongruent	0.36719	no	H	T
529.1757812	n/a	135469	responseSmallT	correct	n/a	0.36719	no	n/a	n/a
530.2460938	n/a	135743	largeTSmallH	error	incongruent	0.44141	no	T	H
530.6875	n/a	135856	responseSmallT	error	n/a	0.44141	no	n/a	n/a
531.7539062	n/a	136129	largeHSmallT	correct	incongruent	0.45703	no	H	T
532.2109375	n/a	136246	responseSmallT	correct	n/a	0.45703	no	n/a	n/a
533.2890625	n/a	136522	largeHSmallT	correct	incongruent	0.48828	no	H	T
533.7773438	n/a	136647	responseSmallT	correct	n/a	0.48828	no	n/a	n/a
534.8476562	n/a	136921	largeTSmallT	correct	congruent	0.46484	no	T	T
535.3125	n/a	137040	responseSmallT	correct	n/a	0.46484	no	n/a	n/a
536.3828125	n/a	137314	largeHSmallH	correct	congruent	0.36719	no	H	H
536.75	n/a	137408	responseSmallH	correct	n/a	0.36719	no	n/a	n/a
537.8203125	n/a	137682	largeTSmallT	correct	congruent	0.44531	no	T	T
538.265625	n/a	137796	responseSmallT	correct	n/a	0.44531	no	n/a	n/a
539.3398438	n/a	138071	largeHSmallH	correct	congruent	0.40234	no	H	H
539.7421875	n/a	138174	responseSmallH	correct	n/a	0.40234	no	n/a	n/a
540.8085938	n/a	138447	largeHSmallH	correct	congruent	0.42578	no	H	H
541.234375	n/a	138556	responseSmallH	correct	n/a	0.42578	no	n/a	n/a
542.3007812	n/a	138829	largeTSmallH	correct	incongruent	0.4375	no	T	H
542.7382812	n/a	138941	responseSmallH	correct	n/a	0.4375	no	n/a	n/a
543.8085938	n/a	139215	largeTSmallH	correct	incongruent	0.45312	no	T	H
544.2617188	n/a	139331	responseSmallH	correct	n/a	0.45312	no	n/a	n/a
545.328125	n/a	139604	largeTSmallH	correct	incongruent	0.40234	no	T	H
545.7304688	n/a	139707	responseSmallH	correct	n/a	0.40234	no	n/a	n/a
546.7929688	n/a	139979	largeTSmallT	error	congruent	0.41016	no	T	T
547.203125	n/a	140084	responseSmallH	error	n/a	0.41016	no	n/a	n/a
548.2734375	n/a	140358	largeHSmallH	correct	congruent	0.375	no	H	H
548.6484375	n/a	140454	responseSmallH	correct	n/a	0.375	no	n/a	n/a
549.7148438	n/a	140727	largeHSmallH	correct	congruent	0.43359	no	H	H
550.1484375	n/a	140838	responseSmallH	correct	n/a	0.43359	no	n/a	n/a
551.2070312	n/a	141109	largeTSmallT	correct	congruent	0.40625	no	T	T
551.6132812	n/a	141213	responseSmallT	correct	n/a	0.40625	no	n/a	n/a
552.6757812	n/a	141485	largeHSmallH	correct	congruent	0.375	no	H	H
553.0507812	n/a	141581	responseSmallH	correct	n/a	0.375	no	n/a	n/a
554.1132812	n/a	141853	largeHSmallH	correct	congruent	0.4375	no	H	H
554.5507812	n/a	141965	responseSmallH	correct	n/a	0.4375	no	n/a	n/a
555.609375	n/a	142236	largeHSmallH	correct	congruent	0.49219	no	H	H
556.1015625	n/a	142362	responseSmallH	correct	n/a	0.49219	no	n/a	n/a
557.1679688	n/a	142635	largeHSmallH	correct	congruent	0.41016	no	H	H
557.578125	n/a	142740	responseSmallH	correct	n/a	0.41016	no	n/a	n/a
558.6601562	n/a	143017	largeHSmallH	correct	congruent	0.61719	no	H	H
559.2773438	n/a	143175	responseSmallH	correct	n/a	0.61719	no	n/a	n/a
560.3554688	n/a	143451	largeHSmallT	correct	incongruent	0.48438	no	H	T
560.8398438	n/a	143575	responseSmallT	correct	n/a	0.48438	no	n/a	n/a
561.9140625	n/a	143850	largeHSmallT	correct	incongruent	0.48438	no	H	T
562.3984375	n/a	143974	responseSmallT	correct	n/a	0.48438	no	n/a	n/a
563.4726562	n/a	144249	largeTSmallH	correct	incongruent	0.42578	no	T	H
563.8984375	n/a	144358	responseSmallH	correct	n/a	0.42578	no	n/a	n/a
564.9648438	n/a	144631	largeHSmallT	correct	incongruent	0.46094	no	H	T
565.4257812	n/a	144749	responseSmallT	correct	n/a	0.46094	no	n/a	n/a
566.5	n/a	145024	largeTSmallT	correct	congruent	0.48438	no	T	T
566.984375	n/a	145148	responseSmallT	correct	n/a	0.48438	no	n/a	n/a
568.0585938	n/a	145423	largeHSmallH	correct	congruent	0.40625	no	H	H
568.4648438	n/a	145527	responseSmallH	correct	n/a	0.40625	no	n/a	n/a
569.5273438	n/a	145799	largeTSmallT	correct	congruent	0.42578	no	T	T
569.953125	n/a	145908	responseSmallT	correct	n/a	0.42578	no	n/a	n/a
571.0351562	n/a	146185	largeHSmallT	correct	incongruent	0.54297	no	H	T
571.578125	n/a	146324	responseSmallT	correct	n/a	0.54297	no	n/a	n/a
572.6484375	n/a	146598	largeHSmallH	correct	congruent	0.37891	no	H	H
573.0273438	n/a	146695	responseSmallH	correct	n/a	0.37891	no	n/a	n/a
574.1015625	n/a	146970	largeTSmallH	correct	incongruent	0.46094	no	T	H
574.5625	n/a	147088	responseSmallH	correct	n/a	0.46094	no	n/a	n/a
575.6328125	n/a	147362	largeTSmallT	correct	congruent	0.42188	no	T	T
576.0546875	n/a	147470	responseSmallT	correct	n/a	0.42188	no	n/a	n/a
577.125	n/a	147744	largeTSmallH	correct	incongruent	0.44531	no	T	H
577.5703125	n/a	147858	responseSmallH	correct	n/a	0.44531	no	n/a	n/a
578.6328125	n/a	148130	largeTSmallH	correct	incongruent	0.44531	no	T	H
579.078125	n/a	148244	responseSmallH	correct	n/a	0.44531	no	n/a	n/a
580.1523438	n/a	148519	largeHSmallH	correct	congruent	0.44141	no	H	H
580.59375	n/a	148632	responseSmallH	correct	n/a	0.44141	no	n/a	n/a
581.671875	n/a	148908	largeTSmallT	correct	congruent	0.38281	no	T	T
582.0546875	n/a	149006	responseSmallT	correct	n/a	0.38281	no	n/a	n/a
583.125	n/a	149280	largeTSmallH	correct	incongruent	0.38281	no	T	H
583.5078125	n/a	149378	responseSmallH	correct	n/a	0.38281	no	n/a	n/a
584.578125	n/a	149652	largeHSmallT	correct	incongruent	0.375	no	H	T
584.953125	n/a	149748	responseSmallT	correct	n/a	0.375	no	n/a	n/a
586.0195312	n/a	150021	largeHSmallT	correct	incongruent	0.48438	no	H	T
586.5039062	n/a	150145	responseSmallT	correct	n/a	0.48438	no	n/a	n/a
587.578125	n/a	150420	largeHSmallH	correct	congruent	0.41016	no	H	H
587.9882812	n/a	150525	responseSmallH	correct	n/a	0.41016	no	n/a	n/a
589.0585938	n/a	150799	largeTSmallT	correct	congruent	0.43359	no	T	T
589.4921875	n/a	150910	responseSmallT	correct	n/a	0.43359	no	n/a	n/a
590.5546875	n/a	151182	largeTSmallT	correct	congruent	0.43359	no	T	T
590.9882812	n/a	151293	responseSmallT	correct	n/a	0.43359	no	n/a	n/a
592.0585938	n/a	151567	largeHSmallH	correct	congruent	0.41016	no	H	H
592.46875	n/a	151672	responseSmallH	correct	n/a	0.41016	no	n/a	n/a
593.5390625	n/a	151946	largeTSmallT	correct	congruent	0.40234	no	T	T
593.9414062	n/a	152049	responseSmallT	correct	n/a	0.40234	no	n/a	n/a
595.0195312	n/a	152325	largeHSmallH	correct	congruent	0.36328	no	H	H
595.3828125	n/a	152418	responseSmallH	correct	n/a	0.36328	no	n/a	n/a
596.4609375	n/a	152694	largeHSmallH	error	congruent	0.33984	no	H	H
596.8007812	n/a	152781	responseSmallT	error	n/a	0.33984	no	n/a	n/a
597.8710938	n/a	153055	largeTSmallH	correct	incongruent	0.47656	no	T	H
598.3476562	n/a	153177	responseSmallH	correct	n/a	0.47656	no	n/a	n/a
599.4179688	n/a	153451	largeTSmallT	correct	congruent	0.48047	no	T	T
599.8984375	n/a	153574	responseSmallT	correct	n/a	0.48047	no	n/a	n/a
600.9648438	n/a	153847	largeHSmallH	correct	congruent	0.38672	no	H	H
601.3515625	n/a	153946	responseSmallH	correct	n/a	0.38672	no	n/a	n/a
602.4335938	n/a	154223	largeTSmallT	correct	congruent	0.39844	no	T	T
602.8320312	n/a	154325	responseSmallT	correct	n/a	0.39844	no	n/a	n/a
603.8984375	n/a	154598	largeTSmallH	correct	incongruent	0.30859	no	T	H
604.2070312	n/a	154677	responseSmallH	correct	n/a	0.30859	no	n/a	n/a
605.2851562	n/a	154953	largeHSmallT	correct	incongruent	0.37891	no	H	T
605.6640625	n/a	155050	responseSmallT	correct	n/a	0.37891	no	n/a	n/a
606.7382812	n/a	155325	largeTSmallH	correct	incongruent	0.38281	no	T	H
607.1210938	n/a	155423	responseSmallH	correct	n/a	0.38281	no	n/a	n/a
608.1796875	n/a	155694	largeTSmallH	correct	incongruent	0.41797	no	T	H
608.5976562	n/a	155801	responseSmallH	correct	n/a	0.41797	no	n/a	n/a
609.671875	n/a	156076	largeTSmallH	correct	incongruent	0.42188	no	T	H
610.09375	n/a	156184	responseSmallH	correct	n/a	0.42188	no	n/a	n/a
611.1640625	n/a	156458	largeTSmallT	correct	congruent	0.38672	no	T	T
611.5507812	n/a	156557	responseSmallT	correct	n/a	0.38672	no	n/a	n/a
612.6328125	n/a	156834	largeTSmallT	correct	congruent	0.42578	no	T	T
613.0585938	n/a	156943	responseSmallT	correct	n/a	0.42578	no	n/a	n/a
614.125	n/a	157216	largeHSmallT	correct	incongruent	0.42188	no	H	T
614.546875	n/a	157324	responseSmallT	correct	n/a	0.42188	no	n/a	n/a
615.6328125	n/a	157602	largeTSmallH	correct	incongruent	0.40625	no	T	H
616.0390625	n/a	157706	responseSmallH	correct	n/a	0.40625	no	n/a	n/a
617.1132812	n/a	157981	largeTSmallT	correct	congruent	0.49609	no	T	T
617.609375	n/a	158108	responseSmallT	correct	n/a	0.49609	no	n/a	n/a
618.6835938	n/a	158383	largeHSmallT	correct	incongruent	0.46484	no	H	T
619.1484375	n/a	158502	responseSmallT	correct	n/a	0.46484	no	n/a	n/a
620.21875	n/a	158776	largeTSmallT	correct	congruent	0.39062	no	T	T
620.609375	n/a	158876	responseSmallT	correct	n/a	0.39062	no	n/a	n/a
621.671875	n/a	159148	largeHSmallH	correct	congruent	0.39844	no	H	H
622.0703125	n/a	159250	responseSmallH	correct	n/a	0.39844	no	n/a	n/a
623.140625	n/a	159524	largeTSmallH	correct	incongruent	0.40625	no	T	H
623.546875	n/a	159628	responseSmallH	correct	n/a	0.40625	no	n/a	n/a
624.6171875	n/a	159902	largeTSmallT	correct	congruent	0.39453	no	T	T
625.0117188	n/a	160003	responseSmallT	correct	n/a	0.39453	no	n/a	n/a
626.0703125	n/a	160274	largeHSmallT	correct	incongruent	0.38672	no	H	T
626.4570312	n/a	160373	responseSmallT	correct	n/a	0.38672	no	n/a	n/a
627.5234375	n/a	160646	largeHSmallT	correct	incongruent	0.46875	no	H	T
627.9921875	n/a	160766	responseSmallT	correct	n/a	0.46875	no	n/a	n/a
629.0585938	n/a	161039	largeHSmallT	correct	incongruent	0.41016	no	H	T
629.46875	n/a	161144	responseSmallT	correct	n/a	0.41016	no	n/a	n/a
630.5390625	n/a	161418	largeTSmallH	correct	incongruent	0.44531	no	T	H
630.984375	n/a	161532	responseSmallH	correct	n/a	0.44531	no	n/a	n/a
632.0585938	n/a	161807	largeTSmallH	correct	incongruent	0.42188	no	T	H
632.4804688	n/a	161915	responseSmallH	correct	n/a	0.42188	no	n/a	n/a
633.5507812	n/a	162189	largeTSmallT	error	congruent	0.40625	no	T	T
633.9570312	n/a	162293	responseSmallH	error	n/a	0.40625	no	n/a	n/a
635.03125	n/a	162568	largeHSmallH	correct	congruent	0.39062	no	H	H
635.421875	n/a	162668	responseSmallH	correct	n/a	0.39062	no	n/a	n/a
636.5	n/a	162944	largeHSmallH	correct	congruent	0.42188	no	H	H
636.921875	n/a	163052	responseSmallH	correct	n/a	0.42188	no	n/a	n/a
637.9921875	n/a	163326	largeHSmallT	correct	incongruent	0.48438	no	H	T
638.4765625	n/a	163450	responseSmallT	correct	n/a	0.48438	no	n/a	n/a
639.5390625	n/a	163722	largeHSmallT	correct	incongruent	0.42578	no	H	T
639.9648438	n/a	163831	responseSmallT	correct	n/a	0.42578	no	n/a	n/a
641.0429688	n/a	164107	largeHSmallH	correct	congruent	0.39453	no	H	H
641.4375	n/a	164208	responseSmallH	correct	n/a	0.39453	no	n/a	n/a
642.5	n/a	164480	largeTSmallT	correct	congruent	0.39844	no	T	T
642.8984375	n/a	164582	responseSmallT	correct	n/a	0.39844	no	n/a	n/a
643.9648438	n/a	164855	largeTSmallH	correct	incongruent	0.35547	no	T	H
644.3203125	n/a	164946	responseSmallH	correct	n/a	0.35547	no	n/a	n/a
645.390625	n/a	165220	largeHSmallT	correct	incongruent	0.375	no	H	T
645.765625	n/a	165316	responseSmallT	correct	n/a	0.375	no	n/a	n/a
646.84375	n/a	165592	largeHSmallT	error	incongruent	0.33203	no	H	T
647.1757812	n/a	165677	responseSmallH	error	n/a	0.33203	no	n/a	n/a
648.2460938	n/a	165951	largeTSmallT	correct	congruent	0.44922	no	T	T
648.6953125	n/a	166066	responseSmallT	correct	n/a	0.44922	no	n/a	n/a
649.765625	n/a	166340	largeHSmallH	correct	congruent	0.38672	no	H	H
650.1523438	n/a	166439	responseSmallH	correct	n/a	0.38672	no	n/a	n/a
651.2304688	n/a	166715	largeHSmallT	correct	incongruent	0.35938	no	H	T
651.5898438	n/a	166807	responseSmallT	correct	n/a	0.35938	no	n/a	n/a
652.65625	n/a	167080	largeHSmallT	correct	incongruent	0.46094	no	H	T
653.1171875	n/a	167198	responseSmallT	correct	n/a	0.46094	no	n/a	n/a
654.1914062	n/a	167473	largeHSmallT	correct	incongruent	0.51172	no	H	T
654.703125	n/a	167604	responseSmallT	correct	n/a	0.51172	no	n/a	n/a
655.7773438	n/a	167879	largeHSmallT	correct	incongruent	0.45312	no	H	T
656.2304688	n/a	167995	responseSmallT	correct	n/a	0.45312	no	n/a	n/a
657.3125	n/a	168272	largeTSmallH	correct	incongruent	0.5	no	T	H
657.8125	n/a	168400	responseSmallH	correct	n/a	0.5	no	n/a	n/a
658.8828125	n/a	168674	largeTSmallH	correct	incongruent	0.46875	no	T	H
659.3515625	n/a	168794	responseSmallH	correct	n/a	0.46875	no	n/a	n/a
660.4296875	n/a	169070	largeHSmallT	correct	incongruent	0.43359	no	H	T
660.8632812	n/a	169181	responseSmallT	correct	n/a	0.43359	no	n/a	n/a
661.9257812	n/a	169453	largeHSmallT	correct	incongruent	0.44531	no	H	T
662.3710938	n/a	169567	responseSmallT	correct	n/a	0.44531	no	n/a	n/a
663.4453125	n/a	169842	largeTSmallT	correct	congruent	0.44141	no	T	T
663.8867188	n/a	169955	responseSmallT	correct	n/a	0.44141	no	n/a	n/a
664.9492188	n/a	170227	largeTSmallH	correct	incongruent	0.37109	no	T	H
665.3203125	n/a	170322	responseSmallH	correct	n/a	0.37109	no	n/a	n/a
666.390625	n/a	170596	largeHSmallT	correct	incongruent	0.49219	no	H	T
666.8828125	n/a	170722	responseSmallT	correct	n/a	0.49219	no	n/a	n/a
667.9492188	n/a	170995	largeTSmallH	correct	incongruent	0.41406	no	T	H
668.3632812	n/a	171101	responseSmallH	correct	n/a	0.41406	no	n/a	n/a
669.4296875	n/a	171374	largeTSmallH	correct	incongruent	0.45703	no	T	H
669.8867188	n/a	171491	responseSmallH	correct	n/a	0.45703	no	n/a	n/a
670.9648438	n/a	171767	largeHSmallH	correct	congruent	0.46875	no	H	H
671.4335938	n/a	171887	responseSmallH	correct	n/a	0.46875	no	n/a	n/a
672.4960938	n/a	172159	largeTSmallT	correct	congruent	0.40625	no	T	T
672.9023438	n/a	172263	responseSmallT	correct	n/a	0.40625	no	n/a	n/a
673.9648438	n/a	172535	largeHSmallT	correct	incongruent	0.48047	no	H	T
674.4453125	n/a	172658	responseSmallT	correct	n/a	0.48047	no	n/a	n/a
675.5234375	n/a	172934	largeTSmallT	correct	congruent	0.44141	no	T	T
675.9648438	n/a	173047	responseSmallT	correct	n/a	0.44141	no	n/a	n/a
677.03125	n/a	173320	largeHSmallH	correct	congruent	0.39453	no	H	H
677.4257812	n/a	173421	responseSmallH	correct	n/a	0.39453	no	n/a	n/a
678.4960938	n/a	173695	largeTSmallH	correct	incongruent	0.44922	no	T	H
678.9453125	n/a	173810	responseSmallH	correct	n/a	0.44922	no	n/a	n/a
680.015625	n/a	174084	largeTSmallH	correct	incongruent	0.46875	no	T	H
680.484375	n/a	174204	responseSmallH	correct	n/a	0.46875	no	n/a	n/a
681.5507812	n/a	174477	largeHSmallH	correct	congruent	0.53125	no	H	H
682.0820312	n/a	174613	responseSmallH	correct	n/a	0.53125	no	n/a	n/a
683.1640625	n/a	174890	largeTSmallT	correct	congruent	0.57422	no	T	T
683.7382812	n/a	175037	responseSmallT	correct	n/a	0.57422	no	n/a	n/a
694.3515625	n/a	177754	largeHSmallT	correct	incongruent	0.57422	no	H	T
694.9257812	n/a	177901	responseLargeH	correct	n/a	0.57422	no	n/a	n/a
696.0039062	n/a	178177	largeTSmallH	correct	incongruent	0.39062	no	T	H
696.3945312	n/a	178277	responseLargeT	correct	n/a	0.39062	no	n/a	n/a
697.4570312	n/a	178549	largeTSmallH	error	incongruent	0.32031	no	T	H
697.7773438	n/a	178631	responseLargeH	error	n/a	0.32031	no	n/a	n/a
698.8554688	n/a	178907	largeHSmallH	correct	congruent	0.32422	no	H	H
699.1796875	n/a	178990	responseLargeH	correct	n/a	0.32422	no	n/a	n/a
700.2578125	n/a	179266	largeTSmallT	correct	congruent	0.375	no	T	T
700.6328125	n/a	179362	responseLargeT	correct	n/a	0.375	no	n/a	n/a
701.7109375	n/a	179638	largeHSmallT	correct	incongruent	0.33203	no	H	T
702.0429688	n/a	179723	responseLargeH	correct	n/a	0.33203	no	n/a	n/a
703.109375	n/a	179996	largeTSmallT	correct	congruent	0.35938	no	T	T
703.46875	n/a	180088	responseLargeT	correct	n/a	0.35938	no	n/a	n/a
704.5351562	n/a	180361	largeTSmallH	error	incongruent	0.32031	no	T	H
704.8554688	n/a	180443	responseLargeH	error	n/a	0.32031	no	n/a	n/a
705.921875	n/a	180716	largeTSmallH	correct	incongruent	0.45312	no	T	H
706.375	n/a	180832	responseLargeT	correct	n/a	0.45312	no	n/a	n/a
707.4414062	n/a	181105	largeTSmallH	error	incongruent	0.35156	no	T	H
707.7929688	n/a	181195	responseLargeH	error	n/a	0.35156	no	n/a	n/a
708.8710938	n/a	181471	largeHSmallH	correct	congruent	0.34375	no	H	H
709.2148438	n/a	181559	responseLargeH	correct	n/a	0.34375	no	n/a	n/a
710.28125	n/a	181832	largeHSmallH	correct	congruent	0.39453	no	H	H
710.6757812	n/a	181933	responseLargeH	correct	n/a	0.39453	no	n/a	n/a
711.75	n/a	182208	largeTSmallT	correct	congruent	0.31641	no	T	T
712.0664062	n/a	182289	responseLargeT	correct	n/a	0.31641	no	n/a	n/a
713.1367188	n/a	182563	largeTSmallT	correct	congruent	0.42969	no	T	T
713.5664062	n/a	182673	responseLargeT	correct	n/a	0.42969	no	n/a	n/a
714.6445312	n/a	182949	largeHSmallT	correct	incongruent	0.35938	no	H	T
715.0039062	n/a	183041	responseLargeH	correct	n/a	0.35938	no	n/a	n/a
716.0703125	n/a	183314	largeTSmallH	correct	incongruent	0.41016	no	T	H
716.4804688	n/a	183419	responseLargeT	correct	n/a	0.41016	no	n/a	n/a
717.5507812	n/a	183693	largeTSmallT	correct	congruent	0.46484	no	T	T
718.015625	n/a	183812	responseLargeT	correct	n/a	0.46484	no	n/a	n/a
719.0820312	n/a	184085	largeHSmallT	correct	incongruent	0.41406	no	H	T
719.4960938	n/a	184191	responseLargeH	correct	n/a	0.41406	no	n/a	n/a
720.5625	n/a	184464	largeTSmallH	correct	incongruent	0.42578	no	T	H
720.9882812	n/a	184573	responseLargeT	correct	n/a	0.42578	no	n/a	n/a
722.0703125	n/a	184850	largeTSmallT	correct	congruent	0.47656	no	T	T
722.546875	n/a	184972	responseLargeT	correct	n/a	0.47656	no	n/a	n/a
723.6289062	n/a	185249	largeTSmallH	error	incongruent	0.33594	no	T	H
723.9648438	n/a	185335	responseLargeH	error	n/a	0.33594	no	n/a	n/a
725.0273438	n/a	185607	largeTSmallH	error	incongruent	0.33203	no	T	H
725.359375	n/a	185692	responseLargeH	error	n/a	0.33203	no	n/a	n/a
726.4296875	n/a	185966	largeHSmallH	correct	congruent	0.30469	no	H	H
726.734375	n/a	186044	responseLargeH	correct	n/a	0.30469	no	n/a	n/a
727.8007812	n/a	186317	largeTSmallH	correct	incongruent	0.41406	no	T	H
728.2148438	n/a	186423	responseLargeT	correct	n/a	0.41406	no	n/a	n/a
729.28125	n/a	186696	largeHSmallT	correct	incongruent	0.35547	no	H	T
729.6367188	n/a	186787	responseLargeH	correct	n/a	0.35547	no	n/a	n/a
730.7109375	n/a	187062	largeTSmallT	correct	congruent	0.33594	no	T	T
731.046875	n/a	187148	responseLargeT	correct	n/a	0.33594	no	n/a	n/a
732.109375	n/a	187420	largeTSmallH	correct	incongruent	0.49219	no	T	H
732.6015625	n/a	187546	responseLargeT	correct	n/a	0.49219	no	n/a	n/a
733.6679688	n/a	187819	largeHSmallT	correct	incongruent	0.37891	no	H	T
734.046875	n/a	187916	responseLargeH	correct	n/a	0.37891	no	n/a	n/a
735.1210938	n/a	188191	largeTSmallH	correct	incongruent	0.35938	no	T	H
735.4804688	n/a	188283	responseLargeT	correct	n/a	0.35938	no	n/a	n/a
736.5625	n/a	188560	largeHSmallT	correct	incongruent	0.36719	no	H	T
736.9296875	n/a	188654	responseLargeH	correct	n/a	0.36719	no	n/a	n/a
737.9882812	n/a	188925	largeHSmallT	correct	incongruent	0.4375	no	H	T
738.4257812	n/a	189037	responseLargeH	correct	n/a	0.4375	no	n/a	n/a
739.4804688	n/a	189307	largeTSmallH	correct	incongruent	0.32031	no	T	H
739.8007812	n/a	189389	responseLargeT	correct	n/a	0.32031	no	n/a	n/a
740.8828125	n/a	189666	largeHSmallT	correct	incongruent	0.375	no	H	T
741.2578125	n/a	189762	responseLargeH	correct	n/a	0.375	no	n/a	n/a
742.3359375	n/a	190038	largeHSmallH	error	congruent	0.39453	no	H	H
742.7304688	n/a	190139	responseLargeT	error	n/a	0.39453	no	n/a	n/a
743.8164062	n/a	190417	largeTSmallT	correct	congruent	0.39062	no	T	T
744.2070312	n/a	190517	responseLargeT	correct	n/a	0.39062	no	n/a	n/a
745.28125	n/a	190792	largeHSmallH	correct	congruent	0.35938	no	H	H
745.640625	n/a	190884	responseLargeH	correct	n/a	0.35938	no	n/a	n/a
746.7070312	n/a	191157	largeTSmallT	correct	congruent	0.35547	no	T	T
747.0625	n/a	191248	responseLargeT	correct	n/a	0.35547	no	n/a	n/a
748.1367188	n/a	191523	largeHSmallT	correct	incongruent	0.35547	no	H	T
748.4921875	n/a	191614	responseLargeH	correct	n/a	0.35547	no	n/a	n/a
749.5742188	n/a	191891	largeTSmallT	correct	congruent	0.53125	no	T	T
750.1054688	n/a	192027	responseLargeT	correct	n/a	0.53125	no	n/a	n/a
751.1757812	n/a	192301	largeTSmallT	correct	congruent	1.043	no	T	T
752.21875	n/a	192568	responseLargeT	correct	n/a	1.043	no	n/a	n/a
753.296875	n/a	192844	largeTSmallT	correct	congruent	0.46875	no	T	T
753.765625	n/a	192964	responseLargeT	correct	n/a	0.46875	no	n/a	n/a
754.84375	n/a	193240	largeHSmallH	correct	congruent	0.42969	no	H	H
755.2734375	n/a	193350	responseLargeH	correct	n/a	0.42969	no	n/a	n/a
756.3359375	n/a	193622	largeHSmallT	correct	incongruent	0.50391	no	H	T
756.8398438	n/a	193751	responseLargeH	correct	n/a	0.50391	no	n/a	n/a
757.9101562	n/a	194025	largeHSmallH	correct	congruent	0.47266	no	H	H
758.3828125	n/a	194146	responseLargeH	correct	n/a	0.47266	no	n/a	n/a
759.453125	n/a	194420	largeTSmallT	correct	congruent	0.44531	no	T	T
759.8984375	n/a	194534	responseLargeT	correct	n/a	0.44531	no	n/a	n/a
760.9765625	n/a	194810	largeHSmallH	correct	congruent	0.46484	no	H	H
761.4414062	n/a	194929	responseLargeH	correct	n/a	0.46484	no	n/a	n/a
762.5234375	n/a	195206	largeTSmallH	correct	incongruent	0.45703	no	T	H
762.9804688	n/a	195323	responseLargeT	correct	n/a	0.45703	no	n/a	n/a
764.0429688	n/a	195595	largeTSmallH	correct	incongruent	0.48438	no	T	H
764.5273438	n/a	195719	responseLargeT	correct	n/a	0.48438	no	n/a	n/a
765.6015625	n/a	195994	largeTSmallH	correct	incongruent	0.46875	no	T	H
766.0703125	n/a	196114	responseLargeT	correct	n/a	0.46875	no	n/a	n/a
767.1484375	n/a	196390	largeHSmallH	correct	congruent	0.39844	no	H	H
767.546875	n/a	196492	responseLargeH	correct	n/a	0.39844	no	n/a	n/a
768.6132812	n/a	196765	largeTSmallH	correct	incongruent	0.45312	no	T	H
769.0664062	n/a	196881	responseLargeT	correct	n/a	0.45312	no	n/a	n/a
770.1484375	n/a	197158	largeHSmallH	correct	congruent	0.37109	no	H	H
770.5195312	n/a	197253	responseLargeH	correct	n/a	0.37109	no	n/a	n/a
771.6015625	n/a	197530	largeTSmallT	error	congruent	0.47656	no	T	T
772.078125	n/a	197652	responseLargeH	error	n/a	0.47656	no	n/a	n/a
773.1328125	n/a	197922	largeHSmallH	correct	congruent	0.4375	no	H	H
773.5703125	n/a	198034	responseLargeH	correct	n/a	0.4375	no	n/a	n/a
774.640625	n/a	198308	largeHSmallT	correct	incongruent	0.47656	no	H	T
775.1171875	n/a	198430	responseLargeH	correct	n/a	0.47656	no	n/a	n/a
776.203125	n/a	198708	largeHSmallT	correct	incongruent	0.51953	no	H	T
776.7226562	n/a	198841	responseLargeH	correct	n/a	0.51953	no	n/a	n/a
777.7890625	n/a	199114	largeTSmallH	correct	incongruent	0.39062	no	T	H
778.1796875	n/a	199214	responseLargeT	correct	n/a	0.39062	no	n/a	n/a
779.2539062	n/a	199489	largeHSmallH	correct	congruent	0.38672	no	H	H
779.640625	n/a	199588	responseLargeH	correct	n/a	0.38672	no	n/a	n/a
780.7070312	n/a	199861	largeTSmallT	correct	congruent	0.44922	no	T	T
781.15625	n/a	199976	responseLargeT	correct	n/a	0.44922	no	n/a	n/a
782.2421875	n/a	200254	largeHSmallH	correct	congruent	0.34766	no	H	H
782.5898438	n/a	200343	responseLargeH	correct	n/a	0.34766	no	n/a	n/a
783.6679688	n/a	200619	largeTSmallT	correct	congruent	0.34766	no	T	T
784.015625	n/a	200708	responseLargeT	correct	n/a	0.34766	no	n/a	n/a
785.09375	n/a	200984	largeHSmallH	correct	congruent	0.34766	no	H	H
785.4414062	n/a	201073	responseLargeH	correct	n/a	0.34766	no	n/a	n/a
786.5078125	n/a	201346	largeHSmallT	correct	incongruent	0.45312	no	H	T
786.9609375	n/a	201462	responseLargeH	correct	n/a	0.45312	no	n/a	n/a
788.0390625	n/a	201738	largeTSmallT	correct	congruent	0.35547	no	T	T
788.3945312	n/a	201829	responseLargeT	correct	n/a	0.35547	no	n/a	n/a
789.453125	n/a	202100	largeTSmallH	correct	incongruent	0.43359	no	T	H
789.8867188	n/a	202211	responseLargeT	correct	n/a	0.43359	no	n/a	n/a
790.9609375	n/a	202486	largeTSmallT	correct	congruent	0.46094	no	T	T
791.421875	n/a	202604	responseLargeT	correct	n/a	0.46094	no	n/a	n/a
792.4960938	n/a	202879	largeTSmallH	correct	incongruent	0.4375	no	T	H
792.9335938	n/a	202991	responseLargeT	correct	n/a	0.4375	no	n/a	n/a
794.015625	n/a	203268	largeTSmallH	correct	incongruent	0.39453	no	T	H
794.4101562	n/a	203369	responseLargeT	correct	n/a	0.39453	no	n/a	n/a
795.4804688	n/a	203643	largeHSmallH	correct	congruent	0.38672	no	H	H
795.8671875	n/a	203742	responseLargeH	correct	n/a	0.38672	no	n/a	n/a
796.9492188	n/a	204019	largeHSmallT	correct	incongruent	0.42188	no	H	T
797.3710938	n/a	204127	responseLargeH	correct	n/a	0.42188	no	n/a	n/a
798.4414062	n/a	204401	largeHSmallH	correct	congruent	0.48047	no	H	H
798.921875	n/a	204524	responseLargeH	correct	n/a	0.48047	no	n/a	n/a
799.9882812	n/a	204797	largeHSmallT	correct	incongruent	0.45703	no	H	T
800.4453125	n/a	204914	responseLargeH	correct	n/a	0.45703	no	n/a	n/a
801.5195312	n/a	205189	largeHSmallH	correct	congruent	0.42578	no	H	H
801.9453125	n/a	205298	responseLargeH	correct	n/a	0.42578	no	n/a	n/a
803.015625	n/a	205572	largeHSmallH	correct	congruent	0.42578	no	H	H
803.4414062	n/a	205681	responseLargeH	correct	n/a	0.42578	no	n/a	n/a
804.5078125	n/a	205954	largeTSmallH	correct	incongruent	0.39453	no	T	H
804.9023438	n/a	206055	responseLargeT	correct	n/a	0.39453	no	n/a	n/a
805.9726562	n/a	206329	largeHSmallT	correct	incongruent	0.36719	no	H	T
806.3398438	n/a	206423	responseLargeH	correct	n/a	0.36719	no	n/a	n/a
807.4140625	n/a	206698	largeTSmallT	correct	congruent	0.45312	no	T	T
807.8671875	n/a	206814	responseLargeT	correct	n/a	0.45312	no	n/a	n/a
808.9453125	n/a	207090	largeTSmallT	correct	congruent	0.51172	no	T	T
809.4570312	n/a	207221	responseLargeT	correct	n/a	0.51172	no	n/a	n/a
810.5351562	n/a	207497	largeHSmallH	correct	congruent	0.35156	no	H	H
810.8867188	n/a	207587	responseLargeH	correct	n/a	0.35156	no	n/a	n/a
811.9453125	n/a	207858	largeTSmallT	correct	congruent	0.33984	no	T	T
812.2851562	n/a	207945	responseLargeT	correct	n/a	0.33984	no	n/a	n/a
813.359375	n/a	208220	largeHSmallT	correct	incongruent	0.36328	no	H	T
813.7226562	n/a	208313	responseLargeH	correct	n/a	0.36328	no	n/a	n/a
814.7851562	n/a	208585	largeHSmallT	error	incongruent	0.3125	no	H	T
815.0976562	n/a	208665	responseLargeT	error	n/a	0.3125	no	n/a	n/a
816.1601562	n/a	208937	largeTSmallH	correct	incongruent	0.41016	no	T	H
816.5703125	n/a	209042	responseLargeT	correct	n/a	0.41016	no	n/a	n/a
817.640625	n/a	209316	largeTSmallT	correct	congruent	0.53906	no	T	T
818.1796875	n/a	209454	responseLargeT	correct	n/a	0.53906	no	n/a	n/a
819.2539062	n/a	209729	largeTSmallT	correct	congruent	0.45312	no	T	T
819.7070312	n/a	209845	responseLargeT	correct	n/a	0.45312	no	n/a	n/a
820.7851562	n/a	210121	largeHSmallT	correct	incongruent	0.35547	no	H	T
821.140625	n/a	210212	responseLargeH	correct	n/a	0.35547	no	n/a	n/a
822.2148438	n/a	210487	largeHSmallH	correct	congruent	0.46875	no	H	H
822.6835938	n/a	210607	responseLargeH	correct	n/a	0.46875	no	n/a	n/a
823.7617188	n/a	210883	largeHSmallT	correct	incongruent	0.45703	no	H	T
824.21875	n/a	211000	responseLargeH	correct	n/a	0.45703	no	n/a	n/a
825.2929688	n/a	211275	largeTSmallH	correct	incongruent	0.49219	no	T	H
825.7851562	n/a	211401	responseLargeT	correct	n/a	0.49219	no	n/a	n/a
826.8515625	n/a	211674	largeTSmallT	correct	congruent	0.47266	no	T	T
827.3242188	n/a	211795	responseLargeT	correct	n/a	0.47266	no	n/a	n/a
828.3984375	n/a	212070	largeHSmallH	correct	congruent	0.45703	no	H	H
828.8554688	n/a	212187	responseLargeH	correct	n/a	0.45703	no	n/a	n/a
829.9179688	n/a	212459	largeHSmallH	correct	congruent	0.43359	no	H	H
830.3515625	n/a	212570	responseLargeH	correct	n/a	0.43359	no	n/a	n/a
831.4257812	n/a	212845	largeHSmallH	correct	congruent	0.43359	no	H	H
831.859375	n/a	212956	responseLargeH	correct	n/a	0.43359	no	n/a	n/a
832.9335938	n/a	213231	largeTSmallT	correct	congruent	0.37109	no	T	T
833.3046875	n/a	213326	responseLargeT	correct	n/a	0.37109	no	n/a	n/a
834.375	n/a	213600	largeHSmallT	correct	incongruent	0.66406	no	H	T
835.0390625	n/a	213770	responseLargeH	correct	n/a	0.66406	no	n/a	n/a
836.1210938	n/a	214047	largeHSmallT	correct	incongruent	0.44531	no	H	T
836.5664062	n/a	214161	responseLargeH	correct	n/a	0.44531	no	n/a	n/a
837.625	n/a	214432	largeTSmallT	correct	congruent	0.37109	no	T	T
837.9960938	n/a	214527	responseLargeT	correct	n/a	0.37109	no	n/a	n/a
839.0664062	n/a	214801	largeTSmallT	correct	congruent	0.45703	no	T	T
839.5234375	n/a	214918	responseLargeT	correct	n/a	0.45703	no	n/a	n/a
840.6015625	n/a	215194	largeHSmallT	correct	incongruent	0.33594	no	H	T
840.9375	n/a	215280	responseLargeH	correct	n/a	0.33594	no	n/a	n/a
842.0117188	n/a	215555	largeHSmallT	error	incongruent	0.35547	no	H	T
842.3671875	n/a	215646	responseLargeT	error	n/a	0.35547	no	n/a	n/a
843.4257812	n/a	215917	largeHSmallH	correct	congruent	0.4375	no	H	H
843.8632812	n/a	216029	responseLargeH	correct	n/a	0.4375	no	n/a	n/a
844.9335938	n/a	216303	largeTSmallT	correct	congruent	0.40234	no	T	T
845.3359375	n/a	216406	responseLargeT	correct	n/a	0.40234	no	n/a	n/a
846.4140625	n/a	216682	largeTSmallT	correct	congruent	0.43359	no	T	T
846.8476562	n/a	216793	responseLargeT	correct	n/a	0.43359	no	n/a	n/a
847.9179688	n/a	217067	largeTSmallH	correct	incongruent	0.44141	no	T	H
848.359375	n/a	217180	responseLargeT	correct	n/a	0.44141	no	n/a	n/a
849.4257812	n/a	217453	largeTSmallH	correct	incongruent	0.44922	no	T	H
849.875	n/a	217568	responseLargeT	correct	n/a	0.44922	no	n/a	n/a
850.9453125	n/a	217842	largeHSmallH	correct	congruent	0.34766	no	H	H
851.2929688	n/a	217931	responseLargeH	correct	n/a	0.34766	no	n/a	n/a
852.3710938	n/a	218207	largeTSmallH	correct	incongruent	0.375	no	T	H
852.7460938	n/a	218303	responseLargeT	correct	n/a	0.375	no	n/a	n/a
853.8242188	n/a	218579	largeTSmallH	correct	incongruent	0.47266	no	T	H
854.296875	n/a	218700	responseLargeT	correct	n/a	0.47266	no	n/a	n/a
855.3710938	n/a	218975	largeHSmallH	correct	congruent	0.36328	no	H	H
855.734375	n/a	219068	responseLargeH	correct	n/a	0.36328	no	n/a	n/a
856.8007812	n/a	219341	largeHSmallT	correct	incongruent	0.40234	no	H	T
857.203125	n/a	219444	responseLargeH	correct	n/a	0.40234	no	n/a	n/a
858.265625	n/a	219716	largeTSmallT	correct	congruent	0.46484	no	T	T
858.7304688	n/a	219835	responseLargeT	correct	n/a	0.46484	no	n/a	n/a
859.8007812	n/a	220109	largeTSmallT	correct	congruent	0.51172	no	T	T
860.3125	n/a	220240	responseLargeT	correct	n/a	0.51172	no	n/a	n/a
861.3867188	n/a	220515	largeTSmallH	correct	incongruent	0.44922	no	T	H
861.8359375	n/a	220630	responseLargeT	correct	n/a	0.44922	no	n/a	n/a
862.90625	n/a	220904	largeTSmallT	correct	congruent	0.4375	no	T	T
863.34375	n/a	221016	responseLargeT	correct	n/a	0.4375	no	n/a	n/a
864.4140625	n/a	221290	largeHSmallH	correct	congruent	0.35156	no	H	H
864.765625	n/a	221380	responseLargeH	correct	n/a	0.35156	no	n/a	n/a
865.8398438	n/a	221655	largeTSmallH	correct	incongruent	0.38672	no	T	H
866.2265625	n/a	221754	responseLargeT	correct	n/a	0.38672	no	n/a	n/a
867.3046875	n/a	222030	largeHSmallH	correct	congruent	0.34766	no	H	H
867.6523438	n/a	222119	responseLargeH	correct	n/a	0.34766	no	n/a	n/a
868.71875	n/a	222392	largeHSmallH	correct	congruent	0.47656	no	H	H
869.1953125	n/a	222514	responseLargeH	correct	n/a	0.47656	no	n/a	n/a
870.265625	n/a	222788	largeTSmallH	correct	incongruent	0.37109	no	T	H
870.6367188	n/a	222883	responseLargeT	correct	n/a	0.37109	no	n/a	n/a
871.7070312	n/a	223157	largeTSmallT	correct	congruent	0.46094	no	T	T
872.1679688	n/a	223275	responseLargeT	correct	n/a	0.46094	no	n/a	n/a
873.2539062	n/a	223553	largeHSmallT	correct	incongruent	0.35156	no	H	T
873.6054688	n/a	223643	responseLargeH	correct	n/a	0.35156	no	n/a	n/a
874.6796875	n/a	223918	largeHSmallH	error	congruent	0.31641	no	H	H
874.9960938	n/a	223999	responseLargeT	error	n/a	0.31641	no	n/a	n/a
876.0664062	n/a	224273	largeHSmallH	correct	congruent	0.49609	no	H	H
876.5625	n/a	224400	responseLargeH	correct	n/a	0.49609	no	n/a	n/a
877.625	n/a	224672	largeHSmallT	correct	incongruent	0.45312	no	H	T
878.078125	n/a	224788	responseLargeH	correct	n/a	0.45312	no	n/a	n/a
879.1445312	n/a	225061	largeHSmallT	correct	incongruent	0.46484	no	H	T
879.609375	n/a	225180	responseLargeH	correct	n/a	0.46484	no	n/a	n/a
880.6914062	n/a	225457	largeHSmallT	correct	incongruent	0.46484	no	H	T
881.15625	n/a	225576	responseLargeH	correct	n/a	0.46484	no	n/a	n/a
882.2265625	n/a	225850	largeHSmallT	correct	incongruent	0.39062	no	H	T
882.6171875	n/a	225950	responseLargeH	correct	n/a	0.39062	no	n/a	n/a
883.6796875	n/a	226222	largeTSmallH	correct	incongruent	0.37109	no	T	H
884.0507812	n/a	226317	responseLargeT	correct	n/a	0.37109	no	n/a	n/a
885.1171875	n/a	226590	largeHSmallH	correct	congruent	0.375	no	H	H
885.4921875	n/a	226686	responseLargeH	correct	n/a	0.375	no	n/a	n/a
886.5703125	n/a	226962	largeHSmallH	correct	congruent	0.47656	no	H	H
887.046875	n/a	227084	responseLargeH	correct	n/a	0.47656	no	n/a	n/a
888.1171875	n/a	227358	largeHSmallT	correct	incongruent	0.45312	no	H	T
888.5703125	n/a	227474	responseLargeH	correct	n/a	0.45312	no	n/a	n/a
889.6367188	n/a	227747	largeHSmallT	error	incongruent	0.41797	no	H	T
890.0546875	n/a	227854	responseLargeT	error	n/a	0.41797	no	n/a	n/a
891.1171875	n/a	228126	largeTSmallH	correct	incongruent	0.39844	no	T	H
891.515625	n/a	228228	responseLargeT	correct	n/a	0.39844	no	n/a	n/a
892.5859375	n/a	228502	largeHSmallT	correct	incongruent	0.32422	no	H	T
892.9101562	n/a	228585	responseLargeH	correct	n/a	0.32422	no	n/a	n/a
893.9726562	n/a	228857	largeTSmallH	correct	incongruent	0.41016	no	T	H
894.3828125	n/a	228962	responseLargeT	correct	n/a	0.41016	no	n/a	n/a
895.4648438	n/a	229239	largeHSmallH	correct	congruent	0.33203	no	H	H
895.796875	n/a	229324	responseLargeH	correct	n/a	0.33203	no	n/a	n/a
896.8632812	n/a	229597	largeTSmallH	correct	incongruent	0.42188	no	T	H
897.2851562	n/a	229705	responseLargeT	correct	n/a	0.42188	no	n/a	n/a
898.359375	n/a	229980	largeTSmallT	error	congruent	0.32422	no	T	T
898.6835938	n/a	230063	responseLargeH	error	n/a	0.32422	no	n/a	n/a
899.7460938	n/a	230335	largeHSmallT	correct	incongruent	0.31641	no	H	T
900.0625	n/a	230416	responseLargeH	correct	n/a	0.31641	no	n/a	n/a
901.1328125	n/a	230690	largeTSmallH	correct	incongruent	0.34375	no	T	H
901.4765625	n/a	230778	responseLargeT	correct	n/a	0.34375	no	n/a	n/a
902.5429688	n/a	231051	largeTSmallH	correct	incongruent	0.47266	no	T	H
903.015625	n/a	231172	responseLargeT	correct	n/a	0.47266	no	n/a	n/a
904.0898438	n/a	231447	largeHSmallT	correct	incongruent	0.35938	no	H	T
904.4492188	n/a	231539	responseLargeH	correct	n/a	0.35938	no	n/a	n/a
905.5195312	n/a	231813	largeHSmallT	correct	incongruent	0.44531	no	H	T
905.9648438	n/a	231927	responseLargeH	correct	n/a	0.44531	no	n/a	n/a
907.0390625	n/a	232202	largeTSmallH	correct	incongruent	0.36328	no	T	H
907.4023438	n/a	232295	responseLargeT	correct	n/a	0.36328	no	n/a	n/a
908.4648438	n/a	232567	largeTSmallT	correct	congruent	0.46484	no	T	T
908.9296875	n/a	232686	responseLargeT	correct	n/a	0.46484	no	n/a	n/a
909.9960938	n/a	232959	largeTSmallH	correct	incongruent	0.46875	no	T	H
910.4648438	n/a	233079	responseLargeT	correct	n/a	0.46875	no	n/a	n/a
911.5429688	n/a	233355	largeTSmallT	correct	congruent	0.48047	no	T	T
912.0234375	n/a	233478	responseLargeT	correct	n/a	0.48047	no	n/a	n/a
913.0898438	n/a	233751	largeHSmallT	correct	incongruent	0.49219	no	H	T
913.5820312	n/a	233877	responseLargeH	correct	n/a	0.49219	no	n/a	n/a
914.6523438	n/a	234151	largeTSmallH	correct	incongruent	0.36328	no	T	H
915.015625	n/a	234244	responseLargeT	correct	n/a	0.36328	no	n/a	n/a
916.078125	n/a	234516	largeHSmallT	correct	incongruent	0.34375	no	H	T
916.421875	n/a	234604	responseLargeH	correct	n/a	0.34375	no	n/a	n/a
917.4921875	n/a	234878	largeHSmallT	correct	incongruent	0.49219	no	H	T
917.984375	n/a	235004	responseLargeH	correct	n/a	0.49219	no	n/a	n/a
919.0625	n/a	235280	largeHSmallT	error	incongruent	0.36719	no	H	T
919.4296875	n/a	235374	responseLargeT	error	n/a	0.36719	no	n/a	n/a
920.4921875	n/a	235646	largeHSmallT	correct	incongruent	0.33203	no	H	T
920.8242188	n/a	235731	responseLargeH	correct	n/a	0.33203	no	n/a	n/a
921.9023438	n/a	236007	largeHSmallT	correct	incongruent	0.45703	no	H	T
922.359375	n/a	236124	responseLargeH	correct	n/a	0.45703	no	n/a	n/a
923.4257812	n/a	236397	largeTSmallT	correct	congruent	0.41016	no	T	T
923.8359375	n/a	236502	responseLargeT	correct	n/a	0.41016	no	n/a	n/a
924.9179688	n/a	236779	largeHSmallT	correct	incongruent	0.35938	no	H	T
925.2773438	n/a	236871	responseLargeH	correct	n/a	0.35938	no	n/a	n/a
926.34375	n/a	237144	largeTSmallT	correct	congruent	0.35547	no	T	T
926.6992188	n/a	237235	responseLargeT	correct	n/a	0.35547	no	n/a	n/a
927.7695312	n/a	237509	largeHSmallH	correct	congruent	0.33594	no	H	H
928.1054688	n/a	237595	responseLargeH	correct	n/a	0.33594	no	n/a	n/a
929.171875	n/a	237868	largeTSmallH	correct	incongruent	0.41797	no	T	H
929.5898438	n/a	237975	responseLargeT	correct	n/a	0.41797	no	n/a	n/a
930.6523438	n/a	238247	largeHSmallT	correct	incongruent	0.33594	no	H	T
930.9882812	n/a	238333	responseLargeH	correct	n/a	0.33594	no	n/a	n/a
932.0507812	n/a	238605	largeTSmallH	error	incongruent	0.49609	no	T	H
932.546875	n/a	238732	responseLargeH	error	n/a	0.49609	no	n/a	n/a
933.609375	n/a	239004	largeTSmallT	correct	congruent	0.46875	no	T	T
934.078125	n/a	239124	responseLargeT	correct	n/a	0.46875	no	n/a	n/a
935.1445312	n/a	239397	largeHSmallH	correct	congruent	0.36719	no	H	H
935.5117188	n/a	239491	responseLargeH	correct	n/a	0.36719	no	n/a	n/a
936.5820312	n/a	239765	largeHSmallH	correct	congruent	0.46484	no	H	H
937.046875	n/a	239884	responseLargeH	correct	n/a	0.46484	no	n/a	n/a
938.1289062	n/a	240161	largeHSmallH	correct	congruent	0.46875	no	H	H
938.5976562	n/a	240281	responseLargeH	correct	n/a	0.46875	no	n/a	n/a
939.6757812	n/a	240557	largeTSmallT	correct	congruent	0.39453	no	T	T
940.0703125	n/a	240658	responseLargeT	correct	n/a	0.39453	no	n/a	n/a
941.1289062	n/a	240929	largeTSmallT	correct	congruent	0.46875	no	T	T
941.5976562	n/a	241049	responseLargeT	correct	n/a	0.46875	no	n/a	n/a
942.6640625	n/a	241322	largeTSmallT	correct	congruent	0.5625	no	T	T
943.2265625	n/a	241466	responseLargeT	correct	n/a	0.5625	no	n/a	n/a
944.3046875	n/a	241742	largeTSmallT	correct	congruent	0.46094	no	T	T
944.765625	n/a	241860	responseLargeT	correct	n/a	0.46094	no	n/a	n/a
945.8359375	n/a	242134	largeTSmallT	correct	congruent	0.48438	no	T	T
946.3203125	n/a	242258	responseLargeT	correct	n/a	0.48438	no	n/a	n/a
947.3984375	n/a	242534	largeTSmallH	correct	incongruent	0.44922	no	T	H
947.8476562	n/a	242649	responseLargeT	correct	n/a	0.44922	no	n/a	n/a
948.9179688	n/a	242923	largeHSmallH	correct	congruent	0.33594	no	H	H
949.2539062	n/a	243009	responseLargeH	correct	n/a	0.33594	no	n/a	n/a
950.328125	n/a	243284	largeHSmallH	correct	congruent	0.46875	no	H	H
950.796875	n/a	243404	responseLargeH	correct	n/a	0.46875	no	n/a	n/a
951.8632812	n/a	243677	largeHSmallH	correct	congruent	0.47656	no	H	H
952.3398438	n/a	243799	responseLargeH	correct	n/a	0.47656	no	n/a	n/a
953.4101562	n/a	244073	largeHSmallH	correct	congruent	0.42188	no	H	H
953.8320312	n/a	244181	responseLargeH	correct	n/a	0.42188	no	n/a	n/a
954.9179688	n/a	244459	largeTSmallH	correct	incongruent	0.36719	no	T	H
955.2851562	n/a	244553	responseLargeT	correct	n/a	0.36719	no	n/a	n/a
956.3554688	n/a	244827	largeTSmallH	correct	incongruent	0.39844	no	T	H
956.7539062	n/a	244929	responseLargeT	correct	n/a	0.39844	no	n/a	n/a
957.8242188	n/a	245203	largeHSmallT	correct	incongruent	0.36719	no	H	T
958.1914062	n/a	245297	responseLargeH	correct	n/a	0.36719	no	n/a	n/a
959.2617188	n/a	245571	largeTSmallT	correct	congruent	0.38281	no	T	T
959.6445312	n/a	245669	responseLargeT	correct	n/a	0.38281	no	n/a	n/a
960.7148438	n/a	245943	largeTSmallT	correct	congruent	0.42969	no	T	T
961.1445312	n/a	246053	responseLargeT	correct	n/a	0.42969	no	n/a	n/a
962.2109375	n/a	246326	largeTSmallT	correct	congruent	0.39844	no	T	T
962.609375	n/a	246428	responseLargeT	correct	n/a	0.39844	no	n/a	n/a
963.6757812	n/a	246701	largeTSmallH	correct	incongruent	0.44531	no	T	H
964.1210938	n/a	246815	responseLargeT	correct	n/a	0.44531	no	n/a	n/a
965.1953125	n/a	247090	largeHSmallH	correct	congruent	0.33203	no	H	H
965.5273438	n/a	247175	responseLargeH	correct	n/a	0.33203	no	n/a	n/a
966.5976562	n/a	247449	largeHSmallH	correct	congruent	0.54688	no	H	H
967.1445312	n/a	247589	responseLargeH	correct	n/a	0.54688	no	n/a	n/a
968.2226562	n/a	247865	largeTSmallH	correct	incongruent	0.33984	no	T	H
968.5625	n/a	247952	responseLargeT	correct	n/a	0.33984	no	n/a	n/a
969.6367188	n/a	248227	largeHSmallH	correct	congruent	0.39062	no	H	H
970.0273438	n/a	248327	responseLargeH	correct	n/a	0.39062	no	n/a	n/a
971.1015625	n/a	248602	largeHSmallH	correct	congruent	0.45312	no	H	H
971.5546875	n/a	248718	responseLargeH	correct	n/a	0.45312	no	n/a	n/a
972.6367188	n/a	248995	largeTSmallH	correct	incongruent	0.39062	no	T	H
973.0273438	n/a	249095	responseLargeT	correct	n/a	0.39062	no	n/a	n/a
974.1015625	n/a	249370	largeTSmallT	correct	congruent	0.44922	no	T	T
974.5507812	n/a	249485	responseLargeT	correct	n/a	0.44922	no	n/a	n/a
975.6210938	n/a	249759	largeHSmallT	correct	incongruent	0.34375	no	H	T
975.9648438	n/a	249847	responseLargeH	correct	n/a	0.34375	no	n/a	n/a
977.0351562	n/a	250121	largeTSmallT	correct	congruent	0.46875	no	T	T
977.5039062	n/a	250241	responseLargeT	correct	n/a	0.46875	no	n/a	n/a
978.5820312	n/a	250517	largeHSmallT	correct	incongruent	0.36328	no	H	T
978.9453125	n/a	250610	responseLargeH	correct	n/a	0.36328	no	n/a	n/a
980.0078125	n/a	250882	largeTSmallT	correct	congruent	0.42188	no	T	T
980.4296875	n/a	250990	responseLargeT	correct	n/a	0.42188	no	n/a	n/a
981.4882812	n/a	251261	largeHSmallH	correct	congruent	0.32422	no	H	H
981.8125	n/a	251344	responseLargeH	correct	n/a	0.32422	no	n/a	n/a
982.890625	n/a	251620	largeHSmallH	error	congruent	0.375	no	H	H
983.265625	n/a	251716	responseLargeT	error	n/a	0.375	no	n/a	n/a
984.328125	n/a	251988	largeHSmallT	correct	incongruent	0.41797	no	H	T
984.7460938	n/a	252095	responseLargeH	correct	n/a	0.41797	no	n/a	n/a
985.8085938	n/a	252367	largeTSmallH	correct	incongruent	0.46094	no	T	H
986.2695312	n/a	252485	responseLargeT	correct	n/a	0.46094	no	n/a	n/a
987.34375	n/a	252760	largeHSmallH	correct	congruent	0.35156	no	H	H
987.6953125	n/a	252850	responseLargeH	correct	n/a	0.35156	no	n/a	n/a
988.7695312	n/a	253125	largeTSmallH	correct	incongruent	0.32422	no	T	H
989.09375	n/a	253208	responseLargeT	correct	n/a	0.32422	no	n/a	n/a
990.1679688	n/a	253483	largeHSmallT	correct	incongruent	0.34375	no	H	T
990.5117188	n/a	253571	responseLargeH	correct	n/a	0.34375	no	n/a	n/a
1016.660156	n/a	260265	largeHSmallH	correct	congruent	0.74609	no	H	H
1017.40625	n/a	260456	responseSmallH	correct	n/a	0.74609	no	n/a	n/a
1018.472656	n/a	260729	largeHSmallH	correct	congruent	0.60938	no	H	H
1019.082031	n/a	260885	responseSmallH	correct	n/a	0.60938	no	n/a	n/a
1020.15625	n/a	261160	largeHSmallT	correct	incongruent	0.40625	no	H	T
1020.5625	n/a	261264	responseSmallT	correct	n/a	0.40625	no	n/a	n/a
1021.636719	n/a	261539	largeTSmallH	correct	incongruent	0.47656	no	T	H
1022.113281	n/a	261661	responseSmallH	correct	n/a	0.47656	no	n/a	n/a
1023.179688	n/a	261934	largeHSmallT	correct	incongruent	0.38672	no	H	T
1023.566406	n/a	262033	responseSmallT	correct	n/a	0.38672	no	n/a	n/a
1024.648438	n/a	262310	largeTSmallH	correct	incongruent	0.37109	no	T	H
1025.019531	n/a	262405	responseSmallH	correct	n/a	0.37109	no	n/a	n/a
1026.089844	n/a	262679	largeHSmallT	correct	incongruent	0.33984	no	H	T
1026.429688	n/a	262766	responseSmallT	correct	n/a	0.33984	no	n/a	n/a
1027.5	n/a	263040	largeTSmallT	error	congruent	0.32422	no	T	T
1027.824219	n/a	263123	responseSmallH	error	n/a	0.32422	no	n/a	n/a
1028.902344	n/a	263399	largeTSmallT	error	congruent	0.34375	no	T	T
1029.246094	n/a	263487	responseSmallH	error	n/a	0.34375	no	n/a	n/a
1030.328125	n/a	263764	largeTSmallH	correct	incongruent	0.34766	no	T	H
1030.675781	n/a	263853	responseSmallH	correct	n/a	0.34766	no	n/a	n/a
1031.742188	n/a	264126	largeHSmallH	correct	congruent	0.41016	no	H	H
1032.152344	n/a	264231	responseSmallH	correct	n/a	0.41016	no	n/a	n/a
1033.222656	n/a	264505	largeHSmallH	correct	congruent	0.46094	no	H	H
1033.683594	n/a	264623	responseSmallH	correct	n/a	0.46094	no	n/a	n/a
1034.753906	n/a	264897	largeHSmallT	correct	incongruent	0.32812	no	H	T
1035.082031	n/a	264981	responseSmallT	correct	n/a	0.32812	no	n/a	n/a
1036.15625	n/a	265256	largeTSmallT	correct	congruent	0.51562	no	T	T
1036.671875	n/a	265388	responseSmallT	correct	n/a	0.51562	no	n/a	n/a
1037.753906	n/a	265665	largeTSmallH	correct	incongruent	0.37109	no	T	H
1038.125	n/a	265760	responseSmallH	correct	n/a	0.37109	no	n/a	n/a
1039.195312	n/a	266034	largeHSmallH	correct	congruent	0.46484	no	H	H
1039.660156	n/a	266153	responseSmallH	correct	n/a	0.46484	no	n/a	n/a
1040.726562	n/a	266426	largeHSmallT	correct	incongruent	0.34766	no	H	T
1041.074219	n/a	266515	responseSmallT	correct	n/a	0.34766	no	n/a	n/a
1042.140625	n/a	266788	largeHSmallT	correct	incongruent	0.44531	no	H	T
1042.585938	n/a	266902	responseSmallT	correct	n/a	0.44531	no	n/a	n/a
1043.660156	n/a	267177	largeTSmallH	correct	incongruent	0.33984	no	T	H
1044	n/a	267264	responseSmallH	correct	n/a	0.33984	no	n/a	n/a
1045.0625	n/a	267536	largeHSmallH	correct	congruent	0.42578	no	H	H
1045.488281	n/a	267645	responseSmallH	correct	n/a	0.42578	no	n/a	n/a
1046.566406	n/a	267921	largeTSmallT	correct	congruent	0.375	no	T	T
1046.941406	n/a	268017	responseSmallT	correct	n/a	0.375	no	n/a	n/a
1048.007812	n/a	268290	largeTSmallH	correct	incongruent	0.44531	no	T	H
1048.453125	n/a	268404	responseSmallH	correct	n/a	0.44531	no	n/a	n/a
1049.527344	n/a	268679	largeHSmallH	correct	congruent	0.45312	no	H	H
1049.980469	n/a	268795	responseSmallH	correct	n/a	0.45312	no	n/a	n/a
1051.046875	n/a	269068	largeHSmallT	correct	incongruent	0.42188	no	H	T
1051.46875	n/a	269176	responseSmallT	correct	n/a	0.42188	no	n/a	n/a
1052.539062	n/a	269450	largeTSmallT	correct	congruent	0.40234	no	T	T
1052.941406	n/a	269553	responseSmallT	correct	n/a	0.40234	no	n/a	n/a
1054.019531	n/a	269829	largeHSmallH	correct	congruent	0.34766	no	H	H
1054.367188	n/a	269918	responseSmallH	correct	n/a	0.34766	no	n/a	n/a
1055.433594	n/a	270191	largeHSmallH	correct	congruent	0.46094	no	H	H
1055.894531	n/a	270309	responseSmallH	correct	n/a	0.46094	no	n/a	n/a
1056.96875	n/a	270584	largeTSmallH	correct	incongruent	0.49219	no	T	H
1057.460938	n/a	270710	responseSmallH	correct	n/a	0.49219	no	n/a	n/a
1058.527344	n/a	270983	largeHSmallH	correct	congruent	0.42188	no	H	H
1058.949219	n/a	271091	responseSmallH	correct	n/a	0.42188	no	n/a	n/a
1060.019531	n/a	271365	largeTSmallT	correct	congruent	0.42188	no	T	T
1060.441406	n/a	271473	responseSmallT	correct	n/a	0.42188	no	n/a	n/a
1061.515625	n/a	271748	largeTSmallT	correct	congruent	0.51172	no	T	T
1062.027344	n/a	271879	responseSmallT	correct	n/a	0.51172	no	n/a	n/a
1063.101562	n/a	272154	largeTSmallT	error	congruent	0.37891	no	T	T
1063.480469	n/a	272251	responseSmallH	error	n/a	0.37891	no	n/a	n/a
1064.554688	n/a	272526	largeHSmallH	correct	congruent	0.49609	no	H	H
1065.050781	n/a	272653	responseSmallH	correct	n/a	0.49609	no	n/a	n/a
1066.125	n/a	272928	largeTSmallT	correct	congruent	0.32422	no	T	T
1066.449219	n/a	273011	responseSmallT	correct	n/a	0.32422	no	n/a	n/a
1067.511719	n/a	273283	largeHSmallT	correct	incongruent	0.38281	no	H	T
1067.894531	n/a	273381	responseSmallT	correct	n/a	0.38281	no	n/a	n/a
1068.96875	n/a	273656	largeTSmallT	correct	congruent	0.44141	no	T	T
1069.410156	n/a	273769	responseSmallT	correct	n/a	0.44141	no	n/a	n/a
1070.472656	n/a	274041	largeHSmallT	correct	incongruent	0.375	no	H	T
1070.847656	n/a	274137	responseSmallT	correct	n/a	0.375	no	n/a	n/a
1071.925781	n/a	274413	largeTSmallT	correct	congruent	0.42969	no	T	T
1072.355469	n/a	274523	responseSmallT	correct	n/a	0.42969	no	n/a	n/a
1073.433594	n/a	274799	largeHSmallT	error	incongruent	0.35156	no	H	T
1073.785156	n/a	274889	responseSmallH	error	n/a	0.35156	no	n/a	n/a
1074.859375	n/a	275164	largeHSmallH	correct	congruent	0.37109	no	H	H
1075.230469	n/a	275259	responseSmallH	correct	n/a	0.37109	no	n/a	n/a
1076.300781	n/a	275533	largeHSmallT	correct	incongruent	0.48828	no	H	T
1076.789062	n/a	275658	responseSmallT	correct	n/a	0.48828	no	n/a	n/a
1077.859375	n/a	275932	largeTSmallT	correct	congruent	0.4375	no	T	T
1078.296875	n/a	276044	responseSmallT	correct	n/a	0.4375	no	n/a	n/a
1079.367188	n/a	276318	largeHSmallT	correct	incongruent	0.48438	no	H	T
1079.851562	n/a	276442	responseSmallT	correct	n/a	0.48438	no	n/a	n/a
1080.925781	n/a	276717	largeHSmallH	correct	congruent	0.375	no	H	H
1081.300781	n/a	276813	responseSmallH	correct	n/a	0.375	no	n/a	n/a
1082.367188	n/a	277086	largeTSmallT	correct	congruent	0.44531	no	T	T
1082.8125	n/a	277200	responseSmallT	correct	n/a	0.44531	no	n/a	n/a
1083.898438	n/a	277478	largeHSmallH	error	congruent	0.39062	no	H	H
1084.289062	n/a	277578	responseSmallT	error	n/a	0.39062	no	n/a	n/a
1085.351562	n/a	277850	largeTSmallH	correct	incongruent	0.58984	no	T	H
1085.941406	n/a	278001	responseSmallH	correct	n/a	0.58984	no	n/a	n/a
1087.007812	n/a	278274	largeTSmallT	correct	congruent	0.40625	no	T	T
1087.414062	n/a	278378	responseSmallT	correct	n/a	0.40625	no	n/a	n/a
1088.472656	n/a	278649	largeHSmallH	correct	congruent	0.44531	no	H	H
1088.917969	n/a	278763	responseSmallH	correct	n/a	0.44531	no	n/a	n/a
1089.992188	n/a	279038	largeTSmallH	correct	incongruent	0.47266	no	T	H
1090.464844	n/a	279159	responseSmallH	correct	n/a	0.47266	no	n/a	n/a
1091.539062	n/a	279434	largeTSmallT	correct	congruent	0.42188	no	T	T
1091.960938	n/a	279542	responseSmallT	correct	n/a	0.42188	no	n/a	n/a
1093.03125	n/a	279816	largeTSmallH	correct	incongruent	0.43359	no	T	H
1093.464844	n/a	279927	responseSmallH	correct	n/a	0.43359	no	n/a	n/a
1094.527344	n/a	280199	largeTSmallT	correct	congruent	0.39453	no	T	T
1094.921875	n/a	280300	responseSmallT	correct	n/a	0.39453	no	n/a	n/a
1096.007812	n/a	280578	largeTSmallH	correct	incongruent	0.39062	no	T	H
1096.398438	n/a	280678	responseSmallH	correct	n/a	0.39062	no	n/a	n/a
1097.460938	n/a	280950	largeTSmallH	correct	incongruent	0.44141	no	T	H
1097.902344	n/a	281063	responseSmallH	correct	n/a	0.44141	no	n/a	n/a
1098.980469	n/a	281339	largeHSmallT	correct	incongruent	0.46875	no	H	T
1099.449219	n/a	281459	responseSmallT	correct	n/a	0.46875	no	n/a	n/a
1100.527344	n/a	281735	largeHSmallH	correct	congruent	0.52344	no	H	H
1101.050781	n/a	281869	responseSmallH	correct	n/a	0.52344	no	n/a	n/a
1102.125	n/a	282144	largeHSmallH	correct	congruent	0.47266	no	H	H
1102.597656	n/a	282265	responseSmallH	correct	n/a	0.47266	no	n/a	n/a
1103.671875	n/a	282540	largeTSmallT	correct	congruent	0.50391	no	T	T
1104.175781	n/a	282669	responseSmallT	correct	n/a	0.50391	no	n/a	n/a
1105.246094	n/a	282943	largeHSmallH	correct	congruent	0.42969	no	H	H
1105.675781	n/a	283053	responseSmallH	correct	n/a	0.42969	no	n/a	n/a
1106.738281	n/a	283325	largeTSmallT	correct	congruent	0.44531	no	T	T
1107.183594	n/a	283439	responseSmallT	correct	n/a	0.44531	no	n/a	n/a
1108.257812	n/a	283714	largeTSmallT	correct	congruent	0.43359	no	T	T
1108.691406	n/a	283825	responseSmallT	correct	n/a	0.43359	no	n/a	n/a
1109.753906	n/a	284097	largeHSmallH	correct	congruent	0.44531	no	H	H
1110.199219	n/a	284211	responseSmallH	correct	n/a	0.44531	no	n/a	n/a
1111.273438	n/a	284486	largeTSmallH	error	incongruent	0.40625	no	T	H
1111.679688	n/a	284590	responseSmallT	error	n/a	0.40625	no	n/a	n/a
1112.753906	n/a	284865	largeTSmallH	correct	incongruent	0.40625	no	T	H
1113.160156	n/a	284969	responseSmallH	correct	n/a	0.40625	no	n/a	n/a
1114.230469	n/a	285243	largeTSmallH	correct	incongruent	0.42578	no	T	H
1114.65625	n/a	285352	responseSmallH	correct	n/a	0.42578	no	n/a	n/a
1115.738281	n/a	285629	largeHSmallH	correct	congruent	0.46094	no	H	H
1116.199219	n/a	285747	responseSmallH	correct	n/a	0.46094	no	n/a	n/a
1117.273438	n/a	286022	largeHSmallT	correct	incongruent	0.42578	no	H	T
1117.699219	n/a	286131	responseSmallT	correct	n/a	0.42578	no	n/a	n/a
1118.777344	n/a	286407	largeHSmallH	correct	congruent	0.38281	no	H	H
1119.160156	n/a	286505	responseSmallH	correct	n/a	0.38281	no	n/a	n/a
1120.21875	n/a	286776	largeHSmallT	correct	incongruent	0.34766	no	H	T
1120.566406	n/a	286865	responseSmallT	correct	n/a	0.34766	no	n/a	n/a
1121.644531	n/a	287141	largeHSmallT	correct	incongruent	0.45703	no	H	T
1122.101562	n/a	287258	responseSmallT	correct	n/a	0.45703	no	n/a	n/a
1123.179688	n/a	287534	largeHSmallH	correct	congruent	0.36719	no	H	H
1123.546875	n/a	287628	responseSmallH	correct	n/a	0.36719	no	n/a	n/a
1124.617188	n/a	287902	largeTSmallH	correct	incongruent	0.4375	no	T	H
1125.054688	n/a	288014	responseSmallH	correct	n/a	0.4375	no	n/a	n/a
1126.125	n/a	288288	largeHSmallH	correct	congruent	0.48828	no	H	H
1126.613281	n/a	288413	responseSmallH	correct	n/a	0.48828	no	n/a	n/a
1127.683594	n/a	288687	largeTSmallH	correct	incongruent	0.44141	no	T	H
1128.125	n/a	288800	responseSmallH	correct	n/a	0.44141	no	n/a	n/a
1129.191406	n/a	289073	largeTSmallT	correct	congruent	0.41406	no	T	T
1129.605469	n/a	289179	responseSmallT	correct	n/a	0.41406	no	n/a	n/a
1130.671875	n/a	289452	largeTSmallH	correct	incongruent	0.35938	no	T	H
1131.03125	n/a	289544	responseSmallH	correct	n/a	0.35938	no	n/a	n/a
1132.097656	n/a	289817	largeHSmallH	correct	congruent	0.39062	no	H	H
1132.488281	n/a	289917	responseSmallH	correct	n/a	0.39062	no	n/a	n/a
1133.566406	n/a	290193	largeTSmallH	correct	incongruent	0.42578	no	T	H
1133.992188	n/a	290302	responseSmallH	correct	n/a	0.42578	no	n/a	n/a
1135.058594	n/a	290575	largeTSmallH	correct	incongruent	0.39844	no	T	H
1135.457031	n/a	290677	responseSmallH	correct	n/a	0.39844	no	n/a	n/a
1136.523438	n/a	290950	largeTSmallT	error	congruent	0.40234	no	T	T
1136.925781	n/a	291053	responseSmallH	error	n/a	0.40234	no	n/a	n/a
1138.003906	n/a	291329	largeHSmallH	correct	congruent	0.38672	no	H	H
1138.390625	n/a	291428	responseSmallH	correct	n/a	0.38672	no	n/a	n/a
1139.457031	n/a	291701	largeTSmallH	correct	incongruent	0.41797	no	T	H
1139.875	n/a	291808	responseSmallH	correct	n/a	0.41797	no	n/a	n/a
1140.9375	n/a	292080	largeHSmallT	correct	incongruent	0.38672	no	H	T
1141.324219	n/a	292179	responseSmallT	correct	n/a	0.38672	no	n/a	n/a
1142.390625	n/a	292452	largeTSmallT	correct	congruent	0.44531	no	T	T
1142.835938	n/a	292566	responseSmallT	correct	n/a	0.44531	no	n/a	n/a
1143.910156	n/a	292841	largeHSmallT	correct	incongruent	0.48438	no	H	T
1144.394531	n/a	292965	responseSmallT	correct	n/a	0.48438	no	n/a	n/a
1145.472656	n/a	293241	largeTSmallT	correct	congruent	0.41016	no	T	T
1145.882812	n/a	293346	responseSmallT	correct	n/a	0.41016	no	n/a	n/a
1146.953125	n/a	293620	largeTSmallH	correct	incongruent	0.33594	no	T	H
1147.289062	n/a	293706	responseSmallH	correct	n/a	0.33594	no	n/a	n/a
1148.351562	n/a	293978	largeHSmallH	correct	congruent	0.44141	no	H	H
1148.792969	n/a	294091	responseSmallH	correct	n/a	0.44141	no	n/a	n/a
1149.871094	n/a	294367	largeTSmallH	correct	incongruent	0.4375	no	T	H
1150.308594	n/a	294479	responseSmallH	correct	n/a	0.4375	no	n/a	n/a
1151.378906	n/a	294753	largeHSmallH	correct	congruent	0.41797	no	H	H
1151.796875	n/a	294860	responseSmallH	correct	n/a	0.41797	no	n/a	n/a
1152.859375	n/a	295132	largeTSmallT	correct	congruent	0.34375	no	T	T
1153.203125	n/a	295220	responseSmallT	correct	n/a	0.34375	no	n/a	n/a
1154.285156	n/a	295497	largeTSmallH	correct	incongruent	0.38281	no	T	H
1154.667969	n/a	295595	responseSmallH	correct	n/a	0.38281	no	n/a	n/a
1155.75	n/a	295872	largeHSmallT	correct	incongruent	0.42578	no	H	T
1156.175781	n/a	295981	responseSmallT	correct	n/a	0.42578	no	n/a	n/a
1157.246094	n/a	296255	largeHSmallH	correct	congruent	0.33203	no	H	H
1157.578125	n/a	296340	responseSmallH	correct	n/a	0.33203	no	n/a	n/a
1158.644531	n/a	296613	largeTSmallH	error	incongruent	0.34766	no	T	H
1158.992188	n/a	296702	responseSmallT	error	n/a	0.34766	no	n/a	n/a
1160.070312	n/a	296978	largeHSmallT	correct	incongruent	0.35938	no	H	T
1160.429688	n/a	297070	responseSmallT	correct	n/a	0.35938	no	n/a	n/a
1161.496094	n/a	297343	largeHSmallH	correct	congruent	0.36328	no	H	H
1161.859375	n/a	297436	responseSmallH	correct	n/a	0.36328	no	n/a	n/a
1162.925781	n/a	297709	largeHSmallH	error	congruent	0.41797	no	H	H
1163.34375	n/a	297816	responseSmallT	error	n/a	0.41797	no	n/a	n/a
1164.417969	n/a	298091	largeHSmallT	error	incongruent	0.35938	no	H	T
1164.777344	n/a	298183	responseSmallH	error	n/a	0.35938	no	n/a	n/a
1165.84375	n/a	298456	largeHSmallT	correct	incongruent	0.47266	no	H	T
1166.316406	n/a	298577	responseSmallT	correct	n/a	0.47266	no	n/a	n/a
1167.378906	n/a	298849	largeHSmallT	correct	incongruent	0.47266	no	H	T
1167.851562	n/a	298970	responseSmallT	correct	n/a	0.47266	no	n/a	n/a
1168.925781	n/a	299245	largeHSmallH	correct	congruent	0.35156	no	H	H
1169.277344	n/a	299335	responseSmallH	correct	n/a	0.35156	no	n/a	n/a
1170.351562	n/a	299610	largeHSmallH	correct	congruent	0.44141	no	H	H
1170.792969	n/a	299723	responseSmallH	correct	n/a	0.44141	no	n/a	n/a
1171.855469	n/a	299995	largeHSmallH	correct	congruent	0.43359	no	H	H
1172.289062	n/a	300106	responseSmallH	correct	n/a	0.43359	no	n/a	n/a
1173.363281	n/a	300381	largeTSmallH	correct	incongruent	0.41406	no	T	H
1173.777344	n/a	300487	responseSmallH	correct	n/a	0.41406	no	n/a	n/a
1174.84375	n/a	300760	largeHSmallT	correct	incongruent	0.37109	no	H	T
1175.214844	n/a	300855	responseSmallT	correct	n/a	0.37109	no	n/a	n/a
1176.296875	n/a	301132	largeTSmallH	correct	incongruent	0.44531	no	T	H
1176.742188	n/a	301246	responseSmallH	correct	n/a	0.44531	no	n/a	n/a
1177.816406	n/a	301521	largeTSmallH	correct	incongruent	0.45703	no	T	H
1178.273438	n/a	301638	responseSmallH	correct	n/a	0.45703	no	n/a	n/a
1179.351562	n/a	301914	largeTSmallH	correct	incongruent	0.44141	no	T	H
1179.792969	n/a	302027	responseSmallH	correct	n/a	0.44141	no	n/a	n/a
1180.855469	n/a	302299	largeTSmallH	correct	incongruent	0.37891	no	T	H
1181.234375	n/a	302396	responseSmallH	correct	n/a	0.37891	no	n/a	n/a
1182.296875	n/a	302668	largeTSmallH	correct	incongruent	0.46094	no	T	H
1182.757812	n/a	302786	responseSmallH	correct	n/a	0.46094	no	n/a	n/a
1183.832031	n/a	303061	largeHSmallH	correct	congruent	0.4375	no	H	H
1184.269531	n/a	303173	responseSmallH	correct	n/a	0.4375	no	n/a	n/a
1185.335938	n/a	303446	largeHSmallH	correct	congruent	0.41406	no	H	H
1185.75	n/a	303552	responseSmallH	correct	n/a	0.41406	no	n/a	n/a
1186.816406	n/a	303825	largeTSmallH	correct	incongruent	0.42578	no	T	H
1187.242188	n/a	303934	responseSmallH	correct	n/a	0.42578	no	n/a	n/a
1188.324219	n/a	304211	largeHSmallH	correct	congruent	0.40625	no	H	H
1188.730469	n/a	304315	responseSmallH	correct	n/a	0.40625	no	n/a	n/a
1189.804688	n/a	304590	largeHSmallH	correct	congruent	0.40234	no	H	H
1190.207031	n/a	304693	responseSmallH	correct	n/a	0.40234	no	n/a	n/a
1191.285156	n/a	304969	largeHSmallT	correct	incongruent	0.41406	no	H	T
1191.699219	n/a	305075	responseSmallT	correct	n/a	0.41406	no	n/a	n/a
1192.761719	n/a	305347	largeTSmallT	correct	congruent	0.39062	no	T	T
1193.152344	n/a	305447	responseSmallT	correct	n/a	0.39062	no	n/a	n/a
1194.21875	n/a	305720	largeHSmallT	correct	incongruent	0.4375	no	H	T
1194.65625	n/a	305832	responseSmallT	correct	n/a	0.4375	no	n/a	n/a
1195.722656	n/a	306105	largeTSmallT	correct	congruent	0.37891	no	T	T
1196.101562	n/a	306202	responseSmallT	correct	n/a	0.37891	no	n/a	n/a
1197.164062	n/a	306474	largeTSmallT	correct	congruent	0.38281	no	T	T
1197.546875	n/a	306572	responseSmallT	correct	n/a	0.38281	no	n/a	n/a
1198.617188	n/a	306846	largeTSmallT	correct	congruent	0.40625	no	T	T
1199.023438	n/a	306950	responseSmallT	correct	n/a	0.40625	no	n/a	n/a
1200.097656	n/a	307225	largeHSmallT	correct	incongruent	0.44141	no	H	T
1200.539062	n/a	307338	responseSmallT	correct	n/a	0.44141	no	n/a	n/a
1201.617188	n/a	307614	largeHSmallT	correct	incongruent	0.39844	no	H	T
1202.015625	n/a	307716	responseSmallT	correct	n/a	0.39844	no	n/a	n/a
1203.097656	n/a	307993	largeHSmallT	correct	incongruent	0.39453	no	H	T
1203.492188	n/a	308094	responseSmallT	correct	n/a	0.39453	no	n/a	n/a
1204.5625	n/a	308368	largeTSmallH	correct	incongruent	0.50391	no	T	H
1205.066406	n/a	308497	responseSmallH	correct	n/a	0.50391	no	n/a	n/a
1206.136719	n/a	308771	largeTSmallH	correct	incongruent	0.39844	no	T	H
1206.535156	n/a	308873	responseSmallH	correct	n/a	0.39844	no	n/a	n/a
