onset	duration	sample	value	response_type	congruence	response_time	response_out_of_range	largeletter	smallletter
33.59375	n/a	8600	largeHSmallT	error	incongruent	2.4102	yes	H	T
36.00390625	n/a	9217	responseLargeT	error	n/a	2.4102	yes	n/a	n/a
37.07421875	n/a	9491	largeTSmallH	error	incongruent	1.5898	yes	T	H
38.6640625	n/a	9898	responseLargeH	error	n/a	1.5898	yes	n/a	n/a
39.73828125	n/a	10173	largeHSmallH	correct	congruent	1.8984	yes	H	H
41.63671875	n/a	10659	responseLargeH	correct	n/a	1.8984	yes	n/a	n/a
42.69921875	n/a	10931	largeTSmallH	correct	incongruent	1.3047	no	T	H
44.00390625	n/a	11265	responseLargeT	correct	n/a	1.3047	no	n/a	n/a
45.0703125	n/a	11538	largeTSmallH	correct	incongruent	1.2031	no	T	H
46.2734375	n/a	11846	responseLargeT	correct	n/a	1.2031	no	n/a	n/a
47.3515625	n/a	12122	largeTSmallH	correct	incongruent	0.97656	no	T	H
48.328125	n/a	12372	responseLargeT	correct	n/a	0.97656	no	n/a	n/a
49.390625	n/a	12644	largeHSmallH	correct	congruent	0.78125	no	H	H
50.171875	n/a	12844	responseLargeH	correct	n/a	0.78125	no	n/a	n/a
51.23046875	n/a	13115	largeHSmallH	correct	congruent	0.73047	no	H	H
51.9609375	n/a	13302	responseLargeH	correct	n/a	0.73047	no	n/a	n/a
53.03125	n/a	13576	largeTSmallH	correct	incongruent	0.99219	no	T	H
54.0234375	n/a	13830	responseLargeT	correct	n/a	0.99219	no	n/a	n/a
55.09765625	n/a	14105	largeTSmallT	correct	congruent	0.70703	no	T	T
55.8046875	n/a	14286	responseLargeT	correct	n/a	0.70703	no	n/a	n/a
56.88671875	n/a	14563	largeHSmallH	correct	congruent	0.64062	no	H	H
57.52734375	n/a	14727	responseLargeH	correct	n/a	0.64062	no	n/a	n/a
58.58984375	n/a	14999	largeHSmallH	correct	congruent	0.69531	no	H	H
59.28515625	n/a	15177	responseLargeH	correct	n/a	0.69531	no	n/a	n/a
60.36328125	n/a	15453	largeHSmallH	correct	congruent	0.62891	no	H	H
60.9921875	n/a	15614	responseLargeH	correct	n/a	0.62891	no	n/a	n/a
62.05859375	n/a	15887	largeTSmallT	correct	congruent	0.64453	no	T	T
62.703125	n/a	16052	responseLargeT	correct	n/a	0.64453	no	n/a	n/a
63.77734375	n/a	16327	largeTSmallH	correct	incongruent	1.0664	no	T	H
64.84375	n/a	16600	responseLargeT	correct	n/a	1.0664	no	n/a	n/a
65.91015625	n/a	16873	largeHSmallT	correct	incongruent	0.90625	no	H	T
66.81640625	n/a	17105	responseLargeH	correct	n/a	0.90625	no	n/a	n/a
67.88671875	n/a	17379	largeTSmallH	correct	incongruent	0.76172	no	T	H
68.6484375	n/a	17574	responseLargeT	correct	n/a	0.76172	no	n/a	n/a
69.7265625	n/a	17850	largeHSmallH	correct	congruent	0.62109	no	H	H
70.34765625	n/a	18009	responseLargeH	correct	n/a	0.62109	no	n/a	n/a
71.41796875	n/a	18283	largeTSmallT	correct	congruent	0.53906	no	T	T
71.95703125	n/a	18421	responseLargeT	correct	n/a	0.53906	no	n/a	n/a
73.03125	n/a	18696	largeHSmallT	correct	incongruent	0.53906	no	H	T
73.5703125	n/a	18834	responseLargeH	correct	n/a	0.53906	no	n/a	n/a
74.6328125	n/a	19106	largeHSmallT	correct	incongruent	1.0391	no	H	T
75.671875	n/a	19372	responseLargeH	correct	n/a	1.0391	no	n/a	n/a
76.73828125	n/a	19645	largeHSmallT	correct	incongruent	1.0195	no	H	T
77.7578125	n/a	19906	responseLargeH	correct	n/a	1.0195	no	n/a	n/a
78.83203125	n/a	20181	largeHSmallH	correct	congruent	0.64062	no	H	H
79.47265625	n/a	20345	responseLargeH	correct	n/a	0.64062	no	n/a	n/a
80.55078125	n/a	20621	largeHSmallH	correct	congruent	0.51172	no	H	H
81.0625	n/a	20752	responseLargeH	correct	n/a	0.51172	no	n/a	n/a
82.13671875	n/a	21027	largeHSmallH	correct	congruent	0.57031	no	H	H
82.70703125	n/a	21173	responseLargeH	correct	n/a	0.57031	no	n/a	n/a
83.77734375	n/a	21447	largeTSmallH	correct	incongruent	0.73047	no	T	H
84.5078125	n/a	21634	responseLargeT	correct	n/a	0.73047	no	n/a	n/a
85.58984375	n/a	21911	largeTSmallH	correct	incongruent	0.74219	no	T	H
86.33203125	n/a	22101	responseLargeT	correct	n/a	0.74219	no	n/a	n/a
87.40625	n/a	22376	largeHSmallT	correct	incongruent	0.51953	no	H	T
87.92578125	n/a	22509	responseLargeH	correct	n/a	0.51953	no	n/a	n/a
89.00390625	n/a	22785	largeTSmallT	correct	congruent	0.58984	no	T	T
89.59375	n/a	22936	responseLargeT	correct	n/a	0.58984	no	n/a	n/a
90.671875	n/a	23212	largeTSmallH	correct	incongruent	0.66797	no	T	H
91.33984375	n/a	23383	responseLargeT	correct	n/a	0.66797	no	n/a	n/a
92.41796875	n/a	23659	largeHSmallH	correct	congruent	0.60547	no	H	H
93.0234375	n/a	23814	responseLargeH	correct	n/a	0.60547	no	n/a	n/a
94.09765625	n/a	24089	largeHSmallH	correct	congruent	0.51172	no	H	H
94.609375	n/a	24220	responseLargeH	correct	n/a	0.51172	no	n/a	n/a
95.68359375	n/a	24495	largeTSmallH	correct	incongruent	0.60156	no	T	H
96.28515625	n/a	24649	responseLargeT	correct	n/a	0.60156	no	n/a	n/a
97.36328125	n/a	24925	largeTSmallT	correct	congruent	0.53516	no	T	T
97.8984375	n/a	25062	responseLargeT	correct	n/a	0.53516	no	n/a	n/a
98.96484375	n/a	25335	largeHSmallH	correct	congruent	0.55078	no	H	H
99.515625	n/a	25476	responseLargeH	correct	n/a	0.55078	no	n/a	n/a
100.5898438	n/a	25751	largeTSmallT	correct	congruent	0.49609	no	T	T
101.0859375	n/a	25878	responseLargeT	correct	n/a	0.49609	no	n/a	n/a
102.1523438	n/a	26151	largeTSmallH	correct	incongruent	0.65625	no	T	H
102.8085938	n/a	26319	responseLargeT	correct	n/a	0.65625	no	n/a	n/a
103.8828125	n/a	26594	largeTSmallH	correct	incongruent	0.73047	no	T	H
104.6132812	n/a	26781	responseLargeT	correct	n/a	0.73047	no	n/a	n/a
105.6953125	n/a	27058	largeHSmallT	correct	incongruent	0.53906	no	H	T
106.234375	n/a	27196	responseLargeH	correct	n/a	0.53906	no	n/a	n/a
107.296875	n/a	27468	largeHSmallT	correct	incongruent	0.78516	no	H	T
108.0820312	n/a	27669	responseLargeH	correct	n/a	0.78516	no	n/a	n/a
109.1523438	n/a	27943	largeTSmallT	correct	congruent	0.5625	no	T	T
109.7148438	n/a	28087	responseLargeT	correct	n/a	0.5625	no	n/a	n/a
110.7773438	n/a	28359	largeHSmallT	correct	incongruent	0.55859	no	H	T
111.3359375	n/a	28502	responseLargeH	correct	n/a	0.55859	no	n/a	n/a
112.4023438	n/a	28775	largeHSmallT	correct	incongruent	0.57422	no	H	T
112.9765625	n/a	28922	responseLargeH	correct	n/a	0.57422	no	n/a	n/a
114.0429688	n/a	29195	largeTSmallH	correct	incongruent	0.62891	no	T	H
114.671875	n/a	29356	responseLargeT	correct	n/a	0.62891	no	n/a	n/a
115.7382812	n/a	29629	largeTSmallT	correct	congruent	0.66406	no	T	T
116.4023438	n/a	29799	responseLargeT	correct	n/a	0.66406	no	n/a	n/a
117.46875	n/a	30072	largeHSmallT	correct	incongruent	0.55078	no	H	T
118.0195312	n/a	30213	responseLargeH	correct	n/a	0.55078	no	n/a	n/a
119.0976562	n/a	30489	largeHSmallH	correct	congruent	0.53906	no	H	H
119.6367188	n/a	30627	responseLargeH	correct	n/a	0.53906	no	n/a	n/a
120.6953125	n/a	30898	largeHSmallT	correct	incongruent	0.50391	no	H	T
121.1992188	n/a	31027	responseLargeH	correct	n/a	0.50391	no	n/a	n/a
122.2695312	n/a	31301	largeHSmallT	correct	incongruent	0.5	no	H	T
122.7695312	n/a	31429	responseLargeH	correct	n/a	0.5	no	n/a	n/a
123.8320312	n/a	31701	largeHSmallT	correct	incongruent	0.46094	no	H	T
124.2929688	n/a	31819	responseLargeH	correct	n/a	0.46094	no	n/a	n/a
125.3632812	n/a	32093	largeTSmallT	correct	congruent	0.78125	no	T	T
126.1445312	n/a	32293	responseLargeT	correct	n/a	0.78125	no	n/a	n/a
127.2148438	n/a	32567	largeHSmallT	correct	incongruent	0.67578	no	H	T
127.890625	n/a	32740	responseLargeH	correct	n/a	0.67578	no	n/a	n/a
128.9648438	n/a	33015	largeTSmallT	correct	congruent	0.62891	no	T	T
129.59375	n/a	33176	responseLargeT	correct	n/a	0.62891	no	n/a	n/a
130.671875	n/a	33452	largeTSmallH	correct	incongruent	2.1289	yes	T	H
132.8007812	n/a	33997	responseLargeT	correct	n/a	2.1289	yes	n/a	n/a
133.8710938	n/a	34271	largeHSmallH	correct	congruent	1.4844	no	H	H
135.3554688	n/a	34651	responseLargeH	correct	n/a	1.4844	no	n/a	n/a
136.4296875	n/a	34926	largeHSmallH	correct	congruent	0.69531	no	H	H
137.125	n/a	35104	responseLargeH	correct	n/a	0.69531	no	n/a	n/a
138.203125	n/a	35380	largeHSmallT	correct	incongruent	0.92969	no	H	T
139.1328125	n/a	35618	responseLargeH	correct	n/a	0.92969	no	n/a	n/a
140.203125	n/a	35892	largeHSmallH	correct	congruent	0.72266	no	H	H
140.9257812	n/a	36077	responseLargeH	correct	n/a	0.72266	no	n/a	n/a
141.9882812	n/a	36349	largeHSmallT	correct	incongruent	0.85156	no	H	T
142.8398438	n/a	36567	responseLargeH	correct	n/a	0.85156	no	n/a	n/a
143.9101562	n/a	36841	largeTSmallH	correct	incongruent	0.90625	no	T	H
144.8164062	n/a	37073	responseLargeT	correct	n/a	0.90625	no	n/a	n/a
145.8828125	n/a	37346	largeHSmallT	correct	incongruent	0.93359	no	H	T
146.8164062	n/a	37585	responseLargeH	correct	n/a	0.93359	no	n/a	n/a
147.8945312	n/a	37861	largeHSmallT	correct	incongruent	0.65234	no	H	T
148.546875	n/a	38028	responseLargeH	correct	n/a	0.65234	no	n/a	n/a
149.6289062	n/a	38305	largeHSmallT	correct	incongruent	0.53906	no	H	T
150.1679688	n/a	38443	responseLargeH	correct	n/a	0.53906	no	n/a	n/a
151.2421875	n/a	38718	largeHSmallH	correct	congruent	0.88281	no	H	H
152.125	n/a	38944	responseLargeH	correct	n/a	0.88281	no	n/a	n/a
153.203125	n/a	39220	largeTSmallH	correct	incongruent	0.63281	no	T	H
153.8359375	n/a	39382	responseLargeT	correct	n/a	0.63281	no	n/a	n/a
154.9101562	n/a	39657	largeTSmallH	correct	incongruent	0.86719	no	T	H
155.7773438	n/a	39879	responseLargeT	correct	n/a	0.86719	no	n/a	n/a
156.84375	n/a	40152	largeTSmallH	correct	incongruent	0.51562	no	T	H
157.359375	n/a	40284	responseLargeT	correct	n/a	0.51562	no	n/a	n/a
158.4140625	n/a	40554	largeTSmallT	correct	congruent	0.46484	no	T	T
158.8789062	n/a	40673	responseLargeT	correct	n/a	0.46484	no	n/a	n/a
159.9492188	n/a	40947	largeTSmallT	correct	congruent	0.47266	no	T	T
160.421875	n/a	41068	responseLargeT	correct	n/a	0.47266	no	n/a	n/a
161.4960938	n/a	41343	largeHSmallH	correct	congruent	0.55078	no	H	H
162.046875	n/a	41484	responseLargeH	correct	n/a	0.55078	no	n/a	n/a
163.1210938	n/a	41759	largeHSmallT	error	incongruent	0.94922	no	H	T
164.0703125	n/a	42002	responseLargeT	error	n/a	0.94922	no	n/a	n/a
165.1484375	n/a	42278	largeHSmallH	correct	congruent	0.71484	no	H	H
165.8632812	n/a	42461	responseLargeH	correct	n/a	0.71484	no	n/a	n/a
166.9375	n/a	42736	largeHSmallT	correct	incongruent	0.85156	no	H	T
167.7890625	n/a	42954	responseLargeH	correct	n/a	0.85156	no	n/a	n/a
168.8554688	n/a	43227	largeHSmallH	correct	congruent	0.61719	no	H	H
169.4726562	n/a	43385	responseLargeH	correct	n/a	0.61719	no	n/a	n/a
170.5351562	n/a	43657	largeTSmallT	correct	congruent	0.65234	no	T	T
171.1875	n/a	43824	responseLargeT	correct	n/a	0.65234	no	n/a	n/a
172.2539062	n/a	44097	largeHSmallT	correct	incongruent	0.71875	no	H	T
172.9726562	n/a	44281	responseLargeH	correct	n/a	0.71875	no	n/a	n/a
174.0429688	n/a	44555	largeTSmallH	correct	incongruent	0.58203	no	T	H
174.625	n/a	44704	responseLargeT	correct	n/a	0.58203	no	n/a	n/a
175.6953125	n/a	44978	largeTSmallH	correct	incongruent	0.60938	no	T	H
176.3046875	n/a	45134	responseLargeT	correct	n/a	0.60938	no	n/a	n/a
177.375	n/a	45408	largeHSmallH	correct	congruent	0.64453	no	H	H
178.0195312	n/a	45573	responseLargeH	correct	n/a	0.64453	no	n/a	n/a
179.09375	n/a	45848	largeHSmallT	correct	incongruent	1.0312	no	H	T
180.125	n/a	46112	responseLargeH	correct	n/a	1.0312	no	n/a	n/a
181.203125	n/a	46388	largeHSmallH	correct	congruent	0.55078	no	H	H
181.7539062	n/a	46529	responseLargeH	correct	n/a	0.55078	no	n/a	n/a
182.828125	n/a	46804	largeHSmallT	correct	incongruent	0.52734	no	H	T
183.3554688	n/a	46939	responseLargeH	correct	n/a	0.52734	no	n/a	n/a
184.4296875	n/a	47214	largeHSmallH	correct	congruent	0.46484	no	H	H
184.8945312	n/a	47333	responseLargeH	correct	n/a	0.46484	no	n/a	n/a
185.9765625	n/a	47610	largeHSmallH	correct	congruent	0.54297	no	H	H
186.5195312	n/a	47749	responseLargeH	correct	n/a	0.54297	no	n/a	n/a
187.5898438	n/a	48023	largeHSmallH	correct	congruent	0.44141	no	H	H
188.03125	n/a	48136	responseLargeH	correct	n/a	0.44141	no	n/a	n/a
189.109375	n/a	48412	largeTSmallH	correct	incongruent	0.64062	no	T	H
189.75	n/a	48576	responseLargeT	correct	n/a	0.64062	no	n/a	n/a
190.828125	n/a	48852	largeHSmallT	correct	incongruent	0.55859	no	H	T
191.3867188	n/a	48995	responseLargeH	correct	n/a	0.55859	no	n/a	n/a
192.453125	n/a	49268	largeTSmallT	correct	congruent	0.45312	no	T	T
192.90625	n/a	49384	responseLargeT	correct	n/a	0.45312	no	n/a	n/a
193.9765625	n/a	49658	largeTSmallT	error	congruent	0.42578	no	T	T
194.4023438	n/a	49767	responseLargeH	error	n/a	0.42578	no	n/a	n/a
195.46875	n/a	50040	largeHSmallT	correct	incongruent	0.66406	no	H	T
196.1328125	n/a	50210	responseLargeH	correct	n/a	0.66406	no	n/a	n/a
197.203125	n/a	50484	largeHSmallH	correct	congruent	0.70312	no	H	H
197.90625	n/a	50664	responseLargeH	correct	n/a	0.70312	no	n/a	n/a
198.9765625	n/a	50938	largeTSmallT	correct	congruent	0.60156	no	T	T
199.578125	n/a	51092	responseLargeT	correct	n/a	0.60156	no	n/a	n/a
200.65625	n/a	51368	largeTSmallT	correct	congruent	0.57031	no	T	T
201.2265625	n/a	51514	responseLargeT	correct	n/a	0.57031	no	n/a	n/a
202.3085938	n/a	51791	largeHSmallH	correct	congruent	0.54297	no	H	H
202.8515625	n/a	51930	responseLargeH	correct	n/a	0.54297	no	n/a	n/a
203.921875	n/a	52204	largeHSmallH	correct	congruent	0.60547	no	H	H
204.5273438	n/a	52359	responseLargeH	correct	n/a	0.60547	no	n/a	n/a
205.6015625	n/a	52634	largeHSmallT	correct	incongruent	0.59766	no	H	T
206.1992188	n/a	52787	responseLargeH	correct	n/a	0.59766	no	n/a	n/a
207.2695312	n/a	53061	largeHSmallT	correct	incongruent	0.5	no	H	T
207.7695312	n/a	53189	responseLargeH	correct	n/a	0.5	no	n/a	n/a
208.8398438	n/a	53463	largeTSmallT	correct	congruent	0.58203	no	T	T
209.421875	n/a	53612	responseLargeT	correct	n/a	0.58203	no	n/a	n/a
210.4960938	n/a	53887	largeTSmallT	correct	congruent	0.59766	no	T	T
211.09375	n/a	54040	responseLargeT	correct	n/a	0.59766	no	n/a	n/a
212.1601562	n/a	54313	largeTSmallH	correct	incongruent	0.98828	no	T	H
213.1484375	n/a	54566	responseLargeT	correct	n/a	0.98828	no	n/a	n/a
214.2265625	n/a	54842	largeTSmallT	correct	congruent	0.67578	no	T	T
214.9023438	n/a	55015	responseLargeT	correct	n/a	0.67578	no	n/a	n/a
215.9726562	n/a	55289	largeTSmallT	correct	congruent	0.54297	no	T	T
216.515625	n/a	55428	responseLargeT	correct	n/a	0.54297	no	n/a	n/a
217.5859375	n/a	55702	largeTSmallH	correct	incongruent	0.79297	no	T	H
218.3789062	n/a	55905	responseLargeT	correct	n/a	0.79297	no	n/a	n/a
219.453125	n/a	56180	largeTSmallH	correct	incongruent	0.57031	no	T	H
220.0234375	n/a	56326	responseLargeT	correct	n/a	0.57031	no	n/a	n/a
221.0820312	n/a	56597	largeTSmallH	correct	incongruent	0.56641	no	T	H
221.6484375	n/a	56742	responseLargeT	correct	n/a	0.56641	no	n/a	n/a
222.7226562	n/a	57017	largeTSmallT	correct	congruent	0.62109	no	T	T
223.34375	n/a	57176	responseLargeT	correct	n/a	0.62109	no	n/a	n/a
224.4140625	n/a	57450	largeHSmallT	correct	incongruent	0.64844	no	H	T
225.0625	n/a	57616	responseLargeH	correct	n/a	0.64844	no	n/a	n/a
226.1484375	n/a	57894	largeHSmallH	correct	congruent	0.51172	no	H	H
226.6601562	n/a	58025	responseLargeH	correct	n/a	0.51172	no	n/a	n/a
227.734375	n/a	58300	largeTSmallT	correct	congruent	0.62891	no	T	T
228.3632812	n/a	58461	responseLargeT	correct	n/a	0.62891	no	n/a	n/a
229.4414062	n/a	58737	largeTSmallH	correct	incongruent	0.83984	no	T	H
230.28125	n/a	58952	responseLargeT	correct	n/a	0.83984	no	n/a	n/a
231.3476562	n/a	59225	largeTSmallH	correct	incongruent	0.86719	no	T	H
232.2148438	n/a	59447	responseLargeT	correct	n/a	0.86719	no	n/a	n/a
233.28125	n/a	59720	largeHSmallT	correct	incongruent	0.8125	no	H	T
234.09375	n/a	59928	responseLargeH	correct	n/a	0.8125	no	n/a	n/a
235.1757812	n/a	60205	largeTSmallT	correct	congruent	0.94922	no	T	T
236.125	n/a	60448	responseLargeT	correct	n/a	0.94922	no	n/a	n/a
237.1992188	n/a	60723	largeHSmallT	correct	incongruent	0.72656	no	H	T
237.9257812	n/a	60909	responseLargeH	correct	n/a	0.72656	no	n/a	n/a
239	n/a	61184	largeTSmallT	correct	congruent	0.73828	no	T	T
239.7382812	n/a	61373	responseLargeT	correct	n/a	0.73828	no	n/a	n/a
240.8007812	n/a	61645	largeHSmallT	correct	incongruent	0.61719	no	H	T
241.4179688	n/a	61803	responseLargeH	correct	n/a	0.61719	no	n/a	n/a
242.4921875	n/a	62078	largeTSmallT	correct	congruent	0.625	no	T	T
243.1171875	n/a	62238	responseLargeT	correct	n/a	0.625	no	n/a	n/a
244.1875	n/a	62512	largeTSmallT	correct	congruent	0.64453	no	T	T
244.8320312	n/a	62677	responseLargeT	correct	n/a	0.64453	no	n/a	n/a
245.90625	n/a	62952	largeHSmallH	correct	congruent	0.59766	no	H	H
246.5039062	n/a	63105	responseLargeH	correct	n/a	0.59766	no	n/a	n/a
247.5742188	n/a	63379	largeTSmallH	correct	incongruent	0.59766	no	T	H
248.171875	n/a	63532	responseLargeT	correct	n/a	0.59766	no	n/a	n/a
249.2421875	n/a	63806	largeHSmallH	correct	congruent	0.60156	no	H	H
249.84375	n/a	63960	responseLargeH	correct	n/a	0.60156	no	n/a	n/a
250.921875	n/a	64236	largeHSmallH	correct	congruent	0.59766	no	H	H
251.5195312	n/a	64389	responseLargeH	correct	n/a	0.59766	no	n/a	n/a
252.5859375	n/a	64662	largeTSmallH	correct	incongruent	0.65234	no	T	H
253.2382812	n/a	64829	responseLargeT	correct	n/a	0.65234	no	n/a	n/a
254.3203125	n/a	65106	largeTSmallH	correct	incongruent	0.72266	no	T	H
255.0429688	n/a	65291	responseLargeT	correct	n/a	0.72266	no	n/a	n/a
256.1054688	n/a	65563	largeTSmallH	correct	incongruent	0.53516	no	T	H
256.640625	n/a	65700	responseLargeT	correct	n/a	0.53516	no	n/a	n/a
257.71875	n/a	65976	largeHSmallT	correct	incongruent	0.64844	no	H	T
258.3671875	n/a	66142	responseLargeH	correct	n/a	0.64844	no	n/a	n/a
259.4257812	n/a	66413	largeHSmallT	correct	incongruent	0.58984	no	H	T
260.015625	n/a	66564	responseLargeH	correct	n/a	0.58984	no	n/a	n/a
261.09375	n/a	66840	largeHSmallT	correct	incongruent	0.58594	no	H	T
261.6796875	n/a	66990	responseLargeH	correct	n/a	0.58594	no	n/a	n/a
262.7617188	n/a	67267	largeTSmallH	correct	incongruent	0.60938	no	T	H
263.3710938	n/a	67423	responseLargeT	correct	n/a	0.60938	no	n/a	n/a
264.4414062	n/a	67697	largeTSmallH	correct	incongruent	0.58984	no	T	H
265.03125	n/a	67848	responseLargeT	correct	n/a	0.58984	no	n/a	n/a
266.1054688	n/a	68123	largeTSmallT	correct	congruent	0.4375	no	T	T
266.5429688	n/a	68235	responseLargeT	correct	n/a	0.4375	no	n/a	n/a
267.6015625	n/a	68506	largeTSmallH	correct	incongruent	0.5	no	T	H
268.1015625	n/a	68634	responseLargeT	correct	n/a	0.5	no	n/a	n/a
269.1601562	n/a	68905	largeTSmallH	correct	incongruent	0.47656	no	T	H
269.6367188	n/a	69027	responseLargeT	correct	n/a	0.47656	no	n/a	n/a
270.7070312	n/a	69301	largeHSmallH	correct	congruent	0.55078	no	H	H
271.2578125	n/a	69442	responseLargeH	correct	n/a	0.55078	no	n/a	n/a
272.3320312	n/a	69717	largeHSmallH	correct	congruent	0.58984	no	H	H
272.921875	n/a	69868	responseLargeH	correct	n/a	0.58984	no	n/a	n/a
273.984375	n/a	70140	largeTSmallT	correct	congruent	0.55859	no	T	T
274.5429688	n/a	70283	responseLargeT	correct	n/a	0.55859	no	n/a	n/a
275.6132812	n/a	70557	largeHSmallH	correct	congruent	0.42188	no	H	H
276.0351562	n/a	70665	responseLargeH	correct	n/a	0.42188	no	n/a	n/a
277.1054688	n/a	70939	largeTSmallT	correct	congruent	0.47266	no	T	T
277.578125	n/a	71060	responseLargeT	correct	n/a	0.47266	no	n/a	n/a
278.6523438	n/a	71335	largeTSmallH	correct	incongruent	0.52344	no	T	H
279.1757812	n/a	71469	responseLargeT	correct	n/a	0.52344	no	n/a	n/a
280.2382812	n/a	71741	largeTSmallH	correct	incongruent	0.46484	no	T	H
280.703125	n/a	71860	responseLargeT	correct	n/a	0.46484	no	n/a	n/a
281.7734375	n/a	72134	largeHSmallT	correct	incongruent	0.59766	no	H	T
282.3710938	n/a	72287	responseLargeH	correct	n/a	0.59766	no	n/a	n/a
283.4375	n/a	72560	largeHSmallH	correct	congruent	0.53906	no	H	H
283.9765625	n/a	72698	responseLargeH	correct	n/a	0.53906	no	n/a	n/a
285.0507812	n/a	72973	largeTSmallT	correct	congruent	0.55078	no	T	T
285.6015625	n/a	73114	responseLargeT	correct	n/a	0.55078	no	n/a	n/a
286.6679688	n/a	73387	largeTSmallT	correct	congruent	0.53906	no	T	T
287.2070312	n/a	73525	responseLargeT	correct	n/a	0.53906	no	n/a	n/a
288.28125	n/a	73800	largeHSmallH	correct	congruent	0.58984	no	H	H
288.8710938	n/a	73951	responseLargeH	correct	n/a	0.58984	no	n/a	n/a
289.9453125	n/a	74226	largeTSmallH	correct	incongruent	0.43359	no	T	H
290.3789062	n/a	74337	responseLargeT	correct	n/a	0.43359	no	n/a	n/a
291.4375	n/a	74608	largeTSmallT	correct	congruent	0.5625	no	T	T
292	n/a	74752	responseLargeT	correct	n/a	0.5625	no	n/a	n/a
293.0664062	n/a	75025	largeHSmallH	correct	congruent	0.55078	no	H	H
293.6171875	n/a	75166	responseLargeH	correct	n/a	0.55078	no	n/a	n/a
294.6914062	n/a	75441	largeHSmallH	correct	congruent	0.625	no	H	H
295.3164062	n/a	75601	responseLargeH	correct	n/a	0.625	no	n/a	n/a
296.3867188	n/a	75875	largeTSmallH	correct	incongruent	0.57031	no	T	H
296.9570312	n/a	76021	responseLargeT	correct	n/a	0.57031	no	n/a	n/a
298.0273438	n/a	76295	largeHSmallH	correct	congruent	0.80469	no	H	H
298.8320312	n/a	76501	responseLargeH	correct	n/a	0.80469	no	n/a	n/a
299.890625	n/a	76772	largeTSmallT	correct	congruent	0.42969	no	T	T
300.3203125	n/a	76882	responseLargeT	correct	n/a	0.42969	no	n/a	n/a
301.3984375	n/a	77158	largeTSmallT	error	congruent	0.57422	no	T	T
301.9726562	n/a	77305	responseLargeH	error	n/a	0.57422	no	n/a	n/a
303.0507812	n/a	77581	largeHSmallT	correct	incongruent	0.84375	no	H	T
303.8945312	n/a	77797	responseLargeH	correct	n/a	0.84375	no	n/a	n/a
304.9726562	n/a	78073	largeHSmallH	correct	congruent	0.71094	no	H	H
305.6835938	n/a	78255	responseLargeH	correct	n/a	0.71094	no	n/a	n/a
306.7460938	n/a	78527	largeHSmallT	correct	incongruent	1.0273	no	H	T
307.7734375	n/a	78790	responseLargeH	correct	n/a	1.0273	no	n/a	n/a
308.8398438	n/a	79063	largeHSmallT	correct	incongruent	0.54297	no	H	T
309.3828125	n/a	79202	responseLargeH	correct	n/a	0.54297	no	n/a	n/a
310.4648438	n/a	79479	largeHSmallH	correct	congruent	0.50781	no	H	H
310.9726562	n/a	79609	responseLargeH	correct	n/a	0.50781	no	n/a	n/a
312.0507812	n/a	79885	largeTSmallT	correct	congruent	0.60156	no	T	T
312.6523438	n/a	80039	responseLargeT	correct	n/a	0.60156	no	n/a	n/a
313.71875	n/a	80312	largeTSmallT	correct	congruent	0.48828	no	T	T
314.2070312	n/a	80437	responseLargeT	correct	n/a	0.48828	no	n/a	n/a
315.2773438	n/a	80711	largeTSmallT	correct	congruent	0.46094	no	T	T
315.7382812	n/a	80829	responseLargeT	correct	n/a	0.46094	no	n/a	n/a
316.8125	n/a	81104	largeTSmallH	correct	incongruent	0.46094	no	T	H
317.2734375	n/a	81222	responseLargeT	correct	n/a	0.46094	no	n/a	n/a
318.3320312	n/a	81493	largeHSmallT	correct	incongruent	0.58594	no	H	T
318.9179688	n/a	81643	responseLargeH	correct	n/a	0.58594	no	n/a	n/a
320	n/a	81920	largeHSmallT	correct	incongruent	0.63672	no	H	T
320.6367188	n/a	82083	responseLargeH	correct	n/a	0.63672	no	n/a	n/a
321.7070312	n/a	82357	largeHSmallH	correct	congruent	0.47656	no	H	H
322.1835938	n/a	82479	responseLargeH	correct	n/a	0.47656	no	n/a	n/a
323.25	n/a	82752	largeTSmallH	correct	incongruent	0.64844	no	T	H
323.8984375	n/a	82918	responseLargeT	correct	n/a	0.64844	no	n/a	n/a
324.9726562	n/a	83193	largeHSmallT	correct	incongruent	0.5	no	H	T
325.4726562	n/a	83321	responseLargeH	correct	n/a	0.5	no	n/a	n/a
326.5429688	n/a	83595	largeHSmallH	error	congruent	0.44531	no	H	H
326.9882812	n/a	83709	responseLargeT	error	n/a	0.44531	no	n/a	n/a
328.0507812	n/a	83981	largeTSmallH	correct	incongruent	0.66797	no	T	H
328.71875	n/a	84152	responseLargeT	correct	n/a	0.66797	no	n/a	n/a
329.7851562	n/a	84425	largeHSmallT	correct	incongruent	0.56641	no	H	T
330.3515625	n/a	84570	responseLargeH	correct	n/a	0.56641	no	n/a	n/a
331.4257812	n/a	84845	largeHSmallT	correct	incongruent	0.52344	no	H	T
331.9492188	n/a	84979	responseLargeH	correct	n/a	0.52344	no	n/a	n/a
333.0234375	n/a	85254	largeHSmallT	correct	incongruent	0.53125	no	H	T
333.5546875	n/a	85390	responseLargeH	correct	n/a	0.53125	no	n/a	n/a
334.625	n/a	85664	largeTSmallT	correct	congruent	0.64453	no	T	T
335.2695312	n/a	85829	responseLargeT	correct	n/a	0.64453	no	n/a	n/a
336.34375	n/a	86104	largeHSmallT	correct	incongruent	0.46484	no	H	T
336.8085938	n/a	86223	responseLargeH	correct	n/a	0.46484	no	n/a	n/a
337.890625	n/a	86500	largeTSmallH	correct	incongruent	0.47266	no	T	H
338.3632812	n/a	86621	responseLargeT	correct	n/a	0.47266	no	n/a	n/a
339.4257812	n/a	86893	largeHSmallH	correct	congruent	0.39844	no	H	H
339.8242188	n/a	86995	responseLargeH	correct	n/a	0.39844	no	n/a	n/a
340.890625	n/a	87268	largeTSmallT	correct	congruent	0.39844	no	T	T
341.2890625	n/a	87370	responseLargeT	correct	n/a	0.39844	no	n/a	n/a
342.359375	n/a	87644	largeTSmallT	correct	congruent	0.63281	no	T	T
342.9921875	n/a	87806	responseLargeT	correct	n/a	0.63281	no	n/a	n/a
344.0664062	n/a	88081	largeTSmallT	correct	congruent	0.53516	no	T	T
344.6015625	n/a	88218	responseLargeT	correct	n/a	0.53516	no	n/a	n/a
345.6640625	n/a	88490	largeTSmallT	correct	congruent	0.47266	no	T	T
346.1367188	n/a	88611	responseLargeT	correct	n/a	0.47266	no	n/a	n/a
347.2109375	n/a	88886	largeHSmallH	correct	congruent	0.51562	no	H	H
347.7265625	n/a	89018	responseLargeH	correct	n/a	0.51562	no	n/a	n/a
348.796875	n/a	89292	largeHSmallH	correct	congruent	0.62891	no	H	H
349.4257812	n/a	89453	responseLargeH	correct	n/a	0.62891	no	n/a	n/a
350.5039062	n/a	89729	largeTSmallH	correct	incongruent	0.39453	no	T	H
350.8984375	n/a	89830	responseLargeT	correct	n/a	0.39453	no	n/a	n/a
351.9726562	n/a	90105	largeTSmallT	correct	congruent	0.55859	no	T	T
352.53125	n/a	90248	responseLargeT	correct	n/a	0.55859	no	n/a	n/a
353.609375	n/a	90524	largeTSmallT	correct	congruent	0.51953	no	T	T
354.1289062	n/a	90657	responseLargeT	correct	n/a	0.51953	no	n/a	n/a
355.1992188	n/a	90931	largeTSmallH	correct	incongruent	0.42578	no	T	H
355.625	n/a	91040	responseLargeT	correct	n/a	0.42578	no	n/a	n/a
356.703125	n/a	91316	largeHSmallT	correct	incongruent	0.53125	no	H	T
357.234375	n/a	91452	responseLargeH	correct	n/a	0.53125	no	n/a	n/a
358.3046875	n/a	91726	largeHSmallT	correct	incongruent	0.44922	no	H	T
358.7539062	n/a	91841	responseLargeH	correct	n/a	0.44922	no	n/a	n/a
359.8359375	n/a	92118	largeTSmallH	correct	incongruent	0.48047	no	T	H
360.3164062	n/a	92241	responseLargeT	correct	n/a	0.48047	no	n/a	n/a
361.3984375	n/a	92518	largeTSmallT	correct	congruent	0.58984	no	T	T
361.9882812	n/a	92669	responseLargeT	correct	n/a	0.58984	no	n/a	n/a
363.0664062	n/a	92945	largeHSmallT	correct	incongruent	0.41797	no	H	T
363.484375	n/a	93052	responseLargeH	correct	n/a	0.41797	no	n/a	n/a
364.5585938	n/a	93327	largeHSmallH	error	congruent	0.41406	no	H	H
364.9726562	n/a	93433	responseLargeT	error	n/a	0.41406	no	n/a	n/a
366.0390625	n/a	93706	largeTSmallT	correct	congruent	0.55469	no	T	T
366.59375	n/a	93848	responseLargeT	correct	n/a	0.55469	no	n/a	n/a
367.6640625	n/a	94122	largeTSmallT	correct	congruent	0.51953	no	T	T
368.1835938	n/a	94255	responseLargeT	correct	n/a	0.51953	no	n/a	n/a
369.25	n/a	94528	largeTSmallT	correct	congruent	0.46484	no	T	T
369.7148438	n/a	94647	responseLargeT	correct	n/a	0.46484	no	n/a	n/a
370.7851562	n/a	94921	largeTSmallH	correct	incongruent	0.44922	no	T	H
371.234375	n/a	95036	responseLargeT	correct	n/a	0.44922	no	n/a	n/a
372.3046875	n/a	95310	largeTSmallH	correct	incongruent	0.42188	no	T	H
372.7265625	n/a	95418	responseLargeT	correct	n/a	0.42188	no	n/a	n/a
373.796875	n/a	95692	largeHSmallH	correct	congruent	0.60938	no	H	H
374.40625	n/a	95848	responseLargeH	correct	n/a	0.60938	no	n/a	n/a
375.4765625	n/a	96122	largeTSmallH	correct	incongruent	0.53125	no	T	H
376.0078125	n/a	96258	responseLargeT	correct	n/a	0.53125	no	n/a	n/a
377.0898438	n/a	96535	largeTSmallT	correct	congruent	0.54297	no	T	T
377.6328125	n/a	96674	responseLargeT	correct	n/a	0.54297	no	n/a	n/a
386.2226562	n/a	98873	largeHSmallH	correct	congruent	1.0703	no	H	H
387.2929688	n/a	99147	responseSmallH	correct	n/a	1.0703	no	n/a	n/a
388.3710938	n/a	99423	largeHSmallH	correct	congruent	0.64844	no	H	H
389.0195312	n/a	99589	responseSmallH	correct	n/a	0.64844	no	n/a	n/a
390.078125	n/a	99860	largeHSmallT	correct	incongruent	0.62891	no	H	T
390.7070312	n/a	100021	responseSmallT	correct	n/a	0.62891	no	n/a	n/a
391.7851562	n/a	100297	largeTSmallH	correct	incongruent	0.72266	no	T	H
392.5078125	n/a	100482	responseSmallH	correct	n/a	0.72266	no	n/a	n/a
393.5820312	n/a	100757	largeTSmallH	correct	incongruent	0.53125	no	T	H
394.1132812	n/a	100893	responseSmallH	correct	n/a	0.53125	no	n/a	n/a
395.1835938	n/a	101167	largeHSmallT	correct	incongruent	0.59375	no	H	T
395.7773438	n/a	101319	responseSmallT	correct	n/a	0.59375	no	n/a	n/a
396.8515625	n/a	101594	largeHSmallH	correct	congruent	0.45703	no	H	H
397.3085938	n/a	101711	responseSmallH	correct	n/a	0.45703	no	n/a	n/a
398.3828125	n/a	101986	largeTSmallH	correct	incongruent	0.81641	no	T	H
399.1992188	n/a	102195	responseSmallH	correct	n/a	0.81641	no	n/a	n/a
400.2773438	n/a	102471	largeTSmallT	correct	congruent	0.58594	no	T	T
400.8632812	n/a	102621	responseSmallT	correct	n/a	0.58594	no	n/a	n/a
401.9414062	n/a	102897	largeHSmallT	correct	incongruent	0.60547	no	H	T
402.546875	n/a	103052	responseSmallT	correct	n/a	0.60547	no	n/a	n/a
403.6210938	n/a	103327	largeHSmallT	correct	incongruent	0.62891	no	H	T
404.25	n/a	103488	responseSmallT	correct	n/a	0.62891	no	n/a	n/a
405.328125	n/a	103764	largeTSmallH	correct	incongruent	0.58984	no	T	H
405.9179688	n/a	103915	responseSmallH	correct	n/a	0.58984	no	n/a	n/a
406.9960938	n/a	104191	largeTSmallT	correct	congruent	0.56641	no	T	T
407.5625	n/a	104336	responseSmallT	correct	n/a	0.56641	no	n/a	n/a
408.6367188	n/a	104611	largeTSmallT	correct	congruent	0.58594	no	T	T
409.2226562	n/a	104761	responseSmallT	correct	n/a	0.58594	no	n/a	n/a
410.3046875	n/a	105038	largeTSmallT	correct	congruent	0.53516	no	T	T
410.8398438	n/a	105175	responseSmallT	correct	n/a	0.53516	no	n/a	n/a
411.9023438	n/a	105447	largeHSmallT	correct	incongruent	0.72266	no	H	T
412.625	n/a	105632	responseSmallT	correct	n/a	0.72266	no	n/a	n/a
413.703125	n/a	105908	largeHSmallT	correct	incongruent	0.48047	no	H	T
414.1835938	n/a	106031	responseSmallT	correct	n/a	0.48047	no	n/a	n/a
415.25	n/a	106304	largeTSmallT	correct	congruent	0.53906	no	T	T
415.7890625	n/a	106442	responseSmallT	correct	n/a	0.53906	no	n/a	n/a
416.8632812	n/a	106717	largeTSmallT	correct	congruent	0.50391	no	T	T
417.3671875	n/a	106846	responseSmallT	correct	n/a	0.50391	no	n/a	n/a
418.4375	n/a	107120	largeTSmallT	correct	congruent	0.5	no	T	T
418.9375	n/a	107248	responseSmallT	correct	n/a	0.5	no	n/a	n/a
420.0078125	n/a	107522	largeHSmallT	correct	incongruent	0.57812	no	H	T
420.5859375	n/a	107670	responseSmallT	correct	n/a	0.57812	no	n/a	n/a
421.6640625	n/a	107946	largeHSmallT	correct	incongruent	0.45703	no	H	T
422.1210938	n/a	108063	responseSmallT	correct	n/a	0.45703	no	n/a	n/a
423.1835938	n/a	108335	largeHSmallH	correct	congruent	0.54688	no	H	H
423.7304688	n/a	108475	responseSmallH	correct	n/a	0.54688	no	n/a	n/a
424.796875	n/a	108748	largeTSmallH	correct	incongruent	0.55859	no	T	H
425.3554688	n/a	108891	responseSmallH	correct	n/a	0.55859	no	n/a	n/a
426.4375	n/a	109168	largeTSmallT	correct	congruent	0.68359	no	T	T
427.1210938	n/a	109343	responseSmallT	correct	n/a	0.68359	no	n/a	n/a
428.1953125	n/a	109618	largeTSmallT	correct	congruent	0.49219	no	T	T
428.6875	n/a	109744	responseSmallT	correct	n/a	0.49219	no	n/a	n/a
429.7539062	n/a	110017	largeTSmallH	correct	incongruent	0.64062	no	T	H
430.3945312	n/a	110181	responseSmallH	correct	n/a	0.64062	no	n/a	n/a
431.4609375	n/a	110454	largeHSmallT	correct	incongruent	0.60156	no	H	T
432.0625	n/a	110608	responseSmallT	correct	n/a	0.60156	no	n/a	n/a
433.140625	n/a	110884	largeTSmallH	correct	incongruent	0.48438	no	T	H
433.625	n/a	111008	responseSmallH	correct	n/a	0.48438	no	n/a	n/a
434.703125	n/a	111284	largeTSmallH	correct	incongruent	0.60938	no	T	H
435.3125	n/a	111440	responseSmallH	correct	n/a	0.60938	no	n/a	n/a
436.3828125	n/a	111714	largeHSmallT	correct	incongruent	0.625	no	H	T
437.0078125	n/a	111874	responseSmallT	correct	n/a	0.625	no	n/a	n/a
438.0898438	n/a	112151	largeTSmallH	correct	incongruent	0.44531	no	T	H
438.5351562	n/a	112265	responseSmallH	correct	n/a	0.44531	no	n/a	n/a
439.609375	n/a	112540	largeHSmallH	correct	congruent	0.55469	no	H	H
440.1640625	n/a	112682	responseSmallH	correct	n/a	0.55469	no	n/a	n/a
441.234375	n/a	112956	largeHSmallT	correct	incongruent	0.57812	no	H	T
441.8125	n/a	113104	responseSmallT	correct	n/a	0.57812	no	n/a	n/a
442.8867188	n/a	113379	largeHSmallH	correct	congruent	0.51172	no	H	H
443.3984375	n/a	113510	responseSmallH	correct	n/a	0.51172	no	n/a	n/a
444.4609375	n/a	113782	largeHSmallT	correct	incongruent	0.60938	no	H	T
445.0703125	n/a	113938	responseSmallT	correct	n/a	0.60938	no	n/a	n/a
446.15625	n/a	114216	largeTSmallH	correct	incongruent	0.45312	no	T	H
446.609375	n/a	114332	responseSmallH	correct	n/a	0.45312	no	n/a	n/a
447.6757812	n/a	114605	largeHSmallH	correct	congruent	0.55859	no	H	H
448.234375	n/a	114748	responseSmallH	correct	n/a	0.55859	no	n/a	n/a
449.3007812	n/a	115021	largeHSmallH	correct	congruent	0.48828	no	H	H
449.7890625	n/a	115146	responseSmallH	correct	n/a	0.48828	no	n/a	n/a
450.8632812	n/a	115421	largeHSmallH	correct	congruent	0.49219	no	H	H
451.3554688	n/a	115547	responseSmallH	correct	n/a	0.49219	no	n/a	n/a
452.421875	n/a	115820	largeTSmallH	correct	incongruent	0.54688	no	T	H
452.96875	n/a	115960	responseSmallH	correct	n/a	0.54688	no	n/a	n/a
454.046875	n/a	116236	largeTSmallT	correct	congruent	0.5625	no	T	T
454.609375	n/a	116380	responseSmallT	correct	n/a	0.5625	no	n/a	n/a
455.6757812	n/a	116653	largeTSmallT	correct	congruent	0.54297	no	T	T
456.21875	n/a	116792	responseSmallT	correct	n/a	0.54297	no	n/a	n/a
457.2890625	n/a	117066	largeHSmallT	correct	incongruent	0.65625	no	H	T
457.9453125	n/a	117234	responseSmallT	correct	n/a	0.65625	no	n/a	n/a
459.0234375	n/a	117510	largeHSmallH	correct	congruent	0.57422	no	H	H
459.5976562	n/a	117657	responseSmallH	correct	n/a	0.57422	no	n/a	n/a
460.6757812	n/a	117933	largeHSmallH	correct	congruent	0.57422	no	H	H
461.25	n/a	118080	responseSmallH	correct	n/a	0.57422	no	n/a	n/a
462.328125	n/a	118356	largeTSmallT	correct	congruent	0.4375	no	T	T
462.765625	n/a	118468	responseSmallT	correct	n/a	0.4375	no	n/a	n/a
463.8359375	n/a	118742	largeTSmallH	correct	incongruent	0.56641	no	T	H
464.4023438	n/a	118887	responseSmallH	correct	n/a	0.56641	no	n/a	n/a
465.4765625	n/a	119162	largeTSmallH	correct	incongruent	0.51953	no	T	H
465.9960938	n/a	119295	responseSmallH	correct	n/a	0.51953	no	n/a	n/a
467.0742188	n/a	119571	largeTSmallT	correct	congruent	0.59766	no	T	T
467.671875	n/a	119724	responseSmallT	correct	n/a	0.59766	no	n/a	n/a
468.7421875	n/a	119998	largeHSmallT	correct	incongruent	0.67969	no	H	T
469.421875	n/a	120172	responseSmallT	correct	n/a	0.67969	no	n/a	n/a
470.5	n/a	120448	largeHSmallT	correct	incongruent	0.57422	no	H	T
471.0742188	n/a	120595	responseSmallT	correct	n/a	0.57422	no	n/a	n/a
472.140625	n/a	120868	largeTSmallT	correct	congruent	0.53516	no	T	T
472.6757812	n/a	121005	responseSmallT	correct	n/a	0.53516	no	n/a	n/a
473.7421875	n/a	121278	largeHSmallH	correct	congruent	0.45703	no	H	H
474.1992188	n/a	121395	responseSmallH	correct	n/a	0.45703	no	n/a	n/a
475.2734375	n/a	121670	largeHSmallH	correct	congruent	0.59766	no	H	H
475.8710938	n/a	121823	responseSmallH	correct	n/a	0.59766	no	n/a	n/a
476.9414062	n/a	122097	largeHSmallH	correct	congruent	0.57031	no	H	H
477.5117188	n/a	122243	responseSmallH	correct	n/a	0.57031	no	n/a	n/a
478.5820312	n/a	122517	largeTSmallH	correct	incongruent	0.73047	no	T	H
479.3125	n/a	122704	responseSmallH	correct	n/a	0.73047	no	n/a	n/a
480.3945312	n/a	122981	largeTSmallT	correct	congruent	0.51953	no	T	T
480.9140625	n/a	123114	responseSmallT	correct	n/a	0.51953	no	n/a	n/a
481.9804688	n/a	123387	largeTSmallH	correct	incongruent	0.48047	no	T	H
482.4609375	n/a	123510	responseSmallH	correct	n/a	0.48047	no	n/a	n/a
483.5273438	n/a	123783	largeTSmallH	error	incongruent	0.42578	no	T	H
483.953125	n/a	123892	responseSmallT	error	n/a	0.42578	no	n/a	n/a
485.0195312	n/a	124165	largeHSmallT	correct	incongruent	0.53125	no	H	T
485.5507812	n/a	124301	responseSmallT	correct	n/a	0.53125	no	n/a	n/a
486.6210938	n/a	124575	largeHSmallT	correct	incongruent	0.51562	no	H	T
487.1367188	n/a	124707	responseSmallT	correct	n/a	0.51562	no	n/a	n/a
488.2070312	n/a	124981	largeTSmallH	correct	incongruent	0.46484	no	T	H
488.671875	n/a	125100	responseSmallH	correct	n/a	0.46484	no	n/a	n/a
489.7539062	n/a	125377	largeHSmallH	correct	congruent	0.42188	no	H	H
490.1757812	n/a	125485	responseSmallH	correct	n/a	0.42188	no	n/a	n/a
491.2460938	n/a	125759	largeHSmallT	correct	incongruent	0.52344	no	H	T
491.7695312	n/a	125893	responseSmallT	correct	n/a	0.52344	no	n/a	n/a
492.8320312	n/a	126165	largeHSmallH	correct	congruent	0.47266	no	H	H
493.3046875	n/a	126286	responseSmallH	correct	n/a	0.47266	no	n/a	n/a
494.3671875	n/a	126558	largeHSmallH	error	congruent	0.44141	no	H	H
494.8085938	n/a	126671	responseSmallT	error	n/a	0.44141	no	n/a	n/a
495.8867188	n/a	126947	largeTSmallT	correct	congruent	0.46875	no	T	T
496.3554688	n/a	127067	responseSmallT	correct	n/a	0.46875	no	n/a	n/a
497.421875	n/a	127340	largeTSmallT	correct	congruent	0.625	no	T	T
498.046875	n/a	127500	responseSmallT	correct	n/a	0.625	no	n/a	n/a
499.1132812	n/a	127773	largeHSmallH	correct	congruent	0.53125	no	H	H
499.6445312	n/a	127909	responseSmallH	correct	n/a	0.53125	no	n/a	n/a
500.7148438	n/a	128183	largeHSmallT	correct	incongruent	0.60938	no	H	T
501.3242188	n/a	128339	responseSmallT	correct	n/a	0.60938	no	n/a	n/a
502.3789062	n/a	128609	largeTSmallH	correct	incongruent	0.44922	no	T	H
502.828125	n/a	128724	responseSmallH	correct	n/a	0.44922	no	n/a	n/a
503.8984375	n/a	128998	largeHSmallH	correct	congruent	0.51953	no	H	H
504.4179688	n/a	129131	responseSmallH	correct	n/a	0.51953	no	n/a	n/a
505.4882812	n/a	129405	largeTSmallT	correct	congruent	0.48438	no	T	T
505.9726562	n/a	129529	responseSmallT	correct	n/a	0.48438	no	n/a	n/a
507.046875	n/a	129804	largeHSmallH	correct	congruent	0.375	no	H	H
507.421875	n/a	129900	responseSmallH	correct	n/a	0.375	no	n/a	n/a
508.4882812	n/a	130173	largeTSmallT	correct	congruent	0.38281	no	T	T
508.8710938	n/a	130271	responseSmallT	correct	n/a	0.38281	no	n/a	n/a
509.9414062	n/a	130545	largeTSmallH	correct	incongruent	0.35547	no	T	H
510.296875	n/a	130636	responseSmallH	correct	n/a	0.35547	no	n/a	n/a
511.3671875	n/a	130910	largeTSmallH	error	incongruent	0.39453	no	T	H
511.7617188	n/a	131011	responseSmallT	error	n/a	0.39453	no	n/a	n/a
512.8203125	n/a	131282	largeHSmallT	correct	incongruent	0.67969	no	H	T
513.5	n/a	131456	responseSmallT	correct	n/a	0.67969	no	n/a	n/a
514.5664062	n/a	131729	largeTSmallH	correct	incongruent	0.41406	no	T	H
514.9804688	n/a	131835	responseSmallH	correct	n/a	0.41406	no	n/a	n/a
516.0585938	n/a	132111	largeTSmallH	correct	incongruent	0.45703	no	T	H
516.515625	n/a	132228	responseSmallH	correct	n/a	0.45703	no	n/a	n/a
517.578125	n/a	132500	largeHSmallH	correct	congruent	0.53906	no	H	H
518.1171875	n/a	132638	responseSmallH	correct	n/a	0.53906	no	n/a	n/a
519.1914062	n/a	132913	largeTSmallT	correct	congruent	0.52734	no	T	T
519.71875	n/a	133048	responseSmallT	correct	n/a	0.52734	no	n/a	n/a
520.7929688	n/a	133323	largeHSmallT	correct	incongruent	0.53906	no	H	T
521.3320312	n/a	133461	responseSmallT	correct	n/a	0.53906	no	n/a	n/a
522.40625	n/a	133736	largeHSmallT	correct	incongruent	0.51562	no	H	T
522.921875	n/a	133868	responseSmallT	correct	n/a	0.51562	no	n/a	n/a
523.9921875	n/a	134142	largeTSmallT	correct	congruent	0.46094	no	T	T
524.453125	n/a	134260	responseSmallT	correct	n/a	0.46094	no	n/a	n/a
525.5273438	n/a	134535	largeHSmallH	correct	congruent	0.47266	no	H	H
526	n/a	134656	responseSmallH	correct	n/a	0.47266	no	n/a	n/a
527.0585938	n/a	134927	largeHSmallH	correct	congruent	0.51562	no	H	H
527.5742188	n/a	135059	responseSmallH	correct	n/a	0.51562	no	n/a	n/a
528.6445312	n/a	135333	largeHSmallT	correct	incongruent	0.55078	no	H	T
529.1953125	n/a	135474	responseSmallT	correct	n/a	0.55078	no	n/a	n/a
530.2617188	n/a	135747	largeTSmallH	correct	incongruent	0.35938	no	T	H
530.6210938	n/a	135839	responseSmallH	correct	n/a	0.35938	no	n/a	n/a
531.6875	n/a	136112	largeTSmallT	correct	congruent	0.4375	no	T	T
532.125	n/a	136224	responseSmallT	correct	n/a	0.4375	no	n/a	n/a
533.1914062	n/a	136497	largeHSmallT	correct	incongruent	0.67578	no	H	T
533.8671875	n/a	136670	responseSmallT	correct	n/a	0.67578	no	n/a	n/a
534.9414062	n/a	136945	largeHSmallT	correct	incongruent	0.46484	no	H	T
535.40625	n/a	137064	responseSmallT	correct	n/a	0.46484	no	n/a	n/a
536.4726562	n/a	137337	largeTSmallT	correct	congruent	0.44141	no	T	T
536.9140625	n/a	137450	responseSmallT	correct	n/a	0.44141	no	n/a	n/a
537.9921875	n/a	137726	largeTSmallT	correct	congruent	0.41016	no	T	T
538.4023438	n/a	137831	responseSmallT	correct	n/a	0.41016	no	n/a	n/a
539.4726562	n/a	138105	largeTSmallH	error	incongruent	0.37109	no	T	H
539.84375	n/a	138200	responseSmallT	error	n/a	0.37109	no	n/a	n/a
540.9140625	n/a	138474	largeTSmallT	correct	congruent	0.53906	no	T	T
541.453125	n/a	138612	responseSmallT	correct	n/a	0.53906	no	n/a	n/a
542.5273438	n/a	138887	largeHSmallH	correct	congruent	0.39844	no	H	H
542.9257812	n/a	138989	responseSmallH	correct	n/a	0.39844	no	n/a	n/a
543.9921875	n/a	139262	largeTSmallH	correct	incongruent	0.55859	no	T	H
544.5507812	n/a	139405	responseSmallH	correct	n/a	0.55859	no	n/a	n/a
545.6328125	n/a	139682	largeTSmallT	correct	congruent	0.51562	no	T	T
546.1484375	n/a	139814	responseSmallT	correct	n/a	0.51562	no	n/a	n/a
547.21875	n/a	140088	largeTSmallT	correct	congruent	0.63672	no	T	T
547.8554688	n/a	140251	responseSmallT	correct	n/a	0.63672	no	n/a	n/a
548.9257812	n/a	140525	largeHSmallT	correct	incongruent	0.51562	no	H	T
549.4414062	n/a	140657	responseSmallT	correct	n/a	0.51562	no	n/a	n/a
550.5117188	n/a	140931	largeTSmallH	correct	incongruent	0.50391	no	T	H
551.015625	n/a	141060	responseSmallH	correct	n/a	0.50391	no	n/a	n/a
552.0859375	n/a	141334	largeHSmallT	correct	incongruent	0.42578	no	H	T
552.5117188	n/a	141443	responseSmallT	correct	n/a	0.42578	no	n/a	n/a
553.59375	n/a	141720	largeTSmallH	correct	incongruent	0.39844	no	T	H
553.9921875	n/a	141822	responseSmallH	correct	n/a	0.39844	no	n/a	n/a
555.0742188	n/a	142099	largeTSmallH	correct	incongruent	0.52344	no	T	H
555.5976562	n/a	142233	responseSmallH	correct	n/a	0.52344	no	n/a	n/a
556.671875	n/a	142508	largeHSmallH	correct	congruent	0.5	no	H	H
557.171875	n/a	142636	responseSmallH	correct	n/a	0.5	no	n/a	n/a
558.2304688	n/a	142907	largeTSmallT	correct	congruent	0.47266	no	T	T
558.703125	n/a	143028	responseSmallT	correct	n/a	0.47266	no	n/a	n/a
559.765625	n/a	143300	largeTSmallH	correct	incongruent	0.62891	no	T	H
560.3945312	n/a	143461	responseSmallH	correct	n/a	0.62891	no	n/a	n/a
561.4726562	n/a	143737	largeTSmallH	correct	incongruent	0.67969	no	T	H
562.1523438	n/a	143911	responseSmallH	correct	n/a	0.67969	no	n/a	n/a
563.2304688	n/a	144187	largeHSmallH	correct	congruent	0.42578	no	H	H
563.65625	n/a	144296	responseSmallH	correct	n/a	0.42578	no	n/a	n/a
564.7265625	n/a	144570	largeHSmallH	correct	congruent	0.42578	no	H	H
565.1523438	n/a	144679	responseSmallH	correct	n/a	0.42578	no	n/a	n/a
566.21875	n/a	144952	largeTSmallH	correct	incongruent	0.39062	no	T	H
566.609375	n/a	145052	responseSmallH	correct	n/a	0.39062	no	n/a	n/a
567.671875	n/a	145324	largeTSmallT	error	congruent	0.36719	no	T	T
568.0390625	n/a	145418	responseSmallH	error	n/a	0.36719	no	n/a	n/a
569.1132812	n/a	145693	largeTSmallH	correct	incongruent	0.48828	no	T	H
569.6015625	n/a	145818	responseSmallH	correct	n/a	0.48828	no	n/a	n/a
570.671875	n/a	146092	largeTSmallT	correct	congruent	0.47266	no	T	T
571.1445312	n/a	146213	responseSmallT	correct	n/a	0.47266	no	n/a	n/a
572.21875	n/a	146488	largeTSmallT	correct	congruent	0.55469	no	T	T
572.7734375	n/a	146630	responseSmallT	correct	n/a	0.55469	no	n/a	n/a
573.84375	n/a	146904	largeTSmallH	correct	incongruent	0.44141	no	T	H
574.2851562	n/a	147017	responseSmallH	correct	n/a	0.44141	no	n/a	n/a
575.3515625	n/a	147290	largeHSmallH	correct	congruent	0.55078	no	H	H
575.9023438	n/a	147431	responseSmallH	correct	n/a	0.55078	no	n/a	n/a
576.9648438	n/a	147703	largeTSmallH	correct	incongruent	0.5625	no	T	H
577.5273438	n/a	147847	responseSmallH	correct	n/a	0.5625	no	n/a	n/a
578.5898438	n/a	148119	largeHSmallH	correct	congruent	0.48047	no	H	H
579.0703125	n/a	148242	responseSmallH	correct	n/a	0.48047	no	n/a	n/a
580.1367188	n/a	148515	largeHSmallT	error	incongruent	0.39453	no	H	T
580.53125	n/a	148616	responseSmallH	error	n/a	0.39453	no	n/a	n/a
581.6054688	n/a	148891	largeHSmallH	correct	congruent	0.51172	no	H	H
582.1171875	n/a	149022	responseSmallH	correct	n/a	0.51172	no	n/a	n/a
583.1914062	n/a	149297	largeHSmallT	correct	incongruent	0.46484	no	H	T
583.65625	n/a	149416	responseSmallT	correct	n/a	0.46484	no	n/a	n/a
584.7265625	n/a	149690	largeTSmallT	correct	congruent	0.54297	no	T	T
585.2695312	n/a	149829	responseSmallT	correct	n/a	0.54297	no	n/a	n/a
586.3515625	n/a	150106	largeHSmallT	correct	incongruent	0.50781	no	H	T
586.859375	n/a	150236	responseSmallT	correct	n/a	0.50781	no	n/a	n/a
587.9257812	n/a	150509	largeHSmallT	error	incongruent	0.48828	no	H	T
588.4140625	n/a	150634	responseSmallH	error	n/a	0.48828	no	n/a	n/a
589.484375	n/a	150908	largeTSmallH	correct	incongruent	0.62109	no	T	H
590.1054688	n/a	151067	responseSmallH	correct	n/a	0.62109	no	n/a	n/a
591.1796875	n/a	151342	largeTSmallH	correct	incongruent	0.55469	no	T	H
591.734375	n/a	151484	responseSmallH	correct	n/a	0.55469	no	n/a	n/a
592.8046875	n/a	151758	largeTSmallH	correct	incongruent	0.54297	no	T	H
593.3476562	n/a	151897	responseSmallH	correct	n/a	0.54297	no	n/a	n/a
594.40625	n/a	152168	largeTSmallT	correct	congruent	0.47656	no	T	T
594.8828125	n/a	152290	responseSmallT	correct	n/a	0.47656	no	n/a	n/a
595.953125	n/a	152564	largeHSmallT	correct	incongruent	0.53125	no	H	T
596.484375	n/a	152700	responseSmallT	correct	n/a	0.53125	no	n/a	n/a
597.5507812	n/a	152973	largeTSmallH	correct	incongruent	0.4375	no	T	H
597.9882812	n/a	153085	responseSmallH	correct	n/a	0.4375	no	n/a	n/a
599.0585938	n/a	153359	largeTSmallT	correct	congruent	0.5625	no	T	T
599.6210938	n/a	153503	responseSmallT	correct	n/a	0.5625	no	n/a	n/a
600.6992188	n/a	153779	largeTSmallT	correct	congruent	0.55859	no	T	T
601.2578125	n/a	153922	responseSmallT	correct	n/a	0.55859	no	n/a	n/a
602.3242188	n/a	154195	largeHSmallH	correct	congruent	0.45312	no	H	H
602.7773438	n/a	154311	responseSmallH	correct	n/a	0.45312	no	n/a	n/a
603.859375	n/a	154588	largeHSmallT	correct	incongruent	0.69141	no	H	T
604.5507812	n/a	154765	responseSmallT	correct	n/a	0.69141	no	n/a	n/a
605.6328125	n/a	155042	largeHSmallT	correct	incongruent	0.61328	no	H	T
606.2460938	n/a	155199	responseSmallT	correct	n/a	0.61328	no	n/a	n/a
607.3125	n/a	155472	largeHSmallT	correct	incongruent	0.46875	no	H	T
607.78125	n/a	155592	responseSmallT	correct	n/a	0.46875	no	n/a	n/a
608.859375	n/a	155868	largeHSmallH	correct	congruent	0.55859	no	H	H
609.4179688	n/a	156011	responseSmallH	correct	n/a	0.55859	no	n/a	n/a
610.4960938	n/a	156287	largeTSmallH	correct	incongruent	0.61719	no	T	H
611.1132812	n/a	156445	responseSmallH	correct	n/a	0.61719	no	n/a	n/a
612.1757812	n/a	156717	largeTSmallT	correct	congruent	0.43359	no	T	T
612.609375	n/a	156828	responseSmallT	correct	n/a	0.43359	no	n/a	n/a
613.6835938	n/a	157103	largeHSmallH	correct	congruent	0.42578	no	H	H
614.109375	n/a	157212	responseSmallH	correct	n/a	0.42578	no	n/a	n/a
615.1757812	n/a	157485	largeHSmallT	correct	incongruent	0.41797	no	H	T
615.59375	n/a	157592	responseSmallT	correct	n/a	0.41797	no	n/a	n/a
616.65625	n/a	157864	largeTSmallT	correct	congruent	0.52344	no	T	T
617.1796875	n/a	157998	responseSmallT	correct	n/a	0.52344	no	n/a	n/a
618.2421875	n/a	158270	largeTSmallT	correct	congruent	0.49219	no	T	T
618.734375	n/a	158396	responseSmallT	correct	n/a	0.49219	no	n/a	n/a
619.8046875	n/a	158670	largeTSmallT	correct	congruent	0.46875	no	T	T
620.2734375	n/a	158790	responseSmallT	correct	n/a	0.46875	no	n/a	n/a
621.3359375	n/a	159062	largeHSmallT	correct	incongruent	0.61719	no	H	T
621.953125	n/a	159220	responseSmallT	correct	n/a	0.61719	no	n/a	n/a
623.0195312	n/a	159493	largeTSmallH	correct	incongruent	0.41797	no	T	H
623.4375	n/a	159600	responseSmallH	correct	n/a	0.41797	no	n/a	n/a
624.5117188	n/a	159875	largeHSmallH	correct	congruent	0.51172	no	H	H
625.0234375	n/a	160006	responseSmallH	correct	n/a	0.51172	no	n/a	n/a
626.0976562	n/a	160281	largeHSmallH	correct	congruent	0.44531	no	H	H
626.5429688	n/a	160395	responseSmallH	correct	n/a	0.44531	no	n/a	n/a
627.6054688	n/a	160667	largeHSmallH	correct	congruent	0.38281	no	H	H
627.9882812	n/a	160765	responseSmallH	correct	n/a	0.38281	no	n/a	n/a
629.0585938	n/a	161039	largeHSmallT	correct	incongruent	0.46094	no	H	T
629.5195312	n/a	161157	responseSmallT	correct	n/a	0.46094	no	n/a	n/a
630.5898438	n/a	161431	largeHSmallT	correct	incongruent	0.52344	no	H	T
631.1132812	n/a	161565	responseSmallT	correct	n/a	0.52344	no	n/a	n/a
632.1757812	n/a	161837	largeHSmallH	correct	congruent	0.35938	no	H	H
632.5351562	n/a	161929	responseSmallH	correct	n/a	0.35938	no	n/a	n/a
633.6054688	n/a	162203	largeHSmallT	correct	incongruent	0.60547	no	H	T
634.2109375	n/a	162358	responseSmallT	correct	n/a	0.60547	no	n/a	n/a
635.2851562	n/a	162633	largeTSmallT	correct	congruent	0.51172	no	T	T
635.796875	n/a	162764	responseSmallT	correct	n/a	0.51172	no	n/a	n/a
636.8554688	n/a	163035	largeHSmallH	correct	congruent	0.47656	no	H	H
637.3320312	n/a	163157	responseSmallH	correct	n/a	0.47656	no	n/a	n/a
638.4023438	n/a	163431	largeTSmallT	correct	congruent	0.38672	no	T	T
638.7890625	n/a	163530	responseSmallT	correct	n/a	0.38672	no	n/a	n/a
639.8554688	n/a	163803	largeTSmallT	correct	congruent	0.50391	no	T	T
640.359375	n/a	163932	responseSmallT	correct	n/a	0.50391	no	n/a	n/a
641.4296875	n/a	164206	largeHSmallT	error	incongruent	0.39062	no	H	T
641.8203125	n/a	164306	responseSmallH	error	n/a	0.39062	no	n/a	n/a
642.8984375	n/a	164582	largeTSmallT	correct	congruent	0.53906	no	T	T
643.4375	n/a	164720	responseSmallT	correct	n/a	0.53906	no	n/a	n/a
644.5117188	n/a	164995	largeHSmallH	correct	congruent	0.48438	no	H	H
644.9960938	n/a	165119	responseSmallH	correct	n/a	0.48438	no	n/a	n/a
646.0585938	n/a	165391	largeTSmallH	error	incongruent	0.51562	no	T	H
646.5742188	n/a	165523	responseSmallT	error	n/a	0.51562	no	n/a	n/a
647.6445312	n/a	165797	largeTSmallH	correct	incongruent	0.44531	no	T	H
648.0898438	n/a	165911	responseSmallH	correct	n/a	0.44531	no	n/a	n/a
649.1640625	n/a	166186	largeTSmallH	correct	incongruent	0.46094	no	T	H
649.625	n/a	166304	responseSmallH	correct	n/a	0.46094	no	n/a	n/a
650.6953125	n/a	166578	largeTSmallT	error	congruent	0.38672	no	T	T
651.0820312	n/a	166677	responseSmallH	error	n/a	0.38672	no	n/a	n/a
652.1484375	n/a	166950	largeHSmallT	correct	incongruent	0.47266	no	H	T
652.6210938	n/a	167071	responseSmallT	correct	n/a	0.47266	no	n/a	n/a
653.6953125	n/a	167346	largeHSmallH	correct	congruent	0.46484	no	H	H
654.1601562	n/a	167465	responseSmallH	correct	n/a	0.46484	no	n/a	n/a
655.2304688	n/a	167739	largeHSmallH	error	congruent	0.44922	no	H	H
655.6796875	n/a	167854	responseSmallT	error	n/a	0.44922	no	n/a	n/a
656.75	n/a	168128	largeHSmallH	correct	congruent	0.49609	no	H	H
657.2460938	n/a	168255	responseSmallH	correct	n/a	0.49609	no	n/a	n/a
658.3085938	n/a	168527	largeTSmallT	correct	congruent	0.59375	no	T	T
658.9023438	n/a	168679	responseSmallT	correct	n/a	0.59375	no	n/a	n/a
659.9765625	n/a	168954	largeTSmallH	correct	incongruent	0.36719	no	T	H
660.34375	n/a	169048	responseSmallH	correct	n/a	0.36719	no	n/a	n/a
661.4179688	n/a	169323	largeHSmallT	correct	incongruent	0.46875	no	H	T
661.8867188	n/a	169443	responseSmallT	correct	n/a	0.46875	no	n/a	n/a
662.9648438	n/a	169719	largeTSmallT	correct	congruent	0.51562	no	T	T
663.4804688	n/a	169851	responseSmallT	correct	n/a	0.51562	no	n/a	n/a
664.5507812	n/a	170125	largeHSmallT	correct	incongruent	0.56641	no	H	T
665.1171875	n/a	170270	responseSmallT	correct	n/a	0.56641	no	n/a	n/a
666.1875	n/a	170544	largeHSmallH	correct	congruent	0.46094	no	H	H
666.6484375	n/a	170662	responseSmallH	correct	n/a	0.46094	no	n/a	n/a
667.7109375	n/a	170934	largeTSmallH	correct	incongruent	0.76172	no	T	H
668.4726562	n/a	171129	responseSmallH	correct	n/a	0.76172	no	n/a	n/a
669.5351562	n/a	171401	largeHSmallH	correct	congruent	0.54297	no	H	H
670.078125	n/a	171540	responseSmallH	correct	n/a	0.54297	no	n/a	n/a
671.1484375	n/a	171814	largeTSmallH	correct	incongruent	0.39844	no	T	H
671.546875	n/a	171916	responseSmallH	correct	n/a	0.39844	no	n/a	n/a
672.6171875	n/a	172190	largeTSmallH	correct	incongruent	0.40234	no	T	H
673.0195312	n/a	172293	responseSmallH	correct	n/a	0.40234	no	n/a	n/a
674.0976562	n/a	172569	largeHSmallH	correct	congruent	0.41406	no	H	H
674.5117188	n/a	172675	responseSmallH	correct	n/a	0.41406	no	n/a	n/a
675.5742188	n/a	172947	largeHSmallT	error	incongruent	0.34375	no	H	T
675.9179688	n/a	173035	responseSmallH	error	n/a	0.34375	no	n/a	n/a
676.9882812	n/a	173309	largeHSmallH	correct	congruent	0.45312	no	H	H
677.4414062	n/a	173425	responseSmallH	correct	n/a	0.45312	no	n/a	n/a
678.5078125	n/a	173698	largeHSmallT	correct	incongruent	0.41016	no	H	T
678.9179688	n/a	173803	responseSmallT	correct	n/a	0.41016	no	n/a	n/a
679.9882812	n/a	174077	largeTSmallT	correct	congruent	0.5625	no	T	T
680.5507812	n/a	174221	responseSmallT	correct	n/a	0.5625	no	n/a	n/a
681.6171875	n/a	174494	largeHSmallH	correct	congruent	0.42578	no	H	H
682.0429688	n/a	174603	responseSmallH	correct	n/a	0.42578	no	n/a	n/a
683.109375	n/a	174876	largeHSmallH	correct	congruent	0.51562	no	H	H
683.625	n/a	175008	responseSmallH	correct	n/a	0.51562	no	n/a	n/a
684.6835938	n/a	175279	largeTSmallT	correct	congruent	0.43359	no	T	T
685.1171875	n/a	175390	responseSmallT	correct	n/a	0.43359	no	n/a	n/a
686.1875	n/a	175664	largeHSmallT	correct	incongruent	0.5625	no	H	T
686.75	n/a	175808	responseSmallT	correct	n/a	0.5625	no	n/a	n/a
687.828125	n/a	176084	largeHSmallT	correct	incongruent	0.47656	no	H	T
688.3046875	n/a	176206	responseSmallT	correct	n/a	0.47656	no	n/a	n/a
689.375	n/a	176480	largeHSmallT	correct	incongruent	0.41406	no	H	T
689.7890625	n/a	176586	responseSmallT	correct	n/a	0.41406	no	n/a	n/a
690.8671875	n/a	176862	largeTSmallH	correct	incongruent	0.51953	no	T	H
691.3867188	n/a	176995	responseSmallH	correct	n/a	0.51953	no	n/a	n/a
692.4570312	n/a	177269	largeTSmallT	correct	congruent	0.375	no	T	T
692.8320312	n/a	177365	responseSmallT	correct	n/a	0.375	no	n/a	n/a
693.9101562	n/a	177641	largeTSmallH	correct	incongruent	0.39062	no	T	H
694.3007812	n/a	177741	responseSmallH	correct	n/a	0.39062	no	n/a	n/a
695.375	n/a	178016	largeHSmallH	correct	congruent	0.62109	no	H	H
695.9960938	n/a	178175	responseSmallH	correct	n/a	0.62109	no	n/a	n/a
697.0820312	n/a	178453	largeHSmallH	correct	congruent	0.45703	no	H	H
697.5390625	n/a	178570	responseSmallH	correct	n/a	0.45703	no	n/a	n/a
698.6015625	n/a	178842	largeHSmallT	correct	incongruent	0.48828	no	H	T
699.0898438	n/a	178967	responseSmallT	correct	n/a	0.48828	no	n/a	n/a
700.1601562	n/a	179241	largeTSmallH	correct	incongruent	0.38281	no	T	H
700.5429688	n/a	179339	responseSmallH	correct	n/a	0.38281	no	n/a	n/a
701.6132812	n/a	179613	largeTSmallT	error	congruent	0.45703	no	T	T
702.0703125	n/a	179730	responseSmallH	error	n/a	0.45703	no	n/a	n/a
711.0664062	n/a	182033	largeHSmallH	correct	congruent	0.85938	no	H	H
711.9257812	n/a	182253	responseLargeH	correct	n/a	0.85938	no	n/a	n/a
712.9882812	n/a	182525	largeHSmallT	error	incongruent	0.64453	no	H	T
713.6328125	n/a	182690	responseLargeT	error	n/a	0.64453	no	n/a	n/a
714.7070312	n/a	182965	largeHSmallT	error	incongruent	0.59766	no	H	T
715.3046875	n/a	183118	responseLargeT	error	n/a	0.59766	no	n/a	n/a
716.375	n/a	183392	largeHSmallH	correct	congruent	1	no	H	H
717.375	n/a	183648	responseLargeH	correct	n/a	1	no	n/a	n/a
718.4414062	n/a	183921	largeHSmallT	correct	incongruent	0.71875	no	H	T
719.1601562	n/a	184105	responseLargeH	correct	n/a	0.71875	no	n/a	n/a
720.2265625	n/a	184378	largeTSmallH	correct	incongruent	0.64844	no	T	H
720.875	n/a	184544	responseLargeT	correct	n/a	0.64844	no	n/a	n/a
721.9492188	n/a	184819	largeHSmallT	correct	incongruent	0.71875	no	H	T
722.6679688	n/a	185003	responseLargeH	correct	n/a	0.71875	no	n/a	n/a
723.734375	n/a	185276	largeTSmallH	correct	incongruent	0.64844	no	T	H
724.3828125	n/a	185442	responseLargeT	correct	n/a	0.64844	no	n/a	n/a
725.453125	n/a	185716	largeHSmallT	correct	incongruent	0.63281	no	H	T
726.0859375	n/a	185878	responseLargeH	correct	n/a	0.63281	no	n/a	n/a
727.1484375	n/a	186150	largeHSmallH	correct	congruent	0.52734	no	H	H
727.6757812	n/a	186285	responseLargeH	correct	n/a	0.52734	no	n/a	n/a
728.7460938	n/a	186559	largeHSmallT	correct	incongruent	0.45703	no	H	T
729.203125	n/a	186676	responseLargeH	correct	n/a	0.45703	no	n/a	n/a
730.2695312	n/a	186949	largeTSmallT	correct	congruent	0.46875	no	T	T
730.7382812	n/a	187069	responseLargeT	correct	n/a	0.46875	no	n/a	n/a
731.8007812	n/a	187341	largeHSmallT	correct	incongruent	0.43359	no	H	T
732.234375	n/a	187452	responseLargeH	correct	n/a	0.43359	no	n/a	n/a
733.2929688	n/a	187723	largeHSmallT	correct	incongruent	0.58594	no	H	T
733.8789062	n/a	187873	responseLargeH	correct	n/a	0.58594	no	n/a	n/a
734.9492188	n/a	188147	largeHSmallT	correct	incongruent	0.46094	no	H	T
735.4101562	n/a	188265	responseLargeH	correct	n/a	0.46094	no	n/a	n/a
736.4804688	n/a	188539	largeHSmallH	correct	congruent	0.51562	no	H	H
736.9960938	n/a	188671	responseLargeH	correct	n/a	0.51562	no	n/a	n/a
738.0664062	n/a	188945	largeTSmallT	correct	congruent	0.47266	no	T	T
738.5390625	n/a	189066	responseLargeT	correct	n/a	0.47266	no	n/a	n/a
739.6015625	n/a	189338	largeTSmallH	error	incongruent	0.375	no	T	H
739.9765625	n/a	189434	responseLargeH	error	n/a	0.375	no	n/a	n/a
741.0546875	n/a	189710	largeHSmallT	correct	incongruent	0.77344	no	H	T
741.828125	n/a	189908	responseLargeH	correct	n/a	0.77344	no	n/a	n/a
742.8945312	n/a	190181	largeTSmallH	correct	incongruent	0.41797	no	T	H
743.3125	n/a	190288	responseLargeT	correct	n/a	0.41797	no	n/a	n/a
744.375	n/a	190560	largeTSmallH	correct	incongruent	0.65234	no	T	H
745.0273438	n/a	190727	responseLargeT	correct	n/a	0.65234	no	n/a	n/a
746.09375	n/a	191000	largeHSmallT	correct	incongruent	0.56641	no	H	T
746.6601562	n/a	191145	responseLargeH	correct	n/a	0.56641	no	n/a	n/a
747.734375	n/a	191420	largeHSmallT	correct	incongruent	0.58203	no	H	T
748.3164062	n/a	191569	responseLargeH	correct	n/a	0.58203	no	n/a	n/a
749.3867188	n/a	191843	largeTSmallH	correct	incongruent	0.47656	no	T	H
749.8632812	n/a	191965	responseLargeT	correct	n/a	0.47656	no	n/a	n/a
750.9335938	n/a	192239	largeTSmallH	correct	incongruent	0.58594	no	T	H
751.5195312	n/a	192389	responseLargeT	correct	n/a	0.58594	no	n/a	n/a
752.6015625	n/a	192666	largeHSmallH	correct	congruent	0.46094	no	H	H
753.0625	n/a	192784	responseLargeH	correct	n/a	0.46094	no	n/a	n/a
754.1484375	n/a	193062	largeTSmallH	correct	incongruent	0.37109	no	T	H
754.5195312	n/a	193157	responseLargeT	correct	n/a	0.37109	no	n/a	n/a
755.5859375	n/a	193430	largeTSmallT	correct	congruent	0.58984	no	T	T
756.1757812	n/a	193581	responseLargeT	correct	n/a	0.58984	no	n/a	n/a
757.2421875	n/a	193854	largeTSmallH	correct	incongruent	0.44531	no	T	H
757.6875	n/a	193968	responseLargeT	correct	n/a	0.44531	no	n/a	n/a
758.7617188	n/a	194243	largeTSmallT	error	congruent	0.51953	no	T	T
759.28125	n/a	194376	responseLargeH	error	n/a	0.51953	no	n/a	n/a
760.3476562	n/a	194649	largeHSmallT	correct	incongruent	0.54688	no	H	T
760.8945312	n/a	194789	responseLargeH	correct	n/a	0.54688	no	n/a	n/a
761.9726562	n/a	195065	largeTSmallH	correct	incongruent	0.46484	no	T	H
762.4375	n/a	195184	responseLargeT	correct	n/a	0.46484	no	n/a	n/a
763.5078125	n/a	195458	largeHSmallH	correct	congruent	0.5	no	H	H
764.0078125	n/a	195586	responseLargeH	correct	n/a	0.5	no	n/a	n/a
765.0820312	n/a	195861	largeTSmallH	correct	incongruent	0.35547	no	T	H
765.4375	n/a	195952	responseLargeT	correct	n/a	0.35547	no	n/a	n/a
766.5078125	n/a	196226	largeHSmallH	correct	congruent	0.44141	no	H	H
766.9492188	n/a	196339	responseLargeH	correct	n/a	0.44141	no	n/a	n/a
768.0273438	n/a	196615	largeHSmallT	error	incongruent	0.35547	no	H	T
768.3828125	n/a	196706	responseLargeT	error	n/a	0.35547	no	n/a	n/a
769.453125	n/a	196980	largeTSmallH	correct	incongruent	0.63672	no	T	H
770.0898438	n/a	197143	responseLargeT	correct	n/a	0.63672	no	n/a	n/a
771.1601562	n/a	197417	largeHSmallT	correct	incongruent	0.38281	no	H	T
771.5429688	n/a	197515	responseLargeH	correct	n/a	0.38281	no	n/a	n/a
772.6132812	n/a	197789	largeTSmallT	correct	congruent	0.44141	no	T	T
773.0546875	n/a	197902	responseLargeT	correct	n/a	0.44141	no	n/a	n/a
774.1210938	n/a	198175	largeTSmallH	correct	incongruent	0.61328	no	T	H
774.734375	n/a	198332	responseLargeT	correct	n/a	0.61328	no	n/a	n/a
775.8125	n/a	198608	largeTSmallT	correct	congruent	0.43359	no	T	T
776.2460938	n/a	198719	responseLargeT	correct	n/a	0.43359	no	n/a	n/a
777.3203125	n/a	198994	largeTSmallT	correct	congruent	0.42969	no	T	T
777.75	n/a	199104	responseLargeT	correct	n/a	0.42969	no	n/a	n/a
778.828125	n/a	199380	largeTSmallT	correct	congruent	0.57031	no	T	T
779.3984375	n/a	199526	responseLargeT	correct	n/a	0.57031	no	n/a	n/a
780.4804688	n/a	199803	largeHSmallH	correct	congruent	0.51953	no	H	H
781	n/a	199936	responseLargeH	correct	n/a	0.51953	no	n/a	n/a
782.0664062	n/a	200209	largeTSmallT	correct	congruent	0.41406	no	T	T
782.4804688	n/a	200315	responseLargeT	correct	n/a	0.41406	no	n/a	n/a
783.546875	n/a	200588	largeTSmallH	correct	incongruent	0.50391	no	T	H
784.0507812	n/a	200717	responseLargeT	correct	n/a	0.50391	no	n/a	n/a
785.1210938	n/a	200991	largeHSmallT	correct	incongruent	0.45703	no	H	T
785.578125	n/a	201108	responseLargeH	correct	n/a	0.45703	no	n/a	n/a
786.6523438	n/a	201383	largeTSmallT	correct	congruent	0.42578	no	T	T
787.078125	n/a	201492	responseLargeT	correct	n/a	0.42578	no	n/a	n/a
788.1445312	n/a	201765	largeTSmallH	correct	incongruent	0.44922	no	T	H
788.59375	n/a	201880	responseLargeT	correct	n/a	0.44922	no	n/a	n/a
789.6679688	n/a	202155	largeTSmallT	correct	congruent	0.42969	no	T	T
790.0976562	n/a	202265	responseLargeT	correct	n/a	0.42969	no	n/a	n/a
791.171875	n/a	202540	largeHSmallT	correct	incongruent	0.50781	no	H	T
791.6796875	n/a	202670	responseLargeH	correct	n/a	0.50781	no	n/a	n/a
792.7460938	n/a	202943	largeHSmallH	correct	congruent	0.57422	no	H	H
793.3203125	n/a	203090	responseLargeH	correct	n/a	0.57422	no	n/a	n/a
794.3867188	n/a	203363	largeHSmallH	correct	congruent	0.44531	no	H	H
794.8320312	n/a	203477	responseLargeH	correct	n/a	0.44531	no	n/a	n/a
795.90625	n/a	203752	largeHSmallH	correct	congruent	0.44141	no	H	H
796.3476562	n/a	203865	responseLargeH	correct	n/a	0.44141	no	n/a	n/a
797.4140625	n/a	204138	largeTSmallH	error	incongruent	0.42578	no	T	H
797.8398438	n/a	204247	responseLargeH	error	n/a	0.42578	no	n/a	n/a
798.9179688	n/a	204523	largeHSmallT	correct	incongruent	0.57031	no	H	T
799.4882812	n/a	204669	responseLargeH	correct	n/a	0.57031	no	n/a	n/a
800.5742188	n/a	204947	largeHSmallT	correct	incongruent	0.57031	no	H	T
801.1445312	n/a	205093	responseLargeH	correct	n/a	0.57031	no	n/a	n/a
802.2265625	n/a	205370	largeTSmallT	correct	congruent	0.51953	no	T	T
802.7460938	n/a	205503	responseLargeT	correct	n/a	0.51953	no	n/a	n/a
803.8125	n/a	205776	largeTSmallH	correct	incongruent	0.57812	no	T	H
804.390625	n/a	205924	responseLargeT	correct	n/a	0.57812	no	n/a	n/a
805.4648438	n/a	206199	largeHSmallT	correct	incongruent	0.56641	no	H	T
806.03125	n/a	206344	responseLargeH	correct	n/a	0.56641	no	n/a	n/a
807.1054688	n/a	206619	largeTSmallH	correct	incongruent	0.38281	no	T	H
807.4882812	n/a	206717	responseLargeT	correct	n/a	0.38281	no	n/a	n/a
808.5585938	n/a	206991	largeTSmallH	correct	incongruent	0.57031	no	T	H
809.1289062	n/a	207137	responseLargeT	correct	n/a	0.57031	no	n/a	n/a
810.2109375	n/a	207414	largeHSmallT	correct	incongruent	0.38672	no	H	T
810.5976562	n/a	207513	responseLargeH	correct	n/a	0.38672	no	n/a	n/a
811.6796875	n/a	207790	largeTSmallH	correct	incongruent	0.42188	no	T	H
812.1015625	n/a	207898	responseLargeT	correct	n/a	0.42188	no	n/a	n/a
813.171875	n/a	208172	largeTSmallT	correct	congruent	0.40234	no	T	T
813.5742188	n/a	208275	responseLargeT	correct	n/a	0.40234	no	n/a	n/a
814.6523438	n/a	208551	largeHSmallH	correct	congruent	0.41797	no	H	H
815.0703125	n/a	208658	responseLargeH	correct	n/a	0.41797	no	n/a	n/a
816.1328125	n/a	208930	largeTSmallH	correct	incongruent	0.35547	no	T	H
816.4882812	n/a	209021	responseLargeT	correct	n/a	0.35547	no	n/a	n/a
817.5585938	n/a	209295	largeTSmallT	error	congruent	0.33203	no	T	T
817.890625	n/a	209380	responseLargeH	error	n/a	0.33203	no	n/a	n/a
818.9570312	n/a	209653	largeHSmallH	correct	congruent	0.48828	no	H	H
819.4453125	n/a	209778	responseLargeH	correct	n/a	0.48828	no	n/a	n/a
820.5195312	n/a	210053	largeHSmallT	correct	incongruent	0.61328	no	H	T
821.1328125	n/a	210210	responseLargeH	correct	n/a	0.61328	no	n/a	n/a
822.1992188	n/a	210483	largeTSmallH	correct	incongruent	0.45312	no	T	H
822.6523438	n/a	210599	responseLargeT	correct	n/a	0.45312	no	n/a	n/a
823.71875	n/a	210872	largeTSmallH	error	incongruent	0.48438	no	T	H
824.203125	n/a	210996	responseLargeH	error	n/a	0.48438	no	n/a	n/a
825.2773438	n/a	211271	largeHSmallT	correct	incongruent	0.52344	no	H	T
825.8007812	n/a	211405	responseLargeH	correct	n/a	0.52344	no	n/a	n/a
826.8671875	n/a	211678	largeHSmallH	error	congruent	0.31641	no	H	H
827.1835938	n/a	211759	responseLargeT	error	n/a	0.31641	no	n/a	n/a
828.2539062	n/a	212033	largeHSmallH	correct	congruent	0.36328	no	H	H
828.6171875	n/a	212126	responseLargeH	correct	n/a	0.36328	no	n/a	n/a
829.6914062	n/a	212401	largeTSmallT	correct	congruent	0.57422	no	T	T
830.265625	n/a	212548	responseLargeT	correct	n/a	0.57422	no	n/a	n/a
831.3320312	n/a	212821	largeTSmallT	correct	congruent	0.53516	no	T	T
831.8671875	n/a	212958	responseLargeT	correct	n/a	0.53516	no	n/a	n/a
832.9335938	n/a	213231	largeTSmallH	correct	incongruent	0.375	no	T	H
833.3085938	n/a	213327	responseLargeT	correct	n/a	0.375	no	n/a	n/a
834.3867188	n/a	213603	largeTSmallH	correct	incongruent	0.42969	no	T	H
834.8164062	n/a	213713	responseLargeT	correct	n/a	0.42969	no	n/a	n/a
835.8789062	n/a	213985	largeTSmallT	correct	congruent	0.48438	no	T	T
836.3632812	n/a	214109	responseLargeT	correct	n/a	0.48438	no	n/a	n/a
837.4257812	n/a	214381	largeTSmallT	correct	congruent	0.4375	no	T	T
837.8632812	n/a	214493	responseLargeT	correct	n/a	0.4375	no	n/a	n/a
838.9296875	n/a	214766	largeHSmallH	correct	congruent	0.46094	no	H	H
839.390625	n/a	214884	responseLargeH	correct	n/a	0.46094	no	n/a	n/a
840.453125	n/a	215156	largeTSmallH	correct	incongruent	0.32422	no	T	H
840.7773438	n/a	215239	responseLargeT	correct	n/a	0.32422	no	n/a	n/a
841.8398438	n/a	215511	largeTSmallT	correct	congruent	0.45703	no	T	T
842.296875	n/a	215628	responseLargeT	correct	n/a	0.45703	no	n/a	n/a
843.3710938	n/a	215903	largeHSmallT	correct	incongruent	0.51562	no	H	T
843.8867188	n/a	216035	responseLargeH	correct	n/a	0.51562	no	n/a	n/a
844.9453125	n/a	216306	largeTSmallT	correct	congruent	0.33203	no	T	T
845.2773438	n/a	216391	responseLargeT	correct	n/a	0.33203	no	n/a	n/a
846.359375	n/a	216668	largeTSmallT	correct	congruent	0.37109	no	T	T
846.7304688	n/a	216763	responseLargeT	correct	n/a	0.37109	no	n/a	n/a
847.796875	n/a	217036	largeTSmallT	correct	congruent	0.42188	no	T	T
848.21875	n/a	217144	responseLargeT	correct	n/a	0.42188	no	n/a	n/a
849.2929688	n/a	217419	largeTSmallT	correct	congruent	0.53906	no	T	T
849.8320312	n/a	217557	responseLargeT	correct	n/a	0.53906	no	n/a	n/a
850.90625	n/a	217832	largeHSmallH	correct	congruent	0.50781	no	H	H
851.4140625	n/a	217962	responseLargeH	correct	n/a	0.50781	no	n/a	n/a
852.4765625	n/a	218234	largeHSmallT	correct	incongruent	0.61328	no	H	T
853.0898438	n/a	218391	responseLargeH	correct	n/a	0.61328	no	n/a	n/a
854.15625	n/a	218664	largeHSmallH	correct	congruent	0.58203	no	H	H
854.7382812	n/a	218813	responseLargeH	correct	n/a	0.58203	no	n/a	n/a
855.8125	n/a	219088	largeHSmallH	correct	congruent	0.99609	no	H	H
856.8085938	n/a	219343	responseLargeH	correct	n/a	0.99609	no	n/a	n/a
857.8789062	n/a	219617	largeTSmallH	correct	incongruent	0.625	no	T	H
858.5039062	n/a	219777	responseLargeT	correct	n/a	0.625	no	n/a	n/a
859.5859375	n/a	220054	largeTSmallT	correct	congruent	0.52734	no	T	T
860.1132812	n/a	220189	responseLargeT	correct	n/a	0.52734	no	n/a	n/a
861.1835938	n/a	220463	largeHSmallH	correct	congruent	0.43359	no	H	H
861.6171875	n/a	220574	responseLargeH	correct	n/a	0.43359	no	n/a	n/a
862.6914062	n/a	220849	largeTSmallT	correct	congruent	0.45703	no	T	T
863.1484375	n/a	220966	responseLargeT	correct	n/a	0.45703	no	n/a	n/a
864.2109375	n/a	221238	largeHSmallH	correct	congruent	0.4375	no	H	H
864.6484375	n/a	221350	responseLargeH	correct	n/a	0.4375	no	n/a	n/a
865.71875	n/a	221624	largeTSmallT	correct	congruent	0.39844	no	T	T
866.1171875	n/a	221726	responseLargeT	correct	n/a	0.39844	no	n/a	n/a
867.1992188	n/a	222003	largeTSmallT	correct	congruent	0.47266	no	T	T
867.671875	n/a	222124	responseLargeT	correct	n/a	0.47266	no	n/a	n/a
868.7460938	n/a	222399	largeHSmallH	correct	congruent	0.46875	no	H	H
869.2148438	n/a	222519	responseLargeH	correct	n/a	0.46875	no	n/a	n/a
870.2773438	n/a	222791	largeHSmallT	correct	incongruent	0.47656	no	H	T
870.7539062	n/a	222913	responseLargeH	correct	n/a	0.47656	no	n/a	n/a
871.8242188	n/a	223187	largeTSmallH	correct	incongruent	0.44141	no	T	H
872.265625	n/a	223300	responseLargeT	correct	n/a	0.44141	no	n/a	n/a
873.34375	n/a	223576	largeHSmallT	correct	incongruent	0.40625	no	H	T
873.75	n/a	223680	responseLargeH	correct	n/a	0.40625	no	n/a	n/a
874.8242188	n/a	223955	largeHSmallH	error	congruent	0.32422	no	H	H
875.1484375	n/a	224038	responseLargeT	error	n/a	0.32422	no	n/a	n/a
876.2226562	n/a	224313	largeHSmallH	correct	congruent	0.47656	no	H	H
876.6992188	n/a	224435	responseLargeH	correct	n/a	0.47656	no	n/a	n/a
877.7695312	n/a	224709	largeTSmallH	correct	incongruent	0.57031	no	T	H
878.3398438	n/a	224855	responseLargeT	correct	n/a	0.57031	no	n/a	n/a
879.4101562	n/a	225129	largeTSmallH	correct	incongruent	0.55859	no	T	H
879.96875	n/a	225272	responseLargeT	correct	n/a	0.55859	no	n/a	n/a
881.0507812	n/a	225549	largeTSmallT	correct	congruent	0.48438	no	T	T
881.5351562	n/a	225673	responseLargeT	correct	n/a	0.48438	no	n/a	n/a
882.609375	n/a	225948	largeHSmallH	correct	congruent	0.51953	no	H	H
883.1289062	n/a	226081	responseLargeH	correct	n/a	0.51953	no	n/a	n/a
884.1953125	n/a	226354	largeHSmallT	correct	incongruent	0.61328	no	H	T
884.8085938	n/a	226511	responseLargeH	correct	n/a	0.61328	no	n/a	n/a
885.890625	n/a	226788	largeHSmallT	correct	incongruent	0.48438	no	H	T
886.375	n/a	226912	responseLargeH	correct	n/a	0.48438	no	n/a	n/a
887.4375	n/a	227184	largeHSmallT	correct	incongruent	0.42969	no	H	T
887.8671875	n/a	227294	responseLargeH	correct	n/a	0.42969	no	n/a	n/a
888.9453125	n/a	227570	largeHSmallT	correct	incongruent	0.43359	no	H	T
889.3789062	n/a	227681	responseLargeH	correct	n/a	0.43359	no	n/a	n/a
890.4492188	n/a	227955	largeHSmallT	correct	incongruent	0.4375	no	H	T
890.8867188	n/a	228067	responseLargeH	correct	n/a	0.4375	no	n/a	n/a
891.9570312	n/a	228341	largeTSmallT	correct	congruent	0.55469	no	T	T
892.5117188	n/a	228483	responseLargeT	correct	n/a	0.55469	no	n/a	n/a
893.5976562	n/a	228761	largeHSmallT	correct	incongruent	0.4375	no	H	T
894.0351562	n/a	228873	responseLargeH	correct	n/a	0.4375	no	n/a	n/a
895.1054688	n/a	229147	largeHSmallH	correct	congruent	0.46875	no	H	H
895.5742188	n/a	229267	responseLargeH	correct	n/a	0.46875	no	n/a	n/a
896.6484375	n/a	229542	largeTSmallT	correct	congruent	0.51953	no	T	T
897.1679688	n/a	229675	responseLargeT	correct	n/a	0.51953	no	n/a	n/a
898.2382812	n/a	229949	largeHSmallH	correct	congruent	0.46875	no	H	H
898.7070312	n/a	230069	responseLargeH	correct	n/a	0.46875	no	n/a	n/a
899.7851562	n/a	230345	largeTSmallT	correct	congruent	0.44531	no	T	T
900.2304688	n/a	230459	responseLargeT	correct	n/a	0.44531	no	n/a	n/a
901.3046875	n/a	230734	largeTSmallH	error	incongruent	0.36328	no	T	H
901.6679688	n/a	230827	responseLargeH	error	n/a	0.36328	no	n/a	n/a
902.7421875	n/a	231102	largeHSmallH	correct	congruent	0.42969	no	H	H
903.171875	n/a	231212	responseLargeH	correct	n/a	0.42969	no	n/a	n/a
904.25	n/a	231488	largeTSmallT	correct	congruent	0.40234	no	T	T
904.6523438	n/a	231591	responseLargeT	correct	n/a	0.40234	no	n/a	n/a
905.7304688	n/a	231867	largeHSmallT	correct	incongruent	0.57812	no	H	T
906.3085938	n/a	232015	responseLargeH	correct	n/a	0.57812	no	n/a	n/a
907.3828125	n/a	232290	largeHSmallH	correct	congruent	0.57031	no	H	H
907.953125	n/a	232436	responseLargeH	correct	n/a	0.57031	no	n/a	n/a
909.0234375	n/a	232710	largeTSmallT	correct	congruent	0.44141	no	T	T
909.4648438	n/a	232823	responseLargeT	correct	n/a	0.44141	no	n/a	n/a
910.53125	n/a	233096	largeHSmallT	correct	incongruent	0.44531	no	H	T
910.9765625	n/a	233210	responseLargeH	correct	n/a	0.44531	no	n/a	n/a
912.0507812	n/a	233485	largeTSmallT	correct	congruent	0.47656	no	T	T
912.5273438	n/a	233607	responseLargeT	correct	n/a	0.47656	no	n/a	n/a
913.609375	n/a	233884	largeTSmallT	correct	congruent	0.53516	no	T	T
914.1445312	n/a	234021	responseLargeT	correct	n/a	0.53516	no	n/a	n/a
915.2109375	n/a	234294	largeTSmallH	correct	incongruent	0.57422	no	T	H
915.7851562	n/a	234441	responseLargeT	correct	n/a	0.57422	no	n/a	n/a
916.8515625	n/a	234714	largeHSmallH	correct	congruent	0.43359	no	H	H
917.2851562	n/a	234825	responseLargeH	correct	n/a	0.43359	no	n/a	n/a
918.34375	n/a	235096	largeTSmallH	correct	incongruent	0.35547	no	T	H
918.6992188	n/a	235187	responseLargeT	correct	n/a	0.35547	no	n/a	n/a
919.7695312	n/a	235461	largeTSmallT	correct	congruent	0.55078	no	T	T
920.3203125	n/a	235602	responseLargeT	correct	n/a	0.55078	no	n/a	n/a
921.3945312	n/a	235877	largeHSmallH	correct	congruent	0.48047	no	H	H
921.875	n/a	236000	responseLargeH	correct	n/a	0.48047	no	n/a	n/a
922.9414062	n/a	236273	largeHSmallT	correct	incongruent	0.51172	no	H	T
923.453125	n/a	236404	responseLargeH	correct	n/a	0.51172	no	n/a	n/a
924.53125	n/a	236680	largeTSmallH	correct	incongruent	0.48828	no	T	H
925.0195312	n/a	236805	responseLargeT	correct	n/a	0.48828	no	n/a	n/a
926.0898438	n/a	237079	largeHSmallT	correct	incongruent	0.46484	no	H	T
926.5546875	n/a	237198	responseLargeH	correct	n/a	0.46484	no	n/a	n/a
927.6210938	n/a	237471	largeTSmallH	correct	incongruent	0.30859	no	T	H
927.9296875	n/a	237550	responseLargeT	correct	n/a	0.30859	no	n/a	n/a
928.9960938	n/a	237823	largeTSmallT	correct	congruent	0.50391	no	T	T
929.5	n/a	237952	responseLargeT	correct	n/a	0.50391	no	n/a	n/a
930.5820312	n/a	238229	largeHSmallT	correct	incongruent	0.42578	no	H	T
931.0078125	n/a	238338	responseLargeH	correct	n/a	0.42578	no	n/a	n/a
932.0742188	n/a	238611	largeTSmallT	correct	congruent	0.39062	no	T	T
932.4648438	n/a	238711	responseLargeT	correct	n/a	0.39062	no	n/a	n/a
933.5429688	n/a	238987	largeTSmallT	correct	congruent	0.50391	no	T	T
934.046875	n/a	239116	responseLargeT	correct	n/a	0.50391	no	n/a	n/a
935.1171875	n/a	239390	largeHSmallH	correct	congruent	0.39844	no	H	H
935.515625	n/a	239492	responseLargeH	correct	n/a	0.39844	no	n/a	n/a
936.5820312	n/a	239765	largeTSmallT	correct	congruent	0.35156	no	T	T
936.9335938	n/a	239855	responseLargeT	correct	n/a	0.35156	no	n/a	n/a
938.0078125	n/a	240130	largeTSmallH	correct	incongruent	0.39453	no	T	H
938.4023438	n/a	240231	responseLargeT	correct	n/a	0.39453	no	n/a	n/a
939.4609375	n/a	240502	largeHSmallT	correct	incongruent	0.38281	no	H	T
939.84375	n/a	240600	responseLargeH	correct	n/a	0.38281	no	n/a	n/a
940.9140625	n/a	240874	largeTSmallT	correct	congruent	0.32812	no	T	T
941.2421875	n/a	240958	responseLargeT	correct	n/a	0.32812	no	n/a	n/a
942.3007812	n/a	241229	largeTSmallH	correct	incongruent	0.62891	no	T	H
942.9296875	n/a	241390	responseLargeT	correct	n/a	0.62891	no	n/a	n/a
944.0078125	n/a	241666	largeHSmallH	correct	congruent	0.4375	no	H	H
944.4453125	n/a	241778	responseLargeH	correct	n/a	0.4375	no	n/a	n/a
945.5273438	n/a	242055	largeTSmallH	correct	incongruent	0.35547	no	T	H
945.8828125	n/a	242146	responseLargeT	correct	n/a	0.35547	no	n/a	n/a
946.9570312	n/a	242421	largeTSmallH	correct	incongruent	0.61719	no	T	H
947.5742188	n/a	242579	responseLargeT	correct	n/a	0.61719	no	n/a	n/a
948.6484375	n/a	242854	largeHSmallT	correct	incongruent	0.58984	no	H	T
949.2382812	n/a	243005	responseLargeH	correct	n/a	0.58984	no	n/a	n/a
950.3164062	n/a	243281	largeHSmallH	error	congruent	0.36719	no	H	H
950.6835938	n/a	243375	responseLargeT	error	n/a	0.36719	no	n/a	n/a
951.7421875	n/a	243646	largeTSmallH	correct	incongruent	0.5	no	T	H
952.2421875	n/a	243774	responseLargeT	correct	n/a	0.5	no	n/a	n/a
953.3007812	n/a	244045	largeHSmallH	correct	congruent	0.35938	no	H	H
953.6601562	n/a	244137	responseLargeH	correct	n/a	0.35938	no	n/a	n/a
954.7304688	n/a	244411	largeTSmallH	correct	incongruent	0.48047	no	T	H
955.2109375	n/a	244534	responseLargeT	correct	n/a	0.48047	no	n/a	n/a
956.2890625	n/a	244810	largeTSmallH	correct	incongruent	0.53516	no	T	H
956.8242188	n/a	244947	responseLargeT	correct	n/a	0.53516	no	n/a	n/a
957.8867188	n/a	245219	largeTSmallH	correct	incongruent	0.39844	no	T	H
958.2851562	n/a	245321	responseLargeT	correct	n/a	0.39844	no	n/a	n/a
959.3554688	n/a	245595	largeTSmallH	correct	incongruent	0.44531	no	T	H
959.8007812	n/a	245709	responseLargeT	correct	n/a	0.44531	no	n/a	n/a
960.875	n/a	245984	largeHSmallH	correct	congruent	0.41797	no	H	H
961.2929688	n/a	246091	responseLargeH	correct	n/a	0.41797	no	n/a	n/a
962.3671875	n/a	246366	largeTSmallH	correct	incongruent	0.33594	no	T	H
962.703125	n/a	246452	responseLargeT	correct	n/a	0.33594	no	n/a	n/a
963.78125	n/a	246728	largeTSmallT	error	congruent	0.33984	no	T	T
964.1210938	n/a	246815	responseLargeH	error	n/a	0.33984	no	n/a	n/a
965.1953125	n/a	247090	largeHSmallT	correct	incongruent	0.43359	no	H	T
965.6289062	n/a	247201	responseLargeH	correct	n/a	0.43359	no	n/a	n/a
966.6875	n/a	247472	largeHSmallT	error	incongruent	0.35938	no	H	T
967.046875	n/a	247564	responseLargeT	error	n/a	0.35938	no	n/a	n/a
968.1132812	n/a	247837	largeHSmallH	correct	congruent	0.58203	no	H	H
968.6953125	n/a	247986	responseLargeH	correct	n/a	0.58203	no	n/a	n/a
969.7695312	n/a	248261	largeHSmallT	error	incongruent	0.40234	no	H	T
970.171875	n/a	248364	responseLargeT	error	n/a	0.40234	no	n/a	n/a
971.25	n/a	248640	largeHSmallH	correct	congruent	0.51953	no	H	H
971.7695312	n/a	248773	responseLargeH	correct	n/a	0.51953	no	n/a	n/a
972.8359375	n/a	249046	largeHSmallT	correct	incongruent	0.48047	no	H	T
973.3164062	n/a	249169	responseLargeH	correct	n/a	0.48047	no	n/a	n/a
974.3828125	n/a	249442	largeHSmallH	correct	congruent	0.375	no	H	H
974.7578125	n/a	249538	responseLargeH	correct	n/a	0.375	no	n/a	n/a
975.8359375	n/a	249814	largeTSmallT	error	congruent	0.35938	no	T	T
976.1953125	n/a	249906	responseLargeH	error	n/a	0.35938	no	n/a	n/a
977.2617188	n/a	250179	largeHSmallT	correct	incongruent	0.625	no	H	T
977.8867188	n/a	250339	responseLargeH	correct	n/a	0.625	no	n/a	n/a
978.953125	n/a	250612	largeHSmallT	correct	incongruent	0.4375	no	H	T
979.390625	n/a	250724	responseLargeH	correct	n/a	0.4375	no	n/a	n/a
980.4609375	n/a	250998	largeTSmallT	correct	congruent	0.58594	no	T	T
981.046875	n/a	251148	responseLargeT	correct	n/a	0.58594	no	n/a	n/a
982.1132812	n/a	251421	largeHSmallT	correct	incongruent	0.44531	no	H	T
982.5585938	n/a	251535	responseLargeH	correct	n/a	0.44531	no	n/a	n/a
983.6328125	n/a	251810	largeHSmallT	correct	incongruent	0.44531	no	H	T
984.078125	n/a	251924	responseLargeH	correct	n/a	0.44531	no	n/a	n/a
985.140625	n/a	252196	largeHSmallH	correct	congruent	0.44141	no	H	H
985.5820312	n/a	252309	responseLargeH	correct	n/a	0.44141	no	n/a	n/a
986.6601562	n/a	252585	largeHSmallH	correct	congruent	0.40625	no	H	H
987.0664062	n/a	252689	responseLargeH	correct	n/a	0.40625	no	n/a	n/a
988.140625	n/a	252964	largeHSmallH	correct	congruent	0.38281	no	H	H
988.5234375	n/a	253062	responseLargeH	correct	n/a	0.38281	no	n/a	n/a
989.59375	n/a	253336	largeTSmallT	correct	congruent	0.52734	no	T	T
990.1210938	n/a	253471	responseLargeT	correct	n/a	0.52734	no	n/a	n/a
991.1796875	n/a	253742	largeTSmallH	error	incongruent	0.33594	no	T	H
991.515625	n/a	253828	responseLargeH	error	n/a	0.33594	no	n/a	n/a
992.59375	n/a	254104	largeTSmallT	correct	congruent	0.57031	no	T	T
993.1640625	n/a	254250	responseLargeT	correct	n/a	0.57031	no	n/a	n/a
994.2460938	n/a	254527	largeTSmallH	correct	incongruent	0.51172	no	T	H
994.7578125	n/a	254658	responseLargeT	correct	n/a	0.51172	no	n/a	n/a
995.8359375	n/a	254934	largeTSmallT	correct	congruent	0.36719	no	T	T
996.203125	n/a	255028	responseLargeT	correct	n/a	0.36719	no	n/a	n/a
997.2890625	n/a	255306	largeHSmallT	correct	incongruent	0.56641	no	H	T
997.8554688	n/a	255451	responseLargeH	correct	n/a	0.56641	no	n/a	n/a
998.9257812	n/a	255725	largeHSmallH	error	congruent	0.50781	no	H	H
999.4335938	n/a	255855	responseLargeT	error	n/a	0.50781	no	n/a	n/a
1000.5	n/a	256128	largeTSmallH	correct	incongruent	0.58203	no	T	H
1001.082031	n/a	256277	responseLargeT	correct	n/a	0.58203	no	n/a	n/a
1002.152344	n/a	256551	largeTSmallH	correct	incongruent	0.59375	no	T	H
1002.746094	n/a	256703	responseLargeT	correct	n/a	0.59375	no	n/a	n/a
1003.820312	n/a	256978	largeTSmallH	correct	incongruent	0.59375	no	T	H
1004.414062	n/a	257130	responseLargeT	correct	n/a	0.59375	no	n/a	n/a
1005.488281	n/a	257405	largeHSmallH	correct	congruent	0.45312	no	H	H
1005.941406	n/a	257521	responseLargeH	correct	n/a	0.45312	no	n/a	n/a
1007.019531	n/a	257797	largeTSmallT	correct	congruent	0.39453	no	T	T
1007.414062	n/a	257898	responseLargeT	correct	n/a	0.39453	no	n/a	n/a
1008.488281	n/a	258173	largeHSmallH	correct	congruent	0.41016	no	H	H
1008.898438	n/a	258278	responseLargeH	correct	n/a	0.41016	no	n/a	n/a
1009.96875	n/a	258552	largeTSmallT	correct	congruent	0.39844	no	T	T
1010.367188	n/a	258654	responseLargeT	correct	n/a	0.39844	no	n/a	n/a
1011.433594	n/a	258927	largeHSmallT	correct	incongruent	0.36719	no	H	T
1011.800781	n/a	259021	responseLargeH	correct	n/a	0.36719	no	n/a	n/a
1012.859375	n/a	259292	largeHSmallH	correct	congruent	0.5	no	H	H
1013.359375	n/a	259420	responseLargeH	correct	n/a	0.5	no	n/a	n/a
1014.421875	n/a	259692	largeHSmallH	correct	congruent	0.5	no	H	H
1014.921875	n/a	259820	responseLargeH	correct	n/a	0.5	no	n/a	n/a
1015.992188	n/a	260094	largeHSmallH	correct	congruent	0.48047	no	H	H
1016.472656	n/a	260217	responseLargeH	correct	n/a	0.48047	no	n/a	n/a
1017.554688	n/a	260494	largeHSmallH	correct	congruent	0.45312	no	H	H
1018.007812	n/a	260610	responseLargeH	correct	n/a	0.45312	no	n/a	n/a
1019.074219	n/a	260883	largeHSmallH	correct	congruent	0.57422	no	H	H
1019.648438	n/a	261030	responseLargeH	correct	n/a	0.57422	no	n/a	n/a
1020.714844	n/a	261303	largeTSmallT	correct	congruent	0.55078	no	T	T
1021.265625	n/a	261444	responseLargeT	correct	n/a	0.55078	no	n/a	n/a
1027.351562	n/a	263002	largeTSmallH	correct	incongruent	1.1289	no	T	H
1028.480469	n/a	263291	responseSmallH	correct	n/a	1.1289	no	n/a	n/a
1029.539062	n/a	263562	largeTSmallH	correct	incongruent	0.49219	no	T	H
1030.03125	n/a	263688	responseSmallH	correct	n/a	0.49219	no	n/a	n/a
1031.101562	n/a	263962	largeHSmallT	correct	incongruent	0.67578	no	H	T
1031.777344	n/a	264135	responseSmallT	correct	n/a	0.67578	no	n/a	n/a
1032.847656	n/a	264409	largeTSmallT	correct	congruent	0.63672	no	T	T
1033.484375	n/a	264572	responseSmallT	correct	n/a	0.63672	no	n/a	n/a
1034.554688	n/a	264846	largeHSmallT	correct	incongruent	0.57422	no	H	T
1035.128906	n/a	264993	responseSmallT	correct	n/a	0.57422	no	n/a	n/a
1036.207031	n/a	265269	largeHSmallH	correct	congruent	0.45312	no	H	H
1036.660156	n/a	265385	responseSmallH	correct	n/a	0.45312	no	n/a	n/a
1037.738281	n/a	265661	largeHSmallH	correct	congruent	0.43359	no	H	H
1038.171875	n/a	265772	responseSmallH	correct	n/a	0.43359	no	n/a	n/a
1039.246094	n/a	266047	largeHSmallH	correct	congruent	0.54297	no	H	H
1039.789062	n/a	266186	responseSmallH	correct	n/a	0.54297	no	n/a	n/a
1040.84375	n/a	266456	largeHSmallH	correct	congruent	0.48828	no	H	H
1041.332031	n/a	266581	responseSmallH	correct	n/a	0.48828	no	n/a	n/a
1042.40625	n/a	266856	largeHSmallT	correct	incongruent	0.46484	no	H	T
1042.871094	n/a	266975	responseSmallT	correct	n/a	0.46484	no	n/a	n/a
1043.941406	n/a	267249	largeHSmallT	correct	incongruent	0.57422	no	H	T
1044.515625	n/a	267396	responseSmallT	correct	n/a	0.57422	no	n/a	n/a
1045.578125	n/a	267668	largeTSmallH	correct	incongruent	0.46875	no	T	H
1046.046875	n/a	267788	responseSmallH	correct	n/a	0.46875	no	n/a	n/a
1047.113281	n/a	268061	largeTSmallH	error	incongruent	0.39844	no	T	H
1047.511719	n/a	268163	responseSmallT	error	n/a	0.39844	no	n/a	n/a
1048.578125	n/a	268436	largeTSmallH	correct	incongruent	0.51172	no	T	H
1049.089844	n/a	268567	responseSmallH	correct	n/a	0.51172	no	n/a	n/a
1050.152344	n/a	268839	largeTSmallT	correct	congruent	0.49609	no	T	T
1050.648438	n/a	268966	responseSmallT	correct	n/a	0.49609	no	n/a	n/a
1051.726562	n/a	269242	largeHSmallH	correct	congruent	0.39844	no	H	H
1052.125	n/a	269344	responseSmallH	correct	n/a	0.39844	no	n/a	n/a
1053.191406	n/a	269617	largeTSmallT	correct	congruent	0.625	no	T	T
1053.816406	n/a	269777	responseSmallT	correct	n/a	0.625	no	n/a	n/a
1054.898438	n/a	270054	largeTSmallH	correct	incongruent	0.47266	no	T	H
1055.371094	n/a	270175	responseSmallH	correct	n/a	0.47266	no	n/a	n/a
1056.433594	n/a	270447	largeTSmallT	correct	congruent	0.64453	no	T	T
1057.078125	n/a	270612	responseSmallT	correct	n/a	0.64453	no	n/a	n/a
1058.152344	n/a	270887	largeHSmallT	correct	incongruent	0.58203	no	H	T
1058.734375	n/a	271036	responseSmallT	correct	n/a	0.58203	no	n/a	n/a
1059.804688	n/a	271310	largeTSmallT	correct	congruent	0.53125	no	T	T
1060.335938	n/a	271446	responseSmallT	correct	n/a	0.53125	no	n/a	n/a
1061.40625	n/a	271720	largeTSmallH	correct	incongruent	0.46094	no	T	H
1061.867188	n/a	271838	responseSmallH	correct	n/a	0.46094	no	n/a	n/a
1062.9375	n/a	272112	largeTSmallH	error	incongruent	0.43359	no	T	H
1063.371094	n/a	272223	responseSmallT	error	n/a	0.43359	no	n/a	n/a
1064.445312	n/a	272498	largeHSmallH	correct	congruent	0.55859	no	H	H
1065.003906	n/a	272641	responseSmallH	correct	n/a	0.55859	no	n/a	n/a
1066.085938	n/a	272918	largeTSmallH	correct	incongruent	0.48438	no	T	H
1066.570312	n/a	273042	responseSmallH	correct	n/a	0.48438	no	n/a	n/a
1067.632812	n/a	273314	largeTSmallH	correct	incongruent	0.45703	no	T	H
1068.089844	n/a	273431	responseSmallH	correct	n/a	0.45703	no	n/a	n/a
1069.152344	n/a	273703	largeHSmallH	correct	congruent	0.53906	no	H	H
1069.691406	n/a	273841	responseSmallH	correct	n/a	0.53906	no	n/a	n/a
1070.765625	n/a	274116	largeHSmallT	correct	incongruent	0.42969	no	H	T
1071.195312	n/a	274226	responseSmallT	correct	n/a	0.42969	no	n/a	n/a
1072.257812	n/a	274498	largeHSmallT	correct	incongruent	0.71094	no	H	T
1072.96875	n/a	274680	responseSmallT	correct	n/a	0.71094	no	n/a	n/a
1074.03125	n/a	274952	largeTSmallT	correct	congruent	0.64453	no	T	T
1074.675781	n/a	275117	responseSmallT	correct	n/a	0.64453	no	n/a	n/a
1075.753906	n/a	275393	largeTSmallH	correct	incongruent	0.51562	no	T	H
1076.269531	n/a	275525	responseSmallH	correct	n/a	0.51562	no	n/a	n/a
1077.339844	n/a	275799	largeHSmallT	correct	incongruent	0.35938	no	H	T
1077.699219	n/a	275891	responseSmallT	correct	n/a	0.35938	no	n/a	n/a
1078.765625	n/a	276164	largeTSmallH	correct	incongruent	0.51172	no	T	H
1079.277344	n/a	276295	responseSmallH	correct	n/a	0.51172	no	n/a	n/a
1080.351562	n/a	276570	largeHSmallH	correct	congruent	0.53516	no	H	H
1080.886719	n/a	276707	responseSmallH	correct	n/a	0.53516	no	n/a	n/a
1081.964844	n/a	276983	largeHSmallH	correct	congruent	0.69531	no	H	H
1082.660156	n/a	277161	responseSmallH	correct	n/a	0.69531	no	n/a	n/a
1083.738281	n/a	277437	largeHSmallH	correct	congruent	0.57812	no	H	H
1084.316406	n/a	277585	responseSmallH	correct	n/a	0.57812	no	n/a	n/a
1085.390625	n/a	277860	largeTSmallH	correct	incongruent	0.69922	no	T	H
1086.089844	n/a	278039	responseSmallH	correct	n/a	0.69922	no	n/a	n/a
1087.152344	n/a	278311	largeHSmallT	error	incongruent	0.45703	no	H	T
1087.609375	n/a	278428	responseSmallH	error	n/a	0.45703	no	n/a	n/a
1088.683594	n/a	278703	largeHSmallH	correct	congruent	0.66016	no	H	H
1089.34375	n/a	278872	responseSmallH	correct	n/a	0.66016	no	n/a	n/a
1090.417969	n/a	279147	largeHSmallT	correct	incongruent	0.47656	no	H	T
1090.894531	n/a	279269	responseSmallT	correct	n/a	0.47656	no	n/a	n/a
1091.964844	n/a	279543	largeHSmallT	correct	incongruent	0.65234	no	H	T
1092.617188	n/a	279710	responseSmallT	correct	n/a	0.65234	no	n/a	n/a
1093.699219	n/a	279987	largeHSmallH	correct	congruent	0.38672	no	H	H
1094.085938	n/a	280086	responseSmallH	correct	n/a	0.38672	no	n/a	n/a
1095.152344	n/a	280359	largeTSmallT	correct	congruent	0.51172	no	T	T
1095.664062	n/a	280490	responseSmallT	correct	n/a	0.51172	no	n/a	n/a
1096.738281	n/a	280765	largeTSmallH	correct	incongruent	0.36719	no	T	H
1097.105469	n/a	280859	responseSmallH	correct	n/a	0.36719	no	n/a	n/a
1098.179688	n/a	281134	largeTSmallH	correct	incongruent	0.49219	no	T	H
1098.671875	n/a	281260	responseSmallH	correct	n/a	0.49219	no	n/a	n/a
1099.738281	n/a	281533	largeTSmallT	correct	congruent	0.4375	no	T	T
1100.175781	n/a	281645	responseSmallT	correct	n/a	0.4375	no	n/a	n/a
1101.246094	n/a	281919	largeTSmallT	correct	congruent	0.53906	no	T	T
1101.785156	n/a	282057	responseSmallT	correct	n/a	0.53906	no	n/a	n/a
1102.859375	n/a	282332	largeTSmallH	correct	incongruent	0.41016	no	T	H
1103.269531	n/a	282437	responseSmallH	correct	n/a	0.41016	no	n/a	n/a
1104.351562	n/a	282714	largeTSmallH	correct	incongruent	0.66406	no	T	H
1105.015625	n/a	282884	responseSmallH	correct	n/a	0.66406	no	n/a	n/a
1106.097656	n/a	283161	largeTSmallH	correct	incongruent	0.45312	no	T	H
1106.550781	n/a	283277	responseSmallH	correct	n/a	0.45312	no	n/a	n/a
1107.617188	n/a	283550	largeHSmallH	correct	congruent	0.48828	no	H	H
1108.105469	n/a	283675	responseSmallH	correct	n/a	0.48828	no	n/a	n/a
1109.179688	n/a	283950	largeHSmallT	correct	incongruent	0.49219	no	H	T
1109.671875	n/a	284076	responseSmallT	correct	n/a	0.49219	no	n/a	n/a
1110.738281	n/a	284349	largeTSmallH	correct	incongruent	0.38672	no	T	H
1111.125	n/a	284448	responseSmallH	correct	n/a	0.38672	no	n/a	n/a
1112.191406	n/a	284721	largeHSmallH	correct	congruent	0.63281	no	H	H
1112.824219	n/a	284883	responseSmallH	correct	n/a	0.63281	no	n/a	n/a
1113.898438	n/a	285158	largeHSmallH	correct	congruent	0.51562	no	H	H
1114.414062	n/a	285290	responseSmallH	correct	n/a	0.51562	no	n/a	n/a
1115.484375	n/a	285564	largeTSmallT	correct	congruent	0.47266	no	T	T
1115.957031	n/a	285685	responseSmallT	correct	n/a	0.47266	no	n/a	n/a
1117.03125	n/a	285960	largeTSmallT	correct	congruent	0.54688	no	T	T
1117.578125	n/a	286100	responseSmallT	correct	n/a	0.54688	no	n/a	n/a
1118.65625	n/a	286376	largeTSmallT	correct	congruent	0.5625	no	T	T
1119.21875	n/a	286520	responseSmallT	correct	n/a	0.5625	no	n/a	n/a
1120.285156	n/a	286793	largeHSmallH	correct	congruent	0.39844	no	H	H
1120.683594	n/a	286895	responseSmallH	correct	n/a	0.39844	no	n/a	n/a
1121.75	n/a	287168	largeHSmallT	correct	incongruent	0.53516	no	H	T
1122.285156	n/a	287305	responseSmallT	correct	n/a	0.53516	no	n/a	n/a
1123.363281	n/a	287581	largeHSmallT	correct	incongruent	0.64453	no	H	T
1124.007812	n/a	287746	responseSmallT	correct	n/a	0.64453	no	n/a	n/a
1125.085938	n/a	288022	largeHSmallT	correct	incongruent	0.45703	no	H	T
1125.542969	n/a	288139	responseSmallT	correct	n/a	0.45703	no	n/a	n/a
1126.605469	n/a	288411	largeHSmallH	correct	congruent	0.47266	no	H	H
1127.078125	n/a	288532	responseSmallH	correct	n/a	0.47266	no	n/a	n/a
1128.152344	n/a	288807	largeHSmallT	correct	incongruent	0.57812	no	H	T
1128.730469	n/a	288955	responseSmallT	correct	n/a	0.57812	no	n/a	n/a
1129.804688	n/a	289230	largeHSmallH	correct	congruent	0.40625	no	H	H
1130.210938	n/a	289334	responseSmallH	correct	n/a	0.40625	no	n/a	n/a
1131.285156	n/a	289609	largeTSmallH	correct	incongruent	0.60938	no	T	H
1131.894531	n/a	289765	responseSmallH	correct	n/a	0.60938	no	n/a	n/a
1132.964844	n/a	290039	largeHSmallT	correct	incongruent	0.51953	no	H	T
1133.484375	n/a	290172	responseSmallT	correct	n/a	0.51953	no	n/a	n/a
1134.550781	n/a	290445	largeTSmallT	correct	congruent	0.51172	no	T	T
1135.0625	n/a	290576	responseSmallT	correct	n/a	0.51172	no	n/a	n/a
1136.136719	n/a	290851	largeHSmallH	correct	congruent	0.48047	no	H	H
1136.617188	n/a	290974	responseSmallH	correct	n/a	0.48047	no	n/a	n/a
1137.683594	n/a	291247	largeTSmallT	correct	congruent	0.46484	no	T	T
1138.148438	n/a	291366	responseSmallT	correct	n/a	0.46484	no	n/a	n/a
1139.21875	n/a	291640	largeHSmallT	correct	incongruent	0.55859	no	H	T
1139.777344	n/a	291783	responseSmallT	correct	n/a	0.55859	no	n/a	n/a
1140.84375	n/a	292056	largeTSmallH	correct	incongruent	0.44141	no	T	H
1141.285156	n/a	292169	responseSmallH	correct	n/a	0.44141	no	n/a	n/a
1142.363281	n/a	292445	largeHSmallH	correct	congruent	0.53516	no	H	H
1142.898438	n/a	292582	responseSmallH	correct	n/a	0.53516	no	n/a	n/a
1143.976562	n/a	292858	largeHSmallT	correct	incongruent	0.33984	no	H	T
1144.316406	n/a	292945	responseSmallT	correct	n/a	0.33984	no	n/a	n/a
1145.390625	n/a	293220	largeHSmallH	correct	congruent	0.40234	no	H	H
1145.792969	n/a	293323	responseSmallH	correct	n/a	0.40234	no	n/a	n/a
1146.871094	n/a	293599	largeHSmallT	correct	incongruent	0.58203	no	H	T
1147.453125	n/a	293748	responseSmallT	correct	n/a	0.58203	no	n/a	n/a
1148.523438	n/a	294022	largeHSmallT	correct	incongruent	0.5625	no	H	T
1149.085938	n/a	294166	responseSmallT	correct	n/a	0.5625	no	n/a	n/a
1150.164062	n/a	294442	largeHSmallT	correct	incongruent	0.48828	no	H	T
1150.652344	n/a	294567	responseSmallT	correct	n/a	0.48828	no	n/a	n/a
1151.722656	n/a	294841	largeTSmallT	correct	congruent	0.48438	no	T	T
1152.207031	n/a	294965	responseSmallT	correct	n/a	0.48438	no	n/a	n/a
1153.285156	n/a	295241	largeHSmallT	correct	incongruent	0.55078	no	H	T
1153.835938	n/a	295382	responseSmallT	correct	n/a	0.55078	no	n/a	n/a
1154.910156	n/a	295657	largeHSmallH	correct	congruent	0.51562	no	H	H
1155.425781	n/a	295789	responseSmallH	correct	n/a	0.51562	no	n/a	n/a
1156.496094	n/a	296063	largeHSmallT	correct	incongruent	0.41406	no	H	T
1156.910156	n/a	296169	responseSmallT	correct	n/a	0.41406	no	n/a	n/a
1157.976562	n/a	296442	largeTSmallT	correct	congruent	0.57422	no	T	T
1158.550781	n/a	296589	responseSmallT	correct	n/a	0.57422	no	n/a	n/a
1159.617188	n/a	296862	largeHSmallH	correct	congruent	0.48438	no	H	H
1160.101562	n/a	296986	responseSmallH	correct	n/a	0.48438	no	n/a	n/a
1161.175781	n/a	297261	largeTSmallT	correct	congruent	0.49609	no	T	T
1161.671875	n/a	297388	responseSmallT	correct	n/a	0.49609	no	n/a	n/a
1162.738281	n/a	297661	largeHSmallT	correct	incongruent	0.52344	no	H	T
1163.261719	n/a	297795	responseSmallT	correct	n/a	0.52344	no	n/a	n/a
1164.324219	n/a	298067	largeHSmallH	correct	congruent	0.41406	no	H	H
1164.738281	n/a	298173	responseSmallH	correct	n/a	0.41406	no	n/a	n/a
1165.816406	n/a	298449	largeTSmallT	correct	congruent	0.46094	no	T	T
1166.277344	n/a	298567	responseSmallT	correct	n/a	0.46094	no	n/a	n/a
1167.351562	n/a	298842	largeHSmallT	correct	incongruent	0.55078	no	H	T
1167.902344	n/a	298983	responseSmallT	correct	n/a	0.55078	no	n/a	n/a
1168.976562	n/a	299258	largeTSmallH	correct	incongruent	0.53125	no	T	H
1169.507812	n/a	299394	responseSmallH	correct	n/a	0.53125	no	n/a	n/a
1170.589844	n/a	299671	largeHSmallT	correct	incongruent	0.43359	no	H	T
1171.023438	n/a	299782	responseSmallT	correct	n/a	0.43359	no	n/a	n/a
1172.097656	n/a	300057	largeTSmallH	correct	incongruent	0.38281	no	T	H
1172.480469	n/a	300155	responseSmallH	correct	n/a	0.38281	no	n/a	n/a
1173.550781	n/a	300429	largeTSmallT	correct	congruent	0.39453	no	T	T
1173.945312	n/a	300530	responseSmallT	correct	n/a	0.39453	no	n/a	n/a
1175.015625	n/a	300804	largeHSmallT	correct	incongruent	0.55078	no	H	T
1175.566406	n/a	300945	responseSmallT	correct	n/a	0.55078	no	n/a	n/a
1176.644531	n/a	301221	largeTSmallH	correct	incongruent	0.45312	no	T	H
1177.097656	n/a	301337	responseSmallH	correct	n/a	0.45312	no	n/a	n/a
1178.164062	n/a	301610	largeHSmallH	error	congruent	0.39062	no	H	H
1178.554688	n/a	301710	responseSmallT	error	n/a	0.39062	no	n/a	n/a
1179.628906	n/a	301985	largeTSmallT	correct	congruent	0.55859	no	T	T
1180.1875	n/a	302128	responseSmallT	correct	n/a	0.55859	no	n/a	n/a
1181.257812	n/a	302402	largeHSmallT	correct	incongruent	0.61328	no	H	T
1181.871094	n/a	302559	responseSmallT	correct	n/a	0.61328	no	n/a	n/a
1182.9375	n/a	302832	largeHSmallH	correct	congruent	0.44531	no	H	H
1183.382812	n/a	302946	responseSmallH	correct	n/a	0.44531	no	n/a	n/a
1184.457031	n/a	303221	largeTSmallT	correct	congruent	0.41016	no	T	T
1184.867188	n/a	303326	responseSmallT	correct	n/a	0.41016	no	n/a	n/a
1185.9375	n/a	303600	largeHSmallH	correct	congruent	0.46094	no	H	H
1186.398438	n/a	303718	responseSmallH	correct	n/a	0.46094	no	n/a	n/a
1187.46875	n/a	303992	largeTSmallT	correct	congruent	0.42969	no	T	T
1187.898438	n/a	304102	responseSmallT	correct	n/a	0.42969	no	n/a	n/a
1188.960938	n/a	304374	largeHSmallH	correct	congruent	0.36719	no	H	H
1189.328125	n/a	304468	responseSmallH	correct	n/a	0.36719	no	n/a	n/a
1190.402344	n/a	304743	largeTSmallT	correct	congruent	0.375	no	T	T
1190.777344	n/a	304839	responseSmallT	correct	n/a	0.375	no	n/a	n/a
1191.84375	n/a	305112	largeHSmallH	correct	congruent	0.35938	no	H	H
1192.203125	n/a	305204	responseSmallH	correct	n/a	0.35938	no	n/a	n/a
1193.269531	n/a	305477	largeTSmallT	correct	congruent	0.39062	no	T	T
1193.660156	n/a	305577	responseSmallT	correct	n/a	0.39062	no	n/a	n/a
1194.734375	n/a	305852	largeTSmallT	correct	congruent	0.60156	no	T	T
1195.335938	n/a	306006	responseSmallT	correct	n/a	0.60156	no	n/a	n/a
1196.402344	n/a	306279	largeTSmallH	correct	incongruent	0.42188	no	T	H
1196.824219	n/a	306387	responseSmallH	correct	n/a	0.42188	no	n/a	n/a
1197.894531	n/a	306661	largeTSmallT	correct	congruent	0.36719	no	T	T
1198.261719	n/a	306755	responseSmallT	correct	n/a	0.36719	no	n/a	n/a
1199.335938	n/a	307030	largeTSmallH	correct	incongruent	0.44141	no	T	H
1199.777344	n/a	307143	responseSmallH	correct	n/a	0.44141	no	n/a	n/a
1200.855469	n/a	307419	largeTSmallT	correct	congruent	0.64844	no	T	T
1201.503906	n/a	307585	responseSmallT	correct	n/a	0.64844	no	n/a	n/a
1202.574219	n/a	307859	largeHSmallT	error	incongruent	0.37109	no	H	T
1202.945312	n/a	307954	responseSmallH	error	n/a	0.37109	no	n/a	n/a
1204.015625	n/a	308228	largeTSmallH	correct	incongruent	0.48047	no	T	H
1204.496094	n/a	308351	responseSmallH	correct	n/a	0.48047	no	n/a	n/a
1205.574219	n/a	308627	largeHSmallH	correct	congruent	0.58984	no	H	H
1206.164062	n/a	308778	responseSmallH	correct	n/a	0.58984	no	n/a	n/a
1207.230469	n/a	309051	largeHSmallH	correct	congruent	0.61328	no	H	H
1207.84375	n/a	309208	responseSmallH	correct	n/a	0.61328	no	n/a	n/a
1208.910156	n/a	309481	largeTSmallH	correct	incongruent	0.44531	no	T	H
1209.355469	n/a	309595	responseSmallH	correct	n/a	0.44531	no	n/a	n/a
1210.429688	n/a	309870	largeHSmallT	correct	incongruent	0.57812	no	H	T
1211.007812	n/a	310018	responseSmallT	correct	n/a	0.57812	no	n/a	n/a
1212.082031	n/a	310293	largeHSmallT	correct	incongruent	0.51562	no	H	T
1212.597656	n/a	310425	responseSmallT	correct	n/a	0.51562	no	n/a	n/a
1213.667969	n/a	310699	largeTSmallH	correct	incongruent	0.48828	no	T	H
1214.15625	n/a	310824	responseSmallH	correct	n/a	0.48828	no	n/a	n/a
1215.226562	n/a	311098	largeTSmallH	correct	incongruent	0.45703	no	T	H
1215.683594	n/a	311215	responseSmallH	correct	n/a	0.45703	no	n/a	n/a
1216.761719	n/a	311491	largeTSmallT	error	congruent	0.4375	no	T	T
1217.199219	n/a	311603	responseSmallH	error	n/a	0.4375	no	n/a	n/a
1218.269531	n/a	311877	largeHSmallT	correct	incongruent	0.44531	no	H	T
1218.714844	n/a	311991	responseSmallT	correct	n/a	0.44531	no	n/a	n/a
1219.789062	n/a	312266	largeHSmallT	correct	incongruent	0.36719	no	H	T
1220.15625	n/a	312360	responseSmallT	correct	n/a	0.36719	no	n/a	n/a
1221.214844	n/a	312631	largeTSmallT	correct	congruent	0.34766	no	T	T
1221.5625	n/a	312720	responseSmallT	correct	n/a	0.34766	no	n/a	n/a
1222.628906	n/a	312993	largeHSmallH	correct	congruent	0.50391	no	H	H
1223.132812	n/a	313122	responseSmallH	correct	n/a	0.50391	no	n/a	n/a
1224.203125	n/a	313396	largeHSmallH	error	congruent	0.47656	no	H	H
1224.679688	n/a	313518	responseSmallT	error	n/a	0.47656	no	n/a	n/a
1225.75	n/a	313792	largeTSmallH	correct	incongruent	0.51562	no	T	H
1226.265625	n/a	313924	responseSmallH	correct	n/a	0.51562	no	n/a	n/a
1227.335938	n/a	314198	largeTSmallT	correct	congruent	0.47266	no	T	T
1227.808594	n/a	314319	responseSmallT	correct	n/a	0.47266	no	n/a	n/a
1228.882812	n/a	314594	largeTSmallH	correct	incongruent	0.4375	no	T	H
1229.320312	n/a	314706	responseSmallH	correct	n/a	0.4375	no	n/a	n/a
