onset	duration	sample	value	response_type	congruence	response_time	response_out_of_range	largeletter	smallletter
12.69140625	n/a	3249	largeHSmallH	correct	congruent	0.60547	no	H	H
13.296875	n/a	3404	responseLargeH	correct	n/a	0.60547	no	n/a	n/a
14.359375	n/a	3676	largeTSmallH	correct	incongruent	0.64062	no	T	H
15	n/a	3840	responseLargeT	correct	n/a	0.64062	no	n/a	n/a
16.06640625	n/a	4113	largeTSmallH	correct	incongruent	0.49219	no	T	H
16.55859375	n/a	4239	responseLargeT	correct	n/a	0.49219	no	n/a	n/a
17.625	n/a	4512	largeHSmallH	correct	congruent	0.57422	no	H	H
18.19921875	n/a	4659	responseLargeH	correct	n/a	0.57422	no	n/a	n/a
19.27734375	n/a	4935	largeHSmallH	correct	congruent	0.53516	no	H	H
19.8125	n/a	5072	responseLargeH	correct	n/a	0.53516	no	n/a	n/a
20.87890625	n/a	5345	largeHSmallH	correct	congruent	0.45312	no	H	H
21.33203125	n/a	5461	responseLargeH	correct	n/a	0.45312	no	n/a	n/a
22.40625	n/a	5736	largeTSmallT	correct	congruent	0.35547	no	T	T
22.76171875	n/a	5827	responseLargeT	correct	n/a	0.35547	no	n/a	n/a
23.83984375	n/a	6103	largeTSmallT	error	congruent	0.31641	no	T	T
24.15625	n/a	6184	responseLargeH	error	n/a	0.31641	no	n/a	n/a
25.2265625	n/a	6458	largeTSmallH	correct	incongruent	0.65625	no	T	H
25.8828125	n/a	6626	responseLargeT	correct	n/a	0.65625	no	n/a	n/a
26.9609375	n/a	6902	largeHSmallT	error	incongruent	0.34766	no	H	T
27.30859375	n/a	6991	responseLargeT	error	n/a	0.34766	no	n/a	n/a
28.37109375	n/a	7263	largeHSmallT	correct	incongruent	0.39453	no	H	T
28.765625	n/a	7364	responseLargeH	correct	n/a	0.39453	no	n/a	n/a
29.83984375	n/a	7639	largeHSmallH	correct	congruent	0.48438	no	H	H
30.32421875	n/a	7763	responseLargeH	correct	n/a	0.48438	no	n/a	n/a
31.3984375	n/a	8038	largeTSmallT	error	congruent	0.33594	no	T	T
31.734375	n/a	8124	responseLargeH	error	n/a	0.33594	no	n/a	n/a
32.80078125	n/a	8397	largeTSmallT	correct	congruent	0.39062	no	T	T
33.19140625	n/a	8497	responseLargeT	correct	n/a	0.39062	no	n/a	n/a
34.265625	n/a	8772	largeTSmallT	correct	congruent	0.35156	no	T	T
34.6171875	n/a	8862	responseLargeT	correct	n/a	0.35156	no	n/a	n/a
35.69140625	n/a	9137	largeHSmallT	correct	incongruent	0.57031	no	H	T
36.26171875	n/a	9283	responseLargeH	correct	n/a	0.57031	no	n/a	n/a
37.34765625	n/a	9561	largeHSmallH	correct	congruent	0.49609	no	H	H
37.84375	n/a	9688	responseLargeH	correct	n/a	0.49609	no	n/a	n/a
38.91796875	n/a	9963	largeTSmallH	correct	incongruent	0.60156	no	T	H
39.51953125	n/a	10117	responseLargeT	correct	n/a	0.60156	no	n/a	n/a
40.5859375	n/a	10390	largeTSmallT	correct	congruent	0.57031	no	T	T
41.15625	n/a	10536	responseLargeT	correct	n/a	0.57031	no	n/a	n/a
42.30078125	n/a	10829	largeTSmallT	correct	congruent	0.64453	no	T	T
42.9453125	n/a	10994	responseLargeT	correct	n/a	0.64453	no	n/a	n/a
44.02734375	n/a	11271	largeHSmallT	correct	incongruent	0.49609	no	H	T
44.5234375	n/a	11398	responseLargeH	correct	n/a	0.49609	no	n/a	n/a
45.59765625	n/a	11673	largeHSmallH	correct	congruent	0.46094	no	H	H
46.05859375	n/a	11791	responseLargeH	correct	n/a	0.46094	no	n/a	n/a
47.1171875	n/a	12062	largeTSmallT	correct	congruent	0.70312	no	T	T
47.8203125	n/a	12242	responseLargeT	correct	n/a	0.70312	no	n/a	n/a
48.890625	n/a	12516	largeHSmallT	error	incongruent	0.41016	no	H	T
49.30078125	n/a	12621	responseLargeT	error	n/a	0.41016	no	n/a	n/a
50.37109375	n/a	12895	largeHSmallH	correct	congruent	0.92969	no	H	H
51.30078125	n/a	13133	responseLargeH	correct	n/a	0.92969	no	n/a	n/a
52.38671875	n/a	13411	largeHSmallT	correct	incongruent	0.83203	no	H	T
53.21875	n/a	13624	responseLargeH	correct	n/a	0.83203	no	n/a	n/a
54.27734375	n/a	13895	largeTSmallT	correct	congruent	0.63281	no	T	T
54.91015625	n/a	14057	responseLargeT	correct	n/a	0.63281	no	n/a	n/a
55.984375	n/a	14332	largeHSmallT	correct	incongruent	0.5625	no	H	T
56.546875	n/a	14476	responseLargeH	correct	n/a	0.5625	no	n/a	n/a
57.625	n/a	14752	largeHSmallT	correct	incongruent	0.69531	no	H	T
58.3203125	n/a	14930	responseLargeH	correct	n/a	0.69531	no	n/a	n/a
59.38671875	n/a	15203	largeHSmallT	correct	incongruent	0.53516	no	H	T
59.921875	n/a	15340	responseLargeH	correct	n/a	0.53516	no	n/a	n/a
60.984375	n/a	15612	largeHSmallT	correct	incongruent	0.46875	no	H	T
61.453125	n/a	15732	responseLargeH	correct	n/a	0.46875	no	n/a	n/a
62.51953125	n/a	16005	largeHSmallH	correct	congruent	0.33203	no	H	H
62.8515625	n/a	16090	responseLargeH	correct	n/a	0.33203	no	n/a	n/a
63.93359375	n/a	16367	largeTSmallT	correct	congruent	0.67969	no	T	T
64.61328125	n/a	16541	responseLargeT	correct	n/a	0.67969	no	n/a	n/a
65.69140625	n/a	16817	largeHSmallH	correct	congruent	0.53516	no	H	H
66.2265625	n/a	16954	responseLargeH	correct	n/a	0.53516	no	n/a	n/a
67.29296875	n/a	17227	largeHSmallT	correct	incongruent	0.61328	no	H	T
67.90625	n/a	17384	responseLargeH	correct	n/a	0.61328	no	n/a	n/a
68.984375	n/a	17660	largeTSmallH	correct	incongruent	0.95703	no	T	H
69.94140625	n/a	17905	responseLargeT	correct	n/a	0.95703	no	n/a	n/a
71.01171875	n/a	18179	largeHSmallH	correct	congruent	0.69531	no	H	H
71.70703125	n/a	18357	responseLargeH	correct	n/a	0.69531	no	n/a	n/a
72.7734375	n/a	18630	largeTSmallT	correct	congruent	0.76172	no	T	T
73.53515625	n/a	18825	responseLargeT	correct	n/a	0.76172	no	n/a	n/a
74.61328125	n/a	19101	largeTSmallT	correct	congruent	0.57031	no	T	T
75.18359375	n/a	19247	responseLargeT	correct	n/a	0.57031	no	n/a	n/a
76.25	n/a	19520	largeTSmallH	correct	incongruent	0.41406	no	T	H
76.6640625	n/a	19626	responseLargeT	correct	n/a	0.41406	no	n/a	n/a
77.73046875	n/a	19899	largeTSmallT	correct	congruent	0.53906	no	T	T
78.26953125	n/a	20037	responseLargeT	correct	n/a	0.53906	no	n/a	n/a
79.34375	n/a	20312	largeTSmallH	correct	incongruent	0.57422	no	T	H
79.91796875	n/a	20459	responseLargeT	correct	n/a	0.57422	no	n/a	n/a
80.984375	n/a	20732	largeTSmallH	correct	incongruent	0.53516	no	T	H
81.51953125	n/a	20869	responseLargeT	correct	n/a	0.53516	no	n/a	n/a
82.59765625	n/a	21145	largeTSmallH	correct	incongruent	0.53906	no	T	H
83.13671875	n/a	21283	responseLargeT	correct	n/a	0.53906	no	n/a	n/a
84.19921875	n/a	21555	largeTSmallH	correct	incongruent	0.40234	no	T	H
84.6015625	n/a	21658	responseLargeT	correct	n/a	0.40234	no	n/a	n/a
85.6796875	n/a	21934	largeHSmallT	correct	incongruent	0.88672	no	H	T
86.56640625	n/a	22161	responseLargeH	correct	n/a	0.88672	no	n/a	n/a
87.63671875	n/a	22435	largeTSmallT	correct	congruent	0.67578	no	T	T
88.3125	n/a	22608	responseLargeT	correct	n/a	0.67578	no	n/a	n/a
89.3828125	n/a	22882	largeHSmallT	correct	incongruent	0.57031	no	H	T
89.953125	n/a	23028	responseLargeH	correct	n/a	0.57031	no	n/a	n/a
91.0234375	n/a	23302	largeTSmallH	correct	incongruent	0.37109	no	T	H
91.39453125	n/a	23397	responseLargeT	correct	n/a	0.37109	no	n/a	n/a
92.4765625	n/a	23674	largeTSmallT	correct	congruent	0.61719	no	T	T
93.09375	n/a	23832	responseLargeT	correct	n/a	0.61719	no	n/a	n/a
94.15625	n/a	24104	largeHSmallT	error	incongruent	0.37109	no	H	T
94.52734375	n/a	24199	responseLargeT	error	n/a	0.37109	no	n/a	n/a
95.59765625	n/a	24473	largeTSmallH	correct	incongruent	0.58594	no	T	H
96.18359375	n/a	24623	responseLargeT	correct	n/a	0.58594	no	n/a	n/a
97.265625	n/a	24900	largeTSmallT	correct	congruent	0.37891	no	T	T
97.64453125	n/a	24997	responseLargeT	correct	n/a	0.37891	no	n/a	n/a
98.71875	n/a	25272	largeTSmallH	correct	incongruent	0.63281	no	T	H
99.3515625	n/a	25434	responseLargeT	correct	n/a	0.63281	no	n/a	n/a
100.4257812	n/a	25709	largeHSmallH	correct	congruent	0.71875	no	H	H
101.1445312	n/a	25893	responseLargeH	correct	n/a	0.71875	no	n/a	n/a
102.2109375	n/a	26166	largeHSmallH	correct	congruent	0.61328	no	H	H
102.8242188	n/a	26323	responseLargeH	correct	n/a	0.61328	no	n/a	n/a
103.890625	n/a	26596	largeHSmallH	correct	congruent	0.41016	no	H	H
104.3007812	n/a	26701	responseLargeH	correct	n/a	0.41016	no	n/a	n/a
105.3710938	n/a	26975	largeHSmallH	correct	congruent	0.41406	no	H	H
105.7851562	n/a	27081	responseLargeH	correct	n/a	0.41406	no	n/a	n/a
106.8515625	n/a	27354	largeHSmallH	correct	congruent	0.38672	no	H	H
107.2382812	n/a	27453	responseLargeH	correct	n/a	0.38672	no	n/a	n/a
108.3046875	n/a	27726	largeHSmallT	correct	incongruent	0.5	no	H	T
108.8046875	n/a	27854	responseLargeH	correct	n/a	0.5	no	n/a	n/a
109.8789062	n/a	28129	largeTSmallT	error	congruent	0.40234	no	T	T
110.28125	n/a	28232	responseLargeH	error	n/a	0.40234	no	n/a	n/a
111.34375	n/a	28504	largeHSmallT	error	incongruent	0.45703	no	H	T
111.8007812	n/a	28621	responseLargeT	error	n/a	0.45703	no	n/a	n/a
112.8789062	n/a	28897	largeHSmallT	correct	incongruent	0.57031	no	H	T
113.4492188	n/a	29043	responseLargeH	correct	n/a	0.57031	no	n/a	n/a
114.515625	n/a	29316	largeTSmallT	correct	congruent	0.62891	no	T	T
115.1445312	n/a	29477	responseLargeT	correct	n/a	0.62891	no	n/a	n/a
116.2109375	n/a	29750	largeHSmallT	error	incongruent	0.76953	no	H	T
116.9804688	n/a	29947	responseLargeT	error	n/a	0.76953	no	n/a	n/a
118.0507812	n/a	30221	largeHSmallH	correct	congruent	0.55078	no	H	H
118.6015625	n/a	30362	responseLargeH	correct	n/a	0.55078	no	n/a	n/a
119.6757812	n/a	30637	largeTSmallT	correct	congruent	0.6875	no	T	T
120.3632812	n/a	30813	responseLargeT	correct	n/a	0.6875	no	n/a	n/a
121.421875	n/a	31084	largeHSmallT	correct	incongruent	0.67188	no	H	T
122.09375	n/a	31256	responseLargeH	correct	n/a	0.67188	no	n/a	n/a
123.15625	n/a	31528	largeHSmallH	correct	congruent	0.50781	no	H	H
123.6640625	n/a	31658	responseLargeH	correct	n/a	0.50781	no	n/a	n/a
124.7304688	n/a	31931	largeTSmallH	correct	incongruent	0.59766	no	T	H
125.328125	n/a	32084	responseLargeT	correct	n/a	0.59766	no	n/a	n/a
126.4101562	n/a	32361	largeHSmallT	correct	incongruent	0.55078	no	H	T
126.9609375	n/a	32502	responseLargeH	correct	n/a	0.55078	no	n/a	n/a
128.0234375	n/a	32774	largeHSmallT	error	incongruent	0.53125	no	H	T
128.5546875	n/a	32910	responseLargeT	error	n/a	0.53125	no	n/a	n/a
129.6367188	n/a	33187	largeTSmallT	correct	congruent	0.45312	no	T	T
130.0898438	n/a	33303	responseLargeT	correct	n/a	0.45312	no	n/a	n/a
131.15625	n/a	33576	largeTSmallT	correct	congruent	0.41797	no	T	T
131.5742188	n/a	33683	responseLargeT	correct	n/a	0.41797	no	n/a	n/a
132.6367188	n/a	33955	largeTSmallT	error	congruent	0.39453	no	T	T
133.03125	n/a	34056	responseLargeH	error	n/a	0.39453	no	n/a	n/a
134.1015625	n/a	34330	largeHSmallT	correct	incongruent	0.54688	no	H	T
134.6484375	n/a	34470	responseLargeH	correct	n/a	0.54688	no	n/a	n/a
135.7148438	n/a	34743	largeHSmallH	correct	congruent	0.43359	no	H	H
136.1484375	n/a	34854	responseLargeH	correct	n/a	0.43359	no	n/a	n/a
137.2109375	n/a	35126	largeTSmallH	correct	incongruent	0.65234	no	T	H
137.8632812	n/a	35293	responseLargeT	correct	n/a	0.65234	no	n/a	n/a
138.9296875	n/a	35566	largeHSmallH	correct	congruent	0.53125	no	H	H
139.4609375	n/a	35702	responseLargeH	correct	n/a	0.53125	no	n/a	n/a
140.53125	n/a	35976	largeTSmallH	correct	incongruent	0.5	no	T	H
141.03125	n/a	36104	responseLargeT	correct	n/a	0.5	no	n/a	n/a
142.1015625	n/a	36378	largeHSmallH	correct	congruent	0.52734	no	H	H
142.6289062	n/a	36513	responseLargeH	correct	n/a	0.52734	no	n/a	n/a
143.703125	n/a	36788	largeHSmallT	correct	incongruent	0.57031	no	H	T
144.2734375	n/a	36934	responseLargeH	correct	n/a	0.57031	no	n/a	n/a
145.34375	n/a	37208	largeHSmallT	correct	incongruent	0.42188	no	H	T
145.765625	n/a	37316	responseLargeH	correct	n/a	0.42188	no	n/a	n/a
146.8359375	n/a	37590	largeTSmallT	error	congruent	0.55078	no	T	T
147.3867188	n/a	37731	responseLargeH	error	n/a	0.55078	no	n/a	n/a
148.4648438	n/a	38007	largeHSmallH	correct	congruent	0.60156	no	H	H
149.0664062	n/a	38161	responseLargeH	correct	n/a	0.60156	no	n/a	n/a
150.1289062	n/a	38433	largeHSmallH	correct	congruent	0.41016	no	H	H
150.5390625	n/a	38538	responseLargeH	correct	n/a	0.41016	no	n/a	n/a
151.609375	n/a	38812	largeTSmallT	correct	congruent	1.1445	no	T	T
152.7539062	n/a	39105	responseLargeT	correct	n/a	1.1445	no	n/a	n/a
153.8242188	n/a	39379	largeTSmallH	correct	incongruent	0.57031	no	T	H
154.3945312	n/a	39525	responseLargeT	correct	n/a	0.57031	no	n/a	n/a
155.4609375	n/a	39798	largeTSmallH	correct	incongruent	0.35547	no	T	H
155.8164062	n/a	39889	responseLargeT	correct	n/a	0.35547	no	n/a	n/a
156.890625	n/a	40164	largeHSmallT	correct	incongruent	0.55078	no	H	T
157.4414062	n/a	40305	responseLargeH	correct	n/a	0.55078	no	n/a	n/a
158.5039062	n/a	40577	largeTSmallT	correct	congruent	0.40234	no	T	T
158.90625	n/a	40680	responseLargeT	correct	n/a	0.40234	no	n/a	n/a
159.984375	n/a	40956	largeTSmallT	correct	congruent	0.64844	no	T	T
160.6328125	n/a	41122	responseLargeT	correct	n/a	0.64844	no	n/a	n/a
161.703125	n/a	41396	largeHSmallH	correct	congruent	0.46484	no	H	H
162.1679688	n/a	41515	responseLargeH	correct	n/a	0.46484	no	n/a	n/a
163.234375	n/a	41788	largeTSmallT	correct	congruent	0.34375	no	T	T
163.578125	n/a	41876	responseLargeT	correct	n/a	0.34375	no	n/a	n/a
164.6484375	n/a	42150	largeTSmallH	error	incongruent	0.41016	no	T	H
165.0585938	n/a	42255	responseLargeH	error	n/a	0.41016	no	n/a	n/a
166.1171875	n/a	42526	largeHSmallT	error	incongruent	0.60547	no	H	T
166.7226562	n/a	42681	responseLargeT	error	n/a	0.60547	no	n/a	n/a
167.796875	n/a	42956	largeHSmallH	correct	congruent	0.52734	no	H	H
168.3242188	n/a	43091	responseLargeH	correct	n/a	0.52734	no	n/a	n/a
169.3945312	n/a	43365	largeHSmallT	correct	incongruent	0.73828	no	H	T
170.1328125	n/a	43554	responseLargeH	correct	n/a	0.73828	no	n/a	n/a
171.2109375	n/a	43830	largeTSmallT	correct	congruent	1.0586	no	T	T
172.2695312	n/a	44101	responseLargeT	correct	n/a	1.0586	no	n/a	n/a
173.34375	n/a	44376	largeTSmallT	correct	congruent	0.43359	no	T	T
173.7773438	n/a	44487	responseLargeT	correct	n/a	0.43359	no	n/a	n/a
174.8359375	n/a	44758	largeTSmallT	correct	congruent	0.4375	no	T	T
175.2734375	n/a	44870	responseLargeT	correct	n/a	0.4375	no	n/a	n/a
176.34375	n/a	45144	largeTSmallT	correct	congruent	0.40234	no	T	T
176.7460938	n/a	45247	responseLargeT	correct	n/a	0.40234	no	n/a	n/a
177.8242188	n/a	45523	largeTSmallH	correct	incongruent	0.37891	no	T	H
178.203125	n/a	45620	responseLargeT	correct	n/a	0.37891	no	n/a	n/a
179.2773438	n/a	45895	largeHSmallH	error	congruent	0.36719	no	H	H
179.6445312	n/a	45989	responseLargeT	error	n/a	0.36719	no	n/a	n/a
180.7148438	n/a	46263	largeHSmallT	correct	incongruent	0.50781	no	H	T
181.2226562	n/a	46393	responseLargeH	correct	n/a	0.50781	no	n/a	n/a
182.3007812	n/a	46669	largeHSmallH	correct	congruent	0.44922	no	H	H
182.75	n/a	46784	responseLargeH	correct	n/a	0.44922	no	n/a	n/a
183.8242188	n/a	47059	largeHSmallH	correct	congruent	0.53125	no	H	H
184.3554688	n/a	47195	responseLargeH	correct	n/a	0.53125	no	n/a	n/a
185.421875	n/a	47468	largeTSmallT	correct	congruent	0.68359	no	T	T
186.1054688	n/a	47643	responseLargeT	correct	n/a	0.68359	no	n/a	n/a
187.1835938	n/a	47919	largeHSmallT	error	incongruent	0.40625	no	H	T
187.5898438	n/a	48023	responseLargeT	error	n/a	0.40625	no	n/a	n/a
188.6601562	n/a	48297	largeTSmallT	correct	congruent	0.58594	no	T	T
189.2460938	n/a	48447	responseLargeT	correct	n/a	0.58594	no	n/a	n/a
190.3164062	n/a	48721	largeHSmallH	correct	congruent	0.56641	no	H	H
190.8828125	n/a	48866	responseLargeH	correct	n/a	0.56641	no	n/a	n/a
191.9570312	n/a	49141	largeHSmallT	correct	incongruent	0.61328	no	H	T
192.5703125	n/a	49298	responseLargeH	correct	n/a	0.61328	no	n/a	n/a
193.6367188	n/a	49571	largeTSmallT	correct	congruent	0.5625	no	T	T
194.1992188	n/a	49715	responseLargeT	correct	n/a	0.5625	no	n/a	n/a
195.2734375	n/a	49990	largeHSmallH	correct	congruent	0.62109	no	H	H
195.8945312	n/a	50149	responseLargeH	correct	n/a	0.62109	no	n/a	n/a
196.96875	n/a	50424	largeTSmallH	correct	incongruent	0.53516	no	T	H
197.5039062	n/a	50561	responseLargeT	correct	n/a	0.53516	no	n/a	n/a
198.5703125	n/a	50834	largeHSmallT	correct	incongruent	0.44922	no	H	T
199.0195312	n/a	50949	responseLargeH	correct	n/a	0.44922	no	n/a	n/a
200.0898438	n/a	51223	largeTSmallH	correct	incongruent	0.75	no	T	H
200.8398438	n/a	51415	responseLargeT	correct	n/a	0.75	no	n/a	n/a
201.9023438	n/a	51687	largeHSmallH	error	congruent	0.69141	no	H	H
202.59375	n/a	51864	responseLargeT	error	n/a	0.69141	no	n/a	n/a
203.6757812	n/a	52141	largeTSmallT	correct	congruent	1.582	yes	T	T
205.2578125	n/a	52546	responseLargeT	correct	n/a	1.582	yes	n/a	n/a
206.3164062	n/a	52817	largeHSmallH	correct	congruent	0.58594	no	H	H
206.9023438	n/a	52967	responseLargeH	correct	n/a	0.58594	no	n/a	n/a
207.9804688	n/a	53243	largeHSmallT	error	incongruent	0.47266	no	H	T
208.453125	n/a	53364	responseLargeT	error	n/a	0.47266	no	n/a	n/a
209.515625	n/a	53636	largeHSmallT	correct	incongruent	0.5625	no	H	T
210.078125	n/a	53780	responseLargeH	correct	n/a	0.5625	no	n/a	n/a
211.140625	n/a	54052	largeHSmallT	correct	incongruent	0.39844	no	H	T
211.5390625	n/a	54154	responseLargeH	correct	n/a	0.39844	no	n/a	n/a
212.609375	n/a	54428	largeHSmallH	correct	congruent	0.34375	no	H	H
212.953125	n/a	54516	responseLargeH	correct	n/a	0.34375	no	n/a	n/a
214.0351562	n/a	54793	largeTSmallT	correct	congruent	0.65625	no	T	T
214.6914062	n/a	54961	responseLargeT	correct	n/a	0.65625	no	n/a	n/a
215.7539062	n/a	55233	largeTSmallH	correct	incongruent	0.44531	no	T	H
216.1992188	n/a	55347	responseLargeT	correct	n/a	0.44531	no	n/a	n/a
217.2734375	n/a	55622	largeHSmallT	correct	incongruent	0.61328	no	H	T
217.8867188	n/a	55779	responseLargeH	correct	n/a	0.61328	no	n/a	n/a
218.953125	n/a	56052	largeTSmallT	correct	congruent	0.53125	no	T	T
219.484375	n/a	56188	responseLargeT	correct	n/a	0.53125	no	n/a	n/a
220.5546875	n/a	56462	largeTSmallH	error	incongruent	0.40625	no	T	H
220.9609375	n/a	56566	responseLargeH	error	n/a	0.40625	no	n/a	n/a
222.0351562	n/a	56841	largeHSmallT	correct	incongruent	0.59375	no	H	T
222.6289062	n/a	56993	responseLargeH	correct	n/a	0.59375	no	n/a	n/a
223.6992188	n/a	57267	largeTSmallH	error	incongruent	0.52344	no	T	H
224.2226562	n/a	57401	responseLargeH	error	n/a	0.52344	no	n/a	n/a
225.2890625	n/a	57674	largeTSmallT	correct	congruent	1.1094	no	T	T
226.3984375	n/a	57958	responseLargeT	correct	n/a	1.1094	no	n/a	n/a
227.4726562	n/a	58233	largeTSmallH	correct	incongruent	0.58984	no	T	H
228.0625	n/a	58384	responseLargeT	correct	n/a	0.58984	no	n/a	n/a
229.1289062	n/a	58657	largeHSmallH	correct	congruent	0.51172	no	H	H
229.640625	n/a	58788	responseLargeH	correct	n/a	0.51172	no	n/a	n/a
230.7265625	n/a	59066	largeHSmallH	correct	congruent	0.58984	no	H	H
231.3164062	n/a	59217	responseLargeH	correct	n/a	0.58984	no	n/a	n/a
232.3945312	n/a	59493	largeHSmallT	correct	incongruent	0.33594	no	H	T
232.7304688	n/a	59579	responseLargeH	correct	n/a	0.33594	no	n/a	n/a
233.7929688	n/a	59851	largeTSmallH	error	incongruent	0.40234	no	T	H
234.1953125	n/a	59954	responseLargeH	error	n/a	0.40234	no	n/a	n/a
235.2617188	n/a	60227	largeTSmallH	correct	incongruent	0.42969	no	T	H
235.6914062	n/a	60337	responseLargeT	correct	n/a	0.42969	no	n/a	n/a
236.7539062	n/a	60609	largeHSmallH	error	congruent	0.32812	no	H	H
237.0820312	n/a	60693	responseLargeT	error	n/a	0.32812	no	n/a	n/a
238.140625	n/a	60964	largeHSmallT	correct	incongruent	0.33203	no	H	T
238.4726562	n/a	61049	responseLargeH	correct	n/a	0.33203	no	n/a	n/a
239.5546875	n/a	61326	largeHSmallH	correct	congruent	0.55469	no	H	H
240.109375	n/a	61468	responseLargeH	correct	n/a	0.55469	no	n/a	n/a
241.1679688	n/a	61739	largeTSmallH	correct	incongruent	0.65234	no	T	H
241.8203125	n/a	61906	responseLargeT	correct	n/a	0.65234	no	n/a	n/a
242.8867188	n/a	62179	largeHSmallT	correct	incongruent	0.52344	no	H	T
243.4101562	n/a	62313	responseLargeH	correct	n/a	0.52344	no	n/a	n/a
244.4726562	n/a	62585	largeTSmallH	error	incongruent	0.44141	no	T	H
244.9140625	n/a	62698	responseLargeH	error	n/a	0.44141	no	n/a	n/a
245.9804688	n/a	62971	largeHSmallT	correct	incongruent	0.52734	no	H	T
246.5078125	n/a	63106	responseLargeH	correct	n/a	0.52734	no	n/a	n/a
247.5820312	n/a	63381	largeTSmallT	correct	congruent	0.41016	no	T	T
247.9921875	n/a	63486	responseLargeT	correct	n/a	0.41016	no	n/a	n/a
249.0625	n/a	63760	largeHSmallH	correct	congruent	0.44531	no	H	H
249.5078125	n/a	63874	responseLargeH	correct	n/a	0.44531	no	n/a	n/a
250.5820312	n/a	64149	largeHSmallH	error	congruent	0.38672	no	H	H
250.96875	n/a	64248	responseLargeT	error	n/a	0.38672	no	n/a	n/a
252.046875	n/a	64524	largeTSmallH	correct	incongruent	0.67188	no	T	H
252.71875	n/a	64696	responseLargeT	correct	n/a	0.67188	no	n/a	n/a
253.7929688	n/a	64971	largeHSmallH	correct	congruent	0.45312	no	H	H
254.2460938	n/a	65087	responseLargeH	correct	n/a	0.45312	no	n/a	n/a
255.328125	n/a	65364	largeTSmallH	error	incongruent	0.375	no	T	H
255.703125	n/a	65460	responseLargeH	error	n/a	0.375	no	n/a	n/a
256.765625	n/a	65732	largeHSmallT	correct	incongruent	0.5	no	H	T
257.265625	n/a	65860	responseLargeH	correct	n/a	0.5	no	n/a	n/a
258.3398438	n/a	66135	largeTSmallT	correct	congruent	0.69141	no	T	T
259.03125	n/a	66312	responseLargeT	correct	n/a	0.69141	no	n/a	n/a
260.1015625	n/a	66586	largeTSmallH	correct	incongruent	0.45312	no	T	H
260.5546875	n/a	66702	responseLargeT	correct	n/a	0.45312	no	n/a	n/a
261.6210938	n/a	66975	largeTSmallT	correct	congruent	0.38281	no	T	T
262.0039062	n/a	67073	responseLargeT	correct	n/a	0.38281	no	n/a	n/a
263.0742188	n/a	67347	largeTSmallT	correct	congruent	0.39062	no	T	T
263.4648438	n/a	67447	responseLargeT	correct	n/a	0.39062	no	n/a	n/a
264.5390625	n/a	67722	largeTSmallH	correct	incongruent	0.59375	no	T	H
265.1328125	n/a	67874	responseLargeT	correct	n/a	0.59375	no	n/a	n/a
266.2070312	n/a	68149	largeTSmallH	correct	incongruent	0.34375	no	T	H
266.5507812	n/a	68237	responseLargeT	correct	n/a	0.34375	no	n/a	n/a
267.6210938	n/a	68511	largeTSmallH	correct	incongruent	0.35547	no	T	H
267.9765625	n/a	68602	responseLargeT	correct	n/a	0.35547	no	n/a	n/a
269.046875	n/a	68876	largeHSmallT	correct	incongruent	0.53516	no	H	T
269.5820312	n/a	69013	responseLargeH	correct	n/a	0.53516	no	n/a	n/a
270.6601562	n/a	69289	largeHSmallH	correct	congruent	0.43359	no	H	H
271.09375	n/a	69400	responseLargeH	correct	n/a	0.43359	no	n/a	n/a
272.1679688	n/a	69675	largeTSmallH	error	incongruent	0.36719	no	T	H
272.5351562	n/a	69769	responseLargeH	error	n/a	0.36719	no	n/a	n/a
273.6054688	n/a	70043	largeTSmallH	correct	incongruent	0.39453	no	T	H
274	n/a	70144	responseLargeT	correct	n/a	0.39453	no	n/a	n/a
275.0742188	n/a	70419	largeTSmallH	correct	incongruent	0.375	no	T	H
275.4492188	n/a	70515	responseLargeT	correct	n/a	0.375	no	n/a	n/a
276.5273438	n/a	70791	largeTSmallH	correct	incongruent	0.375	no	T	H
276.9023438	n/a	70887	responseLargeT	correct	n/a	0.375	no	n/a	n/a
277.9648438	n/a	71159	largeHSmallT	error	incongruent	0.35156	no	H	T
278.3164062	n/a	71249	responseLargeT	error	n/a	0.35156	no	n/a	n/a
279.3945312	n/a	71525	largeTSmallT	correct	congruent	0.55078	no	T	T
279.9453125	n/a	71666	responseLargeT	correct	n/a	0.55078	no	n/a	n/a
281.0195312	n/a	71941	largeTSmallT	correct	congruent	0.37109	no	T	T
281.390625	n/a	72036	responseLargeT	correct	n/a	0.37109	no	n/a	n/a
282.4726562	n/a	72313	largeHSmallT	error	incongruent	0.35156	no	H	T
282.8242188	n/a	72403	responseLargeT	error	n/a	0.35156	no	n/a	n/a
283.8984375	n/a	72678	largeHSmallH	correct	congruent	0.58594	no	H	H
284.484375	n/a	72828	responseLargeH	correct	n/a	0.58594	no	n/a	n/a
285.5546875	n/a	73102	largeTSmallH	error	incongruent	0.39453	no	T	H
285.9492188	n/a	73203	responseLargeH	error	n/a	0.39453	no	n/a	n/a
287.0195312	n/a	73477	largeTSmallH	correct	incongruent	0.64453	no	T	H
287.6640625	n/a	73642	responseLargeT	correct	n/a	0.64453	no	n/a	n/a
288.7382812	n/a	73917	largeTSmallT	correct	congruent	0.40234	no	T	T
289.140625	n/a	74020	responseLargeT	correct	n/a	0.40234	no	n/a	n/a
290.21875	n/a	74296	largeTSmallH	error	incongruent	0.34375	no	T	H
290.5625	n/a	74384	responseLargeH	error	n/a	0.34375	no	n/a	n/a
291.6445312	n/a	74661	largeTSmallT	correct	congruent	0.37109	no	T	T
292.015625	n/a	74756	responseLargeT	correct	n/a	0.37109	no	n/a	n/a
293.0859375	n/a	75030	largeTSmallT	correct	congruent	0.39844	no	T	T
293.484375	n/a	75132	responseLargeT	correct	n/a	0.39844	no	n/a	n/a
294.5546875	n/a	75406	largeTSmallH	correct	incongruent	0.50391	no	T	H
295.0585938	n/a	75535	responseLargeT	correct	n/a	0.50391	no	n/a	n/a
296.125	n/a	75808	largeTSmallT	correct	congruent	0.36328	no	T	T
296.4882812	n/a	75901	responseLargeT	correct	n/a	0.36328	no	n/a	n/a
297.5546875	n/a	76174	largeTSmallT	correct	congruent	0.37109	no	T	T
297.9257812	n/a	76269	responseLargeT	correct	n/a	0.37109	no	n/a	n/a
299.0078125	n/a	76546	largeHSmallH	correct	congruent	0.53906	no	H	H
299.546875	n/a	76684	responseLargeH	correct	n/a	0.53906	no	n/a	n/a
300.6210938	n/a	76959	largeHSmallH	correct	congruent	0.41797	no	H	H
301.0390625	n/a	77066	responseLargeH	correct	n/a	0.41797	no	n/a	n/a
302.1132812	n/a	77341	largeTSmallH	error	incongruent	0.48828	no	T	H
302.6015625	n/a	77466	responseLargeH	error	n/a	0.48828	no	n/a	n/a
303.671875	n/a	77740	largeHSmallT	correct	incongruent	0.55078	no	H	T
304.2226562	n/a	77881	responseLargeH	correct	n/a	0.55078	no	n/a	n/a
305.2851562	n/a	78153	largeTSmallT	correct	congruent	0.68359	no	T	T
305.96875	n/a	78328	responseLargeT	correct	n/a	0.68359	no	n/a	n/a
307.03125	n/a	78600	largeTSmallH	correct	incongruent	0.57031	no	T	H
307.6015625	n/a	78746	responseLargeT	correct	n/a	0.57031	no	n/a	n/a
308.671875	n/a	79020	largeHSmallH	error	congruent	0.50781	no	H	H
309.1796875	n/a	79150	responseLargeT	error	n/a	0.50781	no	n/a	n/a
310.2460938	n/a	79423	largeHSmallT	correct	incongruent	0.67969	no	H	T
310.9257812	n/a	79597	responseLargeH	correct	n/a	0.67969	no	n/a	n/a
311.9921875	n/a	79870	largeTSmallH	correct	incongruent	0.53125	no	T	H
312.5234375	n/a	80006	responseLargeT	correct	n/a	0.53125	no	n/a	n/a
313.59375	n/a	80280	largeHSmallH	correct	congruent	0.59375	no	H	H
314.1875	n/a	80432	responseLargeH	correct	n/a	0.59375	no	n/a	n/a
315.2578125	n/a	80706	largeHSmallH	correct	congruent	0.46484	no	H	H
315.7226562	n/a	80825	responseLargeH	correct	n/a	0.46484	no	n/a	n/a
316.7929688	n/a	81099	largeTSmallH	correct	incongruent	0.5	no	T	H
317.2929688	n/a	81227	responseLargeT	correct	n/a	0.5	no	n/a	n/a
318.3671875	n/a	81502	largeTSmallH	correct	incongruent	0.57422	no	T	H
318.9414062	n/a	81649	responseLargeT	correct	n/a	0.57422	no	n/a	n/a
320.0195312	n/a	81925	largeHSmallT	correct	incongruent	0.625	no	H	T
320.6445312	n/a	82085	responseLargeH	correct	n/a	0.625	no	n/a	n/a
321.7109375	n/a	82358	largeTSmallH	correct	incongruent	0.63672	no	T	H
322.3476562	n/a	82521	responseLargeT	correct	n/a	0.63672	no	n/a	n/a
323.4179688	n/a	82795	largeHSmallH	correct	congruent	0.67578	no	H	H
324.09375	n/a	82968	responseLargeH	correct	n/a	0.67578	no	n/a	n/a
325.1640625	n/a	83242	largeHSmallT	correct	incongruent	0.67188	no	H	T
325.8359375	n/a	83414	responseLargeH	correct	n/a	0.67188	no	n/a	n/a
326.9101562	n/a	83689	largeHSmallH	correct	congruent	0.9375	no	H	H
327.8476562	n/a	83929	responseLargeH	correct	n/a	0.9375	no	n/a	n/a
328.9257812	n/a	84205	largeHSmallH	correct	congruent	0.44922	no	H	H
329.375	n/a	84320	responseLargeH	correct	n/a	0.44922	no	n/a	n/a
330.4453125	n/a	84594	largeHSmallT	correct	incongruent	0.39062	no	H	T
330.8359375	n/a	84694	responseLargeH	correct	n/a	0.39062	no	n/a	n/a
331.8984375	n/a	84966	largeHSmallT	correct	incongruent	0.41406	no	H	T
332.3125	n/a	85072	responseLargeH	correct	n/a	0.41406	no	n/a	n/a
368.8320312	n/a	94421	largeHSmallT	correct	incongruent	1.6172	yes	H	T
370.4492188	n/a	94835	responseSmallT	correct	n/a	1.6172	yes	n/a	n/a
371.5234375	n/a	95110	largeHSmallT	correct	incongruent	0.51172	no	H	T
372.0351562	n/a	95241	responseSmallT	correct	n/a	0.51172	no	n/a	n/a
373.0976562	n/a	95513	largeHSmallH	correct	congruent	0.43359	no	H	H
373.53125	n/a	95624	responseSmallH	correct	n/a	0.43359	no	n/a	n/a
374.6054688	n/a	95899	largeTSmallT	correct	congruent	0.50781	no	T	T
375.1132812	n/a	96029	responseSmallT	correct	n/a	0.50781	no	n/a	n/a
376.1914062	n/a	96305	largeHSmallH	correct	congruent	0.37109	no	H	H
376.5625	n/a	96400	responseSmallH	correct	n/a	0.37109	no	n/a	n/a
377.6445312	n/a	96677	largeTSmallH	correct	incongruent	0.44141	no	T	H
378.0859375	n/a	96790	responseSmallH	correct	n/a	0.44141	no	n/a	n/a
379.1523438	n/a	97063	largeTSmallH	correct	incongruent	0.38281	no	T	H
379.5351562	n/a	97161	responseSmallH	correct	n/a	0.38281	no	n/a	n/a
380.6054688	n/a	97435	largeHSmallT	error	incongruent	0.30078	no	H	T
380.90625	n/a	97512	responseSmallH	error	n/a	0.30078	no	n/a	n/a
381.9765625	n/a	97786	largeTSmallT	correct	congruent	0.39453	no	T	T
382.3710938	n/a	97887	responseSmallT	correct	n/a	0.39453	no	n/a	n/a
383.4453125	n/a	98162	largeTSmallT	correct	congruent	0.46094	no	T	T
383.90625	n/a	98280	responseSmallT	correct	n/a	0.46094	no	n/a	n/a
384.9765625	n/a	98554	largeTSmallH	correct	incongruent	0.45703	no	T	H
385.4335938	n/a	98671	responseSmallH	correct	n/a	0.45703	no	n/a	n/a
386.4960938	n/a	98943	largeTSmallT	correct	congruent	0.67578	no	T	T
387.171875	n/a	99116	responseSmallT	correct	n/a	0.67578	no	n/a	n/a
388.2421875	n/a	99390	largeTSmallT	correct	congruent	0.35156	no	T	T
388.59375	n/a	99480	responseSmallT	correct	n/a	0.35156	no	n/a	n/a
389.671875	n/a	99756	largeHSmallT	error	incongruent	0.48828	no	H	T
390.1601562	n/a	99881	responseSmallH	error	n/a	0.48828	no	n/a	n/a
391.2304688	n/a	100155	largeHSmallT	correct	incongruent	0.64844	no	H	T
391.8789062	n/a	100321	responseSmallT	correct	n/a	0.64844	no	n/a	n/a
392.9492188	n/a	100595	largeHSmallT	correct	incongruent	0.40625	no	H	T
393.3554688	n/a	100699	responseSmallT	correct	n/a	0.40625	no	n/a	n/a
394.4296875	n/a	100974	largeHSmallT	correct	incongruent	0.37109	no	H	T
394.8007812	n/a	101069	responseSmallT	correct	n/a	0.37109	no	n/a	n/a
395.8828125	n/a	101346	largeTSmallT	correct	congruent	0.39844	no	T	T
396.28125	n/a	101448	responseSmallT	correct	n/a	0.39844	no	n/a	n/a
397.3515625	n/a	101722	largeTSmallH	correct	incongruent	1.0586	no	T	H
398.4101562	n/a	101993	responseSmallH	correct	n/a	1.0586	no	n/a	n/a
399.484375	n/a	102268	largeHSmallH	correct	congruent	0.44141	no	H	H
399.9257812	n/a	102381	responseSmallH	correct	n/a	0.44141	no	n/a	n/a
400.9882812	n/a	102653	largeTSmallH	correct	incongruent	0.60156	no	T	H
401.5898438	n/a	102807	responseSmallH	correct	n/a	0.60156	no	n/a	n/a
402.6679688	n/a	103083	largeHSmallH	correct	congruent	0.41016	no	H	H
403.078125	n/a	103188	responseSmallH	correct	n/a	0.41016	no	n/a	n/a
404.1484375	n/a	103462	largeTSmallT	correct	congruent	0.60938	no	T	T
404.7578125	n/a	103618	responseSmallT	correct	n/a	0.60938	no	n/a	n/a
405.828125	n/a	103892	largeTSmallT	correct	congruent	0.67578	no	T	T
406.5039062	n/a	104065	responseSmallT	correct	n/a	0.67578	no	n/a	n/a
407.578125	n/a	104340	largeHSmallH	correct	congruent	1.0039	no	H	H
408.5820312	n/a	104597	responseSmallH	correct	n/a	1.0039	no	n/a	n/a
409.65625	n/a	104872	largeHSmallH	correct	congruent	0.43359	no	H	H
410.0898438	n/a	104983	responseSmallH	correct	n/a	0.43359	no	n/a	n/a
411.1640625	n/a	105258	largeTSmallH	correct	incongruent	0.40625	no	T	H
411.5703125	n/a	105362	responseSmallH	correct	n/a	0.40625	no	n/a	n/a
412.6445312	n/a	105637	largeHSmallH	correct	congruent	0.31641	no	H	H
412.9609375	n/a	105718	responseSmallH	correct	n/a	0.31641	no	n/a	n/a
414.0429688	n/a	105995	largeTSmallT	error	congruent	0.35156	no	T	T
414.3945312	n/a	106085	responseSmallH	error	n/a	0.35156	no	n/a	n/a
415.46875	n/a	106360	largeTSmallH	correct	incongruent	0.81641	no	T	H
416.2851562	n/a	106569	responseSmallH	correct	n/a	0.81641	no	n/a	n/a
417.3632812	n/a	106845	largeHSmallH	correct	congruent	0.48047	no	H	H
417.84375	n/a	106968	responseSmallH	correct	n/a	0.48047	no	n/a	n/a
418.921875	n/a	107244	largeHSmallH	correct	congruent	0.51953	no	H	H
419.4414062	n/a	107377	responseSmallH	correct	n/a	0.51953	no	n/a	n/a
420.5078125	n/a	107650	largeTSmallT	correct	congruent	0.66016	no	T	T
421.1679688	n/a	107819	responseSmallT	correct	n/a	0.66016	no	n/a	n/a
422.2421875	n/a	108094	largeTSmallH	correct	incongruent	0.61719	no	T	H
422.859375	n/a	108252	responseSmallH	correct	n/a	0.61719	no	n/a	n/a
423.921875	n/a	108524	largeTSmallT	correct	congruent	0.63281	no	T	T
424.5546875	n/a	108686	responseSmallT	correct	n/a	0.63281	no	n/a	n/a
425.6289062	n/a	108961	largeTSmallH	error	incongruent	0.53516	no	T	H
426.1640625	n/a	109098	responseSmallT	error	n/a	0.53516	no	n/a	n/a
427.2421875	n/a	109374	largeHSmallT	correct	incongruent	0.67969	no	H	T
427.921875	n/a	109548	responseSmallT	correct	n/a	0.67969	no	n/a	n/a
429.0039062	n/a	109825	largeHSmallT	correct	incongruent	0.39453	no	H	T
429.3984375	n/a	109926	responseSmallT	correct	n/a	0.39453	no	n/a	n/a
430.46875	n/a	110200	largeTSmallT	correct	congruent	0.45703	no	T	T
430.9257812	n/a	110317	responseSmallT	correct	n/a	0.45703	no	n/a	n/a
431.9882812	n/a	110589	largeTSmallT	correct	congruent	0.39453	no	T	T
432.3828125	n/a	110690	responseSmallT	correct	n/a	0.39453	no	n/a	n/a
433.4570312	n/a	110965	largeTSmallH	error	incongruent	0.36719	no	T	H
433.8242188	n/a	111059	responseSmallT	error	n/a	0.36719	no	n/a	n/a
434.8945312	n/a	111333	largeHSmallH	correct	congruent	0.46484	no	H	H
435.359375	n/a	111452	responseSmallH	correct	n/a	0.46484	no	n/a	n/a
436.4140625	n/a	111722	largeTSmallT	correct	congruent	0.55078	no	T	T
436.9648438	n/a	111863	responseSmallT	correct	n/a	0.55078	no	n/a	n/a
438.0273438	n/a	112135	largeTSmallT	correct	congruent	0.61328	no	T	T
438.640625	n/a	112292	responseSmallT	correct	n/a	0.61328	no	n/a	n/a
439.7070312	n/a	112565	largeTSmallH	correct	incongruent	1.0273	no	T	H
440.734375	n/a	112828	responseSmallH	correct	n/a	1.0273	no	n/a	n/a
441.8007812	n/a	113101	largeHSmallT	correct	incongruent	0.57031	no	H	T
442.3710938	n/a	113247	responseSmallT	correct	n/a	0.57031	no	n/a	n/a
443.4414062	n/a	113521	largeTSmallH	error	incongruent	0.5625	no	T	H
444.0039062	n/a	113665	responseSmallT	error	n/a	0.5625	no	n/a	n/a
445.0820312	n/a	113941	largeHSmallT	correct	incongruent	0.69922	no	H	T
445.78125	n/a	114120	responseSmallT	correct	n/a	0.69922	no	n/a	n/a
446.84375	n/a	114392	largeHSmallT	correct	incongruent	0.61328	no	H	T
447.4570312	n/a	114549	responseSmallT	correct	n/a	0.61328	no	n/a	n/a
448.5351562	n/a	114825	largeTSmallT	correct	congruent	0.44531	no	T	T
448.9804688	n/a	114939	responseSmallT	correct	n/a	0.44531	no	n/a	n/a
450.0546875	n/a	115214	largeHSmallT	correct	incongruent	0.39844	no	H	T
450.453125	n/a	115316	responseSmallT	correct	n/a	0.39844	no	n/a	n/a
451.5234375	n/a	115590	largeHSmallT	correct	incongruent	0.48047	no	H	T
452.0039062	n/a	115713	responseSmallT	correct	n/a	0.48047	no	n/a	n/a
453.0703125	n/a	115986	largeTSmallH	correct	incongruent	0.72266	no	T	H
453.7929688	n/a	116171	responseSmallH	correct	n/a	0.72266	no	n/a	n/a
454.8554688	n/a	116443	largeHSmallT	correct	incongruent	0.60156	no	H	T
455.4570312	n/a	116597	responseSmallT	correct	n/a	0.60156	no	n/a	n/a
456.5351562	n/a	116873	largeHSmallT	correct	incongruent	0.79297	no	H	T
457.328125	n/a	117076	responseSmallT	correct	n/a	0.79297	no	n/a	n/a
458.4023438	n/a	117351	largeTSmallT	correct	congruent	0.50781	no	T	T
458.9101562	n/a	117481	responseSmallT	correct	n/a	0.50781	no	n/a	n/a
459.9765625	n/a	117754	largeTSmallH	error	incongruent	0.42969	no	T	H
460.40625	n/a	117864	responseSmallT	error	n/a	0.42969	no	n/a	n/a
461.4804688	n/a	118139	largeTSmallH	correct	incongruent	0.49609	no	T	H
461.9765625	n/a	118266	responseSmallH	correct	n/a	0.49609	no	n/a	n/a
463.0546875	n/a	118542	largeHSmallH	correct	congruent	0.43359	no	H	H
463.4882812	n/a	118653	responseSmallH	correct	n/a	0.43359	no	n/a	n/a
464.5625	n/a	118928	largeHSmallH	correct	congruent	3.4453	yes	H	H
468.0078125	n/a	119810	responseSmallH	correct	n/a	3.4453	yes	n/a	n/a
469.0664062	n/a	120081	largeTSmallH	correct	incongruent	0.71094	no	T	H
469.7773438	n/a	120263	responseSmallH	correct	n/a	0.71094	no	n/a	n/a
470.8554688	n/a	120539	largeHSmallH	correct	congruent	0.37891	no	H	H
471.234375	n/a	120636	responseSmallH	correct	n/a	0.37891	no	n/a	n/a
472.3085938	n/a	120911	largeTSmallT	error	congruent	0.35156	no	T	T
472.6601562	n/a	121001	responseSmallH	error	n/a	0.35156	no	n/a	n/a
473.75	n/a	121280	largeHSmallH	correct	congruent	0.53906	no	H	H
474.2890625	n/a	121418	responseSmallH	correct	n/a	0.53906	no	n/a	n/a
475.3632812	n/a	121693	largeHSmallT	correct	incongruent	0.41797	no	H	T
475.78125	n/a	121800	responseSmallT	correct	n/a	0.41797	no	n/a	n/a
476.8554688	n/a	122075	largeTSmallH	error	incongruent	0.35547	no	T	H
477.2109375	n/a	122166	responseSmallT	error	n/a	0.35547	no	n/a	n/a
478.28125	n/a	122440	largeTSmallH	correct	incongruent	0.57422	no	T	H
478.8554688	n/a	122587	responseSmallH	correct	n/a	0.57422	no	n/a	n/a
479.9335938	n/a	122863	largeTSmallT	correct	congruent	0.64062	no	T	T
480.5742188	n/a	123027	responseSmallT	correct	n/a	0.64062	no	n/a	n/a
481.640625	n/a	123300	largeTSmallH	error	incongruent	0.71875	no	T	H
482.359375	n/a	123484	responseSmallT	error	n/a	0.71875	no	n/a	n/a
483.4296875	n/a	123758	largeTSmallH	correct	incongruent	0.65234	no	T	H
484.0820312	n/a	123925	responseSmallH	correct	n/a	0.65234	no	n/a	n/a
485.1601562	n/a	124201	largeHSmallT	correct	incongruent	0.57031	no	H	T
485.7304688	n/a	124347	responseSmallT	correct	n/a	0.57031	no	n/a	n/a
486.7851562	n/a	124617	largeTSmallH	correct	incongruent	0.54297	no	T	H
487.328125	n/a	124756	responseSmallH	correct	n/a	0.54297	no	n/a	n/a
488.4023438	n/a	125031	largeHSmallT	correct	incongruent	0.92969	no	H	T
489.3320312	n/a	125269	responseSmallT	correct	n/a	0.92969	no	n/a	n/a
490.4023438	n/a	125543	largeHSmallT	correct	incongruent	0.66797	no	H	T
491.0703125	n/a	125714	responseSmallT	correct	n/a	0.66797	no	n/a	n/a
492.1484375	n/a	125990	largeTSmallH	error	incongruent	0.44141	no	T	H
492.5898438	n/a	126103	responseSmallT	error	n/a	0.44141	no	n/a	n/a
493.6523438	n/a	126375	largeHSmallH	correct	congruent	0.64062	no	H	H
494.2929688	n/a	126539	responseSmallH	correct	n/a	0.64062	no	n/a	n/a
495.359375	n/a	126812	largeHSmallT	correct	incongruent	0.83594	no	H	T
496.1953125	n/a	127026	responseSmallT	correct	n/a	0.83594	no	n/a	n/a
497.265625	n/a	127300	largeTSmallT	correct	congruent	0.59375	no	T	T
497.859375	n/a	127452	responseSmallT	correct	n/a	0.59375	no	n/a	n/a
498.9335938	n/a	127727	largeHSmallT	correct	incongruent	0.48438	no	H	T
499.4179688	n/a	127851	responseSmallT	correct	n/a	0.48438	no	n/a	n/a
500.4960938	n/a	128127	largeHSmallH	correct	congruent	0.64844	no	H	H
501.1445312	n/a	128293	responseSmallH	correct	n/a	0.64844	no	n/a	n/a
502.1992188	n/a	128563	largeTSmallT	correct	congruent	1.1836	no	T	T
503.3828125	n/a	128866	responseSmallT	correct	n/a	1.1836	no	n/a	n/a
504.453125	n/a	129140	largeHSmallT	correct	incongruent	0.51953	no	H	T
504.9726562	n/a	129273	responseSmallT	correct	n/a	0.51953	no	n/a	n/a
506.0390625	n/a	129546	largeHSmallH	error	congruent	0.375	no	H	H
506.4140625	n/a	129642	responseSmallT	error	n/a	0.375	no	n/a	n/a
507.4804688	n/a	129915	largeHSmallH	correct	congruent	0.5	no	H	H
507.9804688	n/a	130043	responseSmallH	correct	n/a	0.5	no	n/a	n/a
509.0546875	n/a	130318	largeTSmallH	correct	incongruent	0.89062	no	T	H
509.9453125	n/a	130546	responseSmallH	correct	n/a	0.89062	no	n/a	n/a
511.0273438	n/a	130823	largeHSmallH	correct	congruent	0.50391	no	H	H
511.53125	n/a	130952	responseSmallH	correct	n/a	0.50391	no	n/a	n/a
512.6015625	n/a	131226	largeTSmallH	correct	incongruent	0.71484	no	T	H
513.3164062	n/a	131409	responseSmallH	correct	n/a	0.71484	no	n/a	n/a
514.3867188	n/a	131683	largeHSmallH	correct	congruent	1.4062	no	H	H
515.7929688	n/a	132043	responseSmallH	correct	n/a	1.4062	no	n/a	n/a
516.8554688	n/a	132315	largeTSmallT	correct	congruent	0.55859	no	T	T
517.4140625	n/a	132458	responseSmallT	correct	n/a	0.55859	no	n/a	n/a
518.4804688	n/a	132731	largeTSmallT	correct	congruent	0.48047	no	T	T
518.9609375	n/a	132854	responseSmallT	correct	n/a	0.48047	no	n/a	n/a
520.0390625	n/a	133130	largeHSmallT	correct	incongruent	0.85938	no	H	T
520.8984375	n/a	133350	responseSmallT	correct	n/a	0.85938	no	n/a	n/a
521.9726562	n/a	133625	largeTSmallT	error	congruent	1.832	yes	T	T
523.8046875	n/a	134094	responseSmallH	error	n/a	1.832	yes	n/a	n/a
524.8789062	n/a	134369	largeTSmallT	correct	congruent	0.45703	no	T	T
525.3359375	n/a	134486	responseSmallT	correct	n/a	0.45703	no	n/a	n/a
526.3984375	n/a	134758	largeHSmallT	correct	incongruent	0.38281	no	H	T
526.78125	n/a	134856	responseSmallT	correct	n/a	0.38281	no	n/a	n/a
527.8515625	n/a	135130	largeHSmallH	error	congruent	0.35938	no	H	H
528.2109375	n/a	135222	responseSmallT	error	n/a	0.35938	no	n/a	n/a
529.2929688	n/a	135499	largeTSmallT	correct	congruent	0.5	no	T	T
529.7929688	n/a	135627	responseSmallT	correct	n/a	0.5	no	n/a	n/a
530.8671875	n/a	135902	largeTSmallT	correct	congruent	0.44531	no	T	T
531.3125	n/a	136016	responseSmallT	correct	n/a	0.44531	no	n/a	n/a
532.375	n/a	136288	largeTSmallH	error	incongruent	0.48047	no	T	H
532.8554688	n/a	136411	responseSmallT	error	n/a	0.48047	no	n/a	n/a
533.9179688	n/a	136683	largeTSmallT	correct	congruent	0.50391	no	T	T
534.421875	n/a	136812	responseSmallT	correct	n/a	0.50391	no	n/a	n/a
535.4921875	n/a	137086	largeHSmallT	correct	incongruent	0.625	no	H	T
536.1171875	n/a	137246	responseSmallT	correct	n/a	0.625	no	n/a	n/a
537.1875	n/a	137520	largeTSmallH	error	incongruent	0.89062	no	T	H
538.078125	n/a	137748	responseSmallT	error	n/a	0.89062	no	n/a	n/a
539.1445312	n/a	138021	largeHSmallH	error	congruent	0.60938	no	H	H
539.7539062	n/a	138177	responseSmallT	error	n/a	0.60938	no	n/a	n/a
540.8125	n/a	138448	largeHSmallH	correct	congruent	2.2227	yes	H	H
543.0351562	n/a	139017	responseSmallH	correct	n/a	2.2227	yes	n/a	n/a
544.1054688	n/a	139291	largeHSmallT	correct	incongruent	0.52344	no	H	T
544.6289062	n/a	139425	responseSmallT	correct	n/a	0.52344	no	n/a	n/a
545.7070312	n/a	139701	largeTSmallT	correct	congruent	0.80078	no	T	T
546.5078125	n/a	139906	responseSmallT	correct	n/a	0.80078	no	n/a	n/a
547.5742188	n/a	140179	largeTSmallT	error	congruent	1.1797	no	T	T
548.7539062	n/a	140481	responseSmallH	error	n/a	1.1797	no	n/a	n/a
549.8125	n/a	140752	largeTSmallT	correct	congruent	0.90234	no	T	T
550.7148438	n/a	140983	responseSmallT	correct	n/a	0.90234	no	n/a	n/a
551.7851562	n/a	141257	largeTSmallT	correct	congruent	0.99609	no	T	T
552.78125	n/a	141512	responseSmallT	correct	n/a	0.99609	no	n/a	n/a
553.8398438	n/a	141783	largeTSmallT	correct	congruent	0.60938	no	T	T
554.4492188	n/a	141939	responseSmallT	correct	n/a	0.60938	no	n/a	n/a
555.5195312	n/a	142213	largeHSmallH	correct	congruent	0.65625	no	H	H
556.1757812	n/a	142381	responseSmallH	correct	n/a	0.65625	no	n/a	n/a
557.2382812	n/a	142653	largeTSmallT	correct	congruent	0.68359	no	T	T
557.921875	n/a	142828	responseSmallT	correct	n/a	0.68359	no	n/a	n/a
559	n/a	143104	largeHSmallH	correct	congruent	0.58594	no	H	H
559.5859375	n/a	143254	responseSmallH	correct	n/a	0.58594	no	n/a	n/a
560.6640625	n/a	143530	largeHSmallT	correct	incongruent	0.55859	no	H	T
561.2226562	n/a	143673	responseSmallT	correct	n/a	0.55859	no	n/a	n/a
562.3046875	n/a	143950	largeTSmallH	correct	incongruent	0.66797	no	T	H
562.9726562	n/a	144121	responseSmallH	correct	n/a	0.66797	no	n/a	n/a
564.0507812	n/a	144397	largeTSmallT	correct	congruent	0.54297	no	T	T
564.59375	n/a	144536	responseSmallT	correct	n/a	0.54297	no	n/a	n/a
565.6640625	n/a	144810	largeHSmallH	correct	congruent	2.3203	yes	H	H
567.984375	n/a	145404	responseSmallH	correct	n/a	2.3203	yes	n/a	n/a
569.0507812	n/a	145677	largeHSmallT	correct	incongruent	0.50781	no	H	T
569.5585938	n/a	145807	responseSmallT	correct	n/a	0.50781	no	n/a	n/a
570.625	n/a	146080	largeTSmallH	correct	incongruent	0.54297	no	T	H
571.1679688	n/a	146219	responseSmallH	correct	n/a	0.54297	no	n/a	n/a
572.2382812	n/a	146493	largeTSmallT	correct	congruent	0.64844	no	T	T
572.8867188	n/a	146659	responseSmallT	correct	n/a	0.64844	no	n/a	n/a
573.9570312	n/a	146933	largeHSmallH	correct	congruent	0.47266	no	H	H
574.4296875	n/a	147054	responseSmallH	correct	n/a	0.47266	no	n/a	n/a
575.4921875	n/a	147326	largeTSmallH	correct	incongruent	1.2344	no	T	H
576.7265625	n/a	147642	responseSmallH	correct	n/a	1.2344	no	n/a	n/a
577.7851562	n/a	147913	largeTSmallT	correct	congruent	0.54688	no	T	T
578.3320312	n/a	148053	responseSmallT	correct	n/a	0.54688	no	n/a	n/a
579.3984375	n/a	148326	largeHSmallH	correct	congruent	0.64844	no	H	H
580.046875	n/a	148492	responseSmallH	correct	n/a	0.64844	no	n/a	n/a
581.1171875	n/a	148766	largeTSmallT	correct	congruent	0.42578	no	T	T
581.5429688	n/a	148875	responseSmallT	correct	n/a	0.42578	no	n/a	n/a
582.6132812	n/a	149149	largeHSmallT	correct	incongruent	0.38672	no	H	T
583	n/a	149248	responseSmallT	correct	n/a	0.38672	no	n/a	n/a
584.078125	n/a	149524	largeTSmallH	error	incongruent	0.55859	no	T	H
584.6367188	n/a	149667	responseSmallT	error	n/a	0.55859	no	n/a	n/a
585.6914062	n/a	149937	largeHSmallH	correct	congruent	0.49219	no	H	H
586.1835938	n/a	150063	responseSmallH	correct	n/a	0.49219	no	n/a	n/a
587.265625	n/a	150340	largeHSmallT	correct	incongruent	0.69922	no	H	T
587.9648438	n/a	150519	responseSmallT	correct	n/a	0.69922	no	n/a	n/a
589.0390625	n/a	150794	largeHSmallT	correct	incongruent	0.76562	no	H	T
589.8046875	n/a	150990	responseSmallT	correct	n/a	0.76562	no	n/a	n/a
590.8789062	n/a	151265	largeHSmallH	correct	congruent	0.77734	no	H	H
591.65625	n/a	151464	responseSmallH	correct	n/a	0.77734	no	n/a	n/a
592.71875	n/a	151736	largeHSmallT	correct	incongruent	3.1523	yes	H	T
595.8710938	n/a	152543	responseSmallT	correct	n/a	3.1523	yes	n/a	n/a
596.9453125	n/a	152818	largeTSmallT	correct	congruent	0.5	no	T	T
597.4453125	n/a	152946	responseSmallT	correct	n/a	0.5	no	n/a	n/a
598.5195312	n/a	153221	largeHSmallH	correct	congruent	0.54297	no	H	H
599.0625	n/a	153360	responseSmallH	correct	n/a	0.54297	no	n/a	n/a
600.1328125	n/a	153634	largeHSmallT	correct	incongruent	0.87109	no	H	T
601.0039062	n/a	153857	responseSmallT	correct	n/a	0.87109	no	n/a	n/a
602.078125	n/a	154132	largeTSmallH	correct	incongruent	0.63672	no	T	H
602.7148438	n/a	154295	responseSmallH	correct	n/a	0.63672	no	n/a	n/a
603.7851562	n/a	154569	largeHSmallH	correct	congruent	1	no	H	H
604.7851562	n/a	154825	responseSmallH	correct	n/a	1	no	n/a	n/a
605.8515625	n/a	155098	largeHSmallH	error	congruent	0.40625	no	H	H
606.2578125	n/a	155202	responseSmallT	error	n/a	0.40625	no	n/a	n/a
607.3164062	n/a	155473	largeHSmallH	correct	congruent	0.66797	no	H	H
607.984375	n/a	155644	responseSmallH	correct	n/a	0.66797	no	n/a	n/a
609.0507812	n/a	155917	largeHSmallT	correct	incongruent	0.5625	no	H	T
609.6132812	n/a	156061	responseSmallT	correct	n/a	0.5625	no	n/a	n/a
610.6914062	n/a	156337	largeTSmallH	correct	incongruent	0.45703	no	T	H
611.1484375	n/a	156454	responseSmallH	correct	n/a	0.45703	no	n/a	n/a
612.2265625	n/a	156730	largeTSmallH	correct	incongruent	2.0117	yes	T	H
614.2382812	n/a	157245	responseSmallH	correct	n/a	2.0117	yes	n/a	n/a
615.3046875	n/a	157518	largeHSmallT	correct	incongruent	0.55469	no	H	T
615.859375	n/a	157660	responseSmallT	correct	n/a	0.55469	no	n/a	n/a
616.9296875	n/a	157934	largeHSmallT	correct	incongruent	0.52734	no	H	T
617.4570312	n/a	158069	responseSmallT	correct	n/a	0.52734	no	n/a	n/a
618.5195312	n/a	158341	largeHSmallH	correct	congruent	0.62109	no	H	H
619.140625	n/a	158500	responseSmallH	correct	n/a	0.62109	no	n/a	n/a
620.2109375	n/a	158774	largeTSmallH	correct	incongruent	1.0273	no	T	H
621.2382812	n/a	159037	responseSmallH	correct	n/a	1.0273	no	n/a	n/a
622.3164062	n/a	159313	largeTSmallT	correct	congruent	0.75781	no	T	T
623.0742188	n/a	159507	responseSmallT	correct	n/a	0.75781	no	n/a	n/a
624.1328125	n/a	159778	largeTSmallT	correct	congruent	1.1328	no	T	T
625.265625	n/a	160068	responseSmallT	correct	n/a	1.1328	no	n/a	n/a
626.3320312	n/a	160341	largeTSmallH	correct	incongruent	0.49609	no	T	H
626.828125	n/a	160468	responseSmallH	correct	n/a	0.49609	no	n/a	n/a
627.9023438	n/a	160743	largeHSmallH	error	congruent	0.58594	no	H	H
628.4882812	n/a	160893	responseSmallT	error	n/a	0.58594	no	n/a	n/a
629.5703125	n/a	161170	largeHSmallT	correct	incongruent	1.1914	no	H	T
630.7617188	n/a	161475	responseSmallT	correct	n/a	1.1914	no	n/a	n/a
631.8242188	n/a	161747	largeHSmallT	correct	incongruent	0.5	no	H	T
632.3242188	n/a	161875	responseSmallT	correct	n/a	0.5	no	n/a	n/a
633.3828125	n/a	162146	largeTSmallT	correct	congruent	0.40234	no	T	T
633.7851562	n/a	162249	responseSmallT	correct	n/a	0.40234	no	n/a	n/a
634.8515625	n/a	162522	largeHSmallT	correct	incongruent	0.39844	no	H	T
635.25	n/a	162624	responseSmallT	correct	n/a	0.39844	no	n/a	n/a
636.3164062	n/a	162897	largeTSmallT	correct	congruent	0.39453	no	T	T
636.7109375	n/a	162998	responseSmallT	correct	n/a	0.39453	no	n/a	n/a
637.7695312	n/a	163269	largeTSmallT	correct	congruent	0.36719	no	T	T
638.1367188	n/a	163363	responseSmallT	correct	n/a	0.36719	no	n/a	n/a
639.2109375	n/a	163638	largeHSmallT	correct	incongruent	0.29297	no	H	T
639.5039062	n/a	163713	responseSmallT	correct	n/a	0.29297	no	n/a	n/a
640.5820312	n/a	163989	largeTSmallH	error	incongruent	0.30469	no	T	H
640.8867188	n/a	164067	responseSmallT	error	n/a	0.30469	no	n/a	n/a
641.9570312	n/a	164341	largeHSmallH	correct	congruent	0.57422	no	H	H
642.53125	n/a	164488	responseSmallH	correct	n/a	0.57422	no	n/a	n/a
643.609375	n/a	164764	largeHSmallT	correct	incongruent	0.51562	no	H	T
644.125	n/a	164896	responseSmallT	correct	n/a	0.51562	no	n/a	n/a
645.1953125	n/a	165170	largeHSmallH	correct	congruent	0.63672	no	H	H
645.8320312	n/a	165333	responseSmallH	correct	n/a	0.63672	no	n/a	n/a
646.9023438	n/a	165607	largeTSmallH	correct	incongruent	0.72266	no	T	H
647.625	n/a	165792	responseSmallH	correct	n/a	0.72266	no	n/a	n/a
648.6914062	n/a	166065	largeTSmallT	correct	congruent	0.57031	no	T	T
649.2617188	n/a	166211	responseSmallT	correct	n/a	0.57031	no	n/a	n/a
650.328125	n/a	166484	largeHSmallT	correct	incongruent	0.60547	no	H	T
650.9335938	n/a	166639	responseSmallT	correct	n/a	0.60547	no	n/a	n/a
651.9960938	n/a	166911	largeTSmallH	correct	incongruent	0.5	no	T	H
652.4960938	n/a	167039	responseSmallH	correct	n/a	0.5	no	n/a	n/a
653.5703125	n/a	167314	largeHSmallH	error	congruent	1.707	yes	H	H
655.2773438	n/a	167751	responseSmallT	error	n/a	1.707	yes	n/a	n/a
656.3554688	n/a	168027	largeHSmallT	correct	incongruent	0.54688	no	H	T
656.9023438	n/a	168167	responseSmallT	correct	n/a	0.54688	no	n/a	n/a
657.96875	n/a	168440	largeTSmallH	correct	incongruent	0.67188	no	T	H
658.640625	n/a	168612	responseSmallH	correct	n/a	0.67188	no	n/a	n/a
659.703125	n/a	168884	largeTSmallH	error	incongruent	0.44922	no	T	H
660.1523438	n/a	168999	responseSmallT	error	n/a	0.44922	no	n/a	n/a
661.2226562	n/a	169273	largeHSmallT	correct	incongruent	0.80078	no	H	T
662.0234375	n/a	169478	responseSmallT	correct	n/a	0.80078	no	n/a	n/a
663.0898438	n/a	169751	largeTSmallH	correct	incongruent	0.43359	no	T	H
663.5234375	n/a	169862	responseSmallH	correct	n/a	0.43359	no	n/a	n/a
664.5976562	n/a	170137	largeHSmallH	correct	congruent	0.39844	no	H	H
664.9960938	n/a	170239	responseSmallH	correct	n/a	0.39844	no	n/a	n/a
666.078125	n/a	170516	largeHSmallT	correct	incongruent	0.60938	no	H	T
666.6875	n/a	170672	responseSmallT	correct	n/a	0.60938	no	n/a	n/a
667.7578125	n/a	170946	largeHSmallT	correct	incongruent	0.63281	no	H	T
668.390625	n/a	171108	responseSmallT	correct	n/a	0.63281	no	n/a	n/a
669.4492188	n/a	171379	largeTSmallH	correct	incongruent	0.45312	no	T	H
669.9023438	n/a	171495	responseSmallH	correct	n/a	0.45312	no	n/a	n/a
670.96875	n/a	171768	largeTSmallH	correct	incongruent	0.68359	no	T	H
671.6523438	n/a	171943	responseSmallH	correct	n/a	0.68359	no	n/a	n/a
672.7304688	n/a	172219	largeHSmallH	correct	congruent	0.46484	no	H	H
673.1953125	n/a	172338	responseSmallH	correct	n/a	0.46484	no	n/a	n/a
674.2617188	n/a	172611	largeHSmallH	correct	congruent	0.61328	no	H	H
674.875	n/a	172768	responseSmallH	correct	n/a	0.61328	no	n/a	n/a
675.9414062	n/a	173041	largeHSmallH	correct	congruent	0.47266	no	H	H
676.4140625	n/a	173162	responseSmallH	correct	n/a	0.47266	no	n/a	n/a
677.4882812	n/a	173437	largeHSmallT	correct	incongruent	0.61328	no	H	T
678.1015625	n/a	173594	responseSmallT	correct	n/a	0.61328	no	n/a	n/a
679.1679688	n/a	173867	largeTSmallT	correct	congruent	0.96094	no	T	T
680.1289062	n/a	174113	responseSmallT	correct	n/a	0.96094	no	n/a	n/a
681.2109375	n/a	174390	largeTSmallH	correct	incongruent	0.51172	no	T	H
681.7226562	n/a	174521	responseSmallH	correct	n/a	0.51172	no	n/a	n/a
682.796875	n/a	174796	largeHSmallH	correct	congruent	0.46484	no	H	H
683.2617188	n/a	174915	responseSmallH	correct	n/a	0.46484	no	n/a	n/a
684.34375	n/a	175192	largeHSmallH	correct	congruent	0.73828	no	H	H
685.0820312	n/a	175381	responseSmallH	correct	n/a	0.73828	no	n/a	n/a
686.140625	n/a	175652	largeHSmallH	correct	congruent	0.62109	no	H	H
686.7617188	n/a	175811	responseSmallH	correct	n/a	0.62109	no	n/a	n/a
687.8359375	n/a	176086	largeHSmallH	correct	congruent	0.5625	no	H	H
688.3984375	n/a	176230	responseSmallH	correct	n/a	0.5625	no	n/a	n/a
689.4765625	n/a	176506	largeHSmallH	correct	congruent	0.5	no	H	H
689.9765625	n/a	176634	responseSmallH	correct	n/a	0.5	no	n/a	n/a
691.0507812	n/a	176909	largeTSmallT	error	congruent	0.73438	no	T	T
691.7851562	n/a	177097	responseSmallH	error	n/a	0.73438	no	n/a	n/a
692.8632812	n/a	177373	largeTSmallH	correct	incongruent	2.5195	yes	T	H
695.3828125	n/a	178018	responseSmallH	correct	n/a	2.5195	yes	n/a	n/a
696.4609375	n/a	178294	largeHSmallT	correct	incongruent	0.57812	no	H	T
697.0390625	n/a	178442	responseSmallT	correct	n/a	0.57812	no	n/a	n/a
698.1171875	n/a	178718	largeTSmallT	correct	congruent	0.58594	no	T	T
698.703125	n/a	178868	responseSmallT	correct	n/a	0.58594	no	n/a	n/a
699.7695312	n/a	179141	largeTSmallT	correct	congruent	0.51953	no	T	T
700.2890625	n/a	179274	responseSmallT	correct	n/a	0.51953	no	n/a	n/a
701.3554688	n/a	179547	largeTSmallT	correct	congruent	0.38672	no	T	T
701.7421875	n/a	179646	responseSmallT	correct	n/a	0.38672	no	n/a	n/a
702.8085938	n/a	179919	largeTSmallH	error	incongruent	0.35547	no	T	H
703.1640625	n/a	180010	responseSmallT	error	n/a	0.35547	no	n/a	n/a
704.2226562	n/a	180281	largeHSmallT	correct	incongruent	0.49219	no	H	T
704.7148438	n/a	180407	responseSmallT	correct	n/a	0.49219	no	n/a	n/a
705.78125	n/a	180680	largeTSmallH	correct	incongruent	0.68359	no	T	H
706.4648438	n/a	180855	responseSmallH	correct	n/a	0.68359	no	n/a	n/a
707.5429688	n/a	181131	largeHSmallH	correct	congruent	0.36328	no	H	H
707.90625	n/a	181224	responseSmallH	correct	n/a	0.36328	no	n/a	n/a
708.96875	n/a	181496	largeHSmallH	correct	congruent	0.39844	no	H	H
709.3671875	n/a	181598	responseSmallH	correct	n/a	0.39844	no	n/a	n/a
710.4335938	n/a	181871	largeTSmallH	correct	incongruent	0.61328	no	T	H
711.046875	n/a	182028	responseSmallH	correct	n/a	0.61328	no	n/a	n/a
712.1171875	n/a	182302	largeTSmallH	correct	incongruent	0.57031	no	T	H
712.6875	n/a	182448	responseSmallH	correct	n/a	0.57031	no	n/a	n/a
713.7539062	n/a	182721	largeTSmallH	error	incongruent	1.1562	no	T	H
714.9101562	n/a	183017	responseSmallT	error	n/a	1.1562	no	n/a	n/a
757.40625	n/a	193896	largeHSmallH	correct	congruent	0.85938	no	H	H
758.265625	n/a	194116	responseLargeH	correct	n/a	0.85938	no	n/a	n/a
759.3398438	n/a	194391	largeHSmallT	correct	incongruent	0.33984	no	H	T
759.6796875	n/a	194478	responseLargeH	correct	n/a	0.33984	no	n/a	n/a
760.7421875	n/a	194750	largeHSmallH	correct	congruent	0.54688	no	H	H
761.2890625	n/a	194890	responseLargeH	correct	n/a	0.54688	no	n/a	n/a
762.3554688	n/a	195163	largeTSmallT	correct	congruent	0.57812	no	T	T
762.9335938	n/a	195311	responseLargeT	correct	n/a	0.57812	no	n/a	n/a
764.0078125	n/a	195586	largeTSmallH	correct	incongruent	0.35156	no	T	H
764.359375	n/a	195676	responseLargeT	correct	n/a	0.35156	no	n/a	n/a
765.4335938	n/a	195951	largeTSmallT	correct	congruent	0.33594	no	T	T
765.7695312	n/a	196037	responseLargeT	correct	n/a	0.33594	no	n/a	n/a
766.8476562	n/a	196313	largeHSmallH	error	congruent	0.40625	no	H	H
767.2539062	n/a	196417	responseLargeT	error	n/a	0.40625	no	n/a	n/a
768.328125	n/a	196692	largeHSmallT	correct	incongruent	0.57031	no	H	T
768.8984375	n/a	196838	responseLargeH	correct	n/a	0.57031	no	n/a	n/a
769.96875	n/a	197112	largeHSmallH	correct	congruent	0.37891	no	H	H
770.3476562	n/a	197209	responseLargeH	correct	n/a	0.37891	no	n/a	n/a
771.421875	n/a	197484	largeHSmallH	correct	congruent	0.35547	no	H	H
771.7773438	n/a	197575	responseLargeH	correct	n/a	0.35547	no	n/a	n/a
772.8476562	n/a	197849	largeHSmallT	correct	incongruent	0.55078	no	H	T
773.3984375	n/a	197990	responseLargeH	correct	n/a	0.55078	no	n/a	n/a
774.4726562	n/a	198265	largeHSmallT	correct	incongruent	0.39844	no	H	T
774.8710938	n/a	198367	responseLargeH	correct	n/a	0.39844	no	n/a	n/a
775.9414062	n/a	198641	largeHSmallT	correct	incongruent	0.37109	no	H	T
776.3125	n/a	198736	responseLargeH	correct	n/a	0.37109	no	n/a	n/a
777.3789062	n/a	199009	largeHSmallH	correct	congruent	0.70703	no	H	H
778.0859375	n/a	199190	responseLargeH	correct	n/a	0.70703	no	n/a	n/a
779.1523438	n/a	199463	largeHSmallT	correct	incongruent	0.70703	no	H	T
779.859375	n/a	199644	responseLargeH	correct	n/a	0.70703	no	n/a	n/a
780.9257812	n/a	199917	largeTSmallH	error	incongruent	0.33594	no	T	H
781.2617188	n/a	200003	responseLargeH	error	n/a	0.33594	no	n/a	n/a
782.3398438	n/a	200279	largeTSmallT	correct	congruent	0.39453	no	T	T
782.734375	n/a	200380	responseLargeT	correct	n/a	0.39453	no	n/a	n/a
783.8085938	n/a	200655	largeTSmallT	correct	congruent	0.35547	no	T	T
784.1640625	n/a	200746	responseLargeT	correct	n/a	0.35547	no	n/a	n/a
785.2460938	n/a	201023	largeHSmallH	error	congruent	0.32031	no	H	H
785.5664062	n/a	201105	responseLargeT	error	n/a	0.32031	no	n/a	n/a
786.6484375	n/a	201382	largeHSmallT	correct	incongruent	0.39453	no	H	T
787.0429688	n/a	201483	responseLargeH	correct	n/a	0.39453	no	n/a	n/a
788.1132812	n/a	201757	largeHSmallT	correct	incongruent	0.34766	no	H	T
788.4609375	n/a	201846	responseLargeH	correct	n/a	0.34766	no	n/a	n/a
789.5273438	n/a	202119	largeHSmallT	correct	incongruent	0.32812	no	H	T
789.8554688	n/a	202203	responseLargeH	correct	n/a	0.32812	no	n/a	n/a
790.9414062	n/a	202481	largeTSmallT	correct	congruent	1.1758	no	T	T
792.1171875	n/a	202782	responseLargeT	correct	n/a	1.1758	no	n/a	n/a
793.1796875	n/a	203054	largeTSmallT	correct	congruent	0.36328	no	T	T
793.5429688	n/a	203147	responseLargeT	correct	n/a	0.36328	no	n/a	n/a
794.6210938	n/a	203423	largeTSmallH	error	incongruent	0.625	no	T	H
795.2460938	n/a	203583	responseLargeH	error	n/a	0.625	no	n/a	n/a
796.3125	n/a	203856	largeHSmallH	correct	congruent	0.54297	no	H	H
796.8554688	n/a	203995	responseLargeH	correct	n/a	0.54297	no	n/a	n/a
797.9257812	n/a	204269	largeTSmallH	correct	incongruent	0.54688	no	T	H
798.4726562	n/a	204409	responseLargeT	correct	n/a	0.54688	no	n/a	n/a
799.5390625	n/a	204682	largeHSmallH	error	congruent	0.5	no	H	H
800.0390625	n/a	204810	responseLargeT	error	n/a	0.5	no	n/a	n/a
801.0976562	n/a	205081	largeTSmallT	error	congruent	0.33594	no	T	T
801.4335938	n/a	205167	responseLargeH	error	n/a	0.33594	no	n/a	n/a
802.5117188	n/a	205443	largeHSmallT	correct	incongruent	0.48828	no	H	T
803	n/a	205568	responseLargeH	correct	n/a	0.48828	no	n/a	n/a
804.0742188	n/a	205843	largeTSmallH	correct	incongruent	0.96094	no	T	H
805.0351562	n/a	206089	responseLargeT	correct	n/a	0.96094	no	n/a	n/a
806.1132812	n/a	206365	largeTSmallT	correct	congruent	0.44141	no	T	T
806.5546875	n/a	206478	responseLargeT	correct	n/a	0.44141	no	n/a	n/a
807.6210938	n/a	206751	largeTSmallH	correct	incongruent	0.34375	no	T	H
807.9648438	n/a	206839	responseLargeT	correct	n/a	0.34375	no	n/a	n/a
809.03125	n/a	207112	largeHSmallT	error	incongruent	0.35156	no	H	T
809.3828125	n/a	207202	responseLargeT	error	n/a	0.35156	no	n/a	n/a
810.4453125	n/a	207474	largeHSmallH	correct	congruent	0.48047	no	H	H
810.9257812	n/a	207597	responseLargeH	correct	n/a	0.48047	no	n/a	n/a
811.9921875	n/a	207870	largeTSmallT	error	congruent	0.34375	no	T	T
812.3359375	n/a	207958	responseLargeH	error	n/a	0.34375	no	n/a	n/a
813.4179688	n/a	208235	largeTSmallH	correct	incongruent	0.62891	no	T	H
814.046875	n/a	208396	responseLargeT	correct	n/a	0.62891	no	n/a	n/a
815.1132812	n/a	208669	largeTSmallT	correct	congruent	0.51953	no	T	T
815.6328125	n/a	208802	responseLargeT	correct	n/a	0.51953	no	n/a	n/a
816.6992188	n/a	209075	largeHSmallT	correct	incongruent	0.50391	no	H	T
817.203125	n/a	209204	responseLargeH	correct	n/a	0.50391	no	n/a	n/a
818.2851562	n/a	209481	largeTSmallH	correct	incongruent	0.65625	no	T	H
818.9414062	n/a	209649	responseLargeT	correct	n/a	0.65625	no	n/a	n/a
820.0195312	n/a	209925	largeTSmallT	correct	congruent	0.52344	no	T	T
820.5429688	n/a	210059	responseLargeT	correct	n/a	0.52344	no	n/a	n/a
821.6171875	n/a	210334	largeTSmallT	correct	congruent	0.33594	no	T	T
821.953125	n/a	210420	responseLargeT	correct	n/a	0.33594	no	n/a	n/a
823.0195312	n/a	210693	largeTSmallH	correct	incongruent	0.35938	no	T	H
823.3789062	n/a	210785	responseLargeT	correct	n/a	0.35938	no	n/a	n/a
824.4453125	n/a	211058	largeHSmallH	correct	congruent	0.50781	no	H	H
824.953125	n/a	211188	responseLargeH	correct	n/a	0.50781	no	n/a	n/a
826.0195312	n/a	211461	largeHSmallT	correct	incongruent	0.71094	no	H	T
826.7304688	n/a	211643	responseLargeH	correct	n/a	0.71094	no	n/a	n/a
827.7929688	n/a	211915	largeHSmallT	correct	incongruent	0.38281	no	H	T
828.1757812	n/a	212013	responseLargeH	correct	n/a	0.38281	no	n/a	n/a
829.2460938	n/a	212287	largeHSmallT	correct	incongruent	0.37109	no	H	T
829.6171875	n/a	212382	responseLargeH	correct	n/a	0.37109	no	n/a	n/a
830.6835938	n/a	212655	largeTSmallH	correct	incongruent	0.53125	no	T	H
831.2148438	n/a	212791	responseLargeT	correct	n/a	0.53125	no	n/a	n/a
832.2851562	n/a	213065	largeHSmallT	correct	incongruent	0.51172	no	H	T
832.796875	n/a	213196	responseLargeH	correct	n/a	0.51172	no	n/a	n/a
833.8710938	n/a	213471	largeTSmallH	correct	incongruent	0.39062	no	T	H
834.2617188	n/a	213571	responseLargeT	correct	n/a	0.39062	no	n/a	n/a
835.3398438	n/a	213847	largeHSmallH	correct	congruent	0.49219	no	H	H
835.8320312	n/a	213973	responseLargeH	correct	n/a	0.49219	no	n/a	n/a
836.9101562	n/a	214249	largeTSmallT	correct	congruent	0.39453	no	T	T
837.3046875	n/a	214350	responseLargeT	correct	n/a	0.39453	no	n/a	n/a
838.3789062	n/a	214625	largeTSmallH	correct	incongruent	0.75781	no	T	H
839.1367188	n/a	214819	responseLargeT	correct	n/a	0.75781	no	n/a	n/a
840.21875	n/a	215096	largeHSmallH	correct	congruent	0.83984	no	H	H
841.0585938	n/a	215311	responseLargeH	correct	n/a	0.83984	no	n/a	n/a
842.1367188	n/a	215587	largeTSmallH	error	incongruent	0.48828	no	T	H
842.625	n/a	215712	responseLargeH	error	n/a	0.48828	no	n/a	n/a
843.6992188	n/a	215987	largeHSmallT	correct	incongruent	0.66406	no	H	T
844.3632812	n/a	216157	responseLargeH	correct	n/a	0.66406	no	n/a	n/a
845.4453125	n/a	216434	largeTSmallT	correct	congruent	0.50391	no	T	T
845.9492188	n/a	216563	responseLargeT	correct	n/a	0.50391	no	n/a	n/a
847.0195312	n/a	216837	largeTSmallH	correct	incongruent	0.38672	no	T	H
847.40625	n/a	216936	responseLargeT	correct	n/a	0.38672	no	n/a	n/a
848.484375	n/a	217212	largeHSmallH	correct	congruent	0.51172	no	H	H
848.9960938	n/a	217343	responseLargeH	correct	n/a	0.51172	no	n/a	n/a
850.0703125	n/a	217618	largeHSmallH	correct	congruent	0.47266	no	H	H
850.5429688	n/a	217739	responseLargeH	correct	n/a	0.47266	no	n/a	n/a
851.6171875	n/a	218014	largeHSmallH	correct	congruent	0.65625	no	H	H
852.2734375	n/a	218182	responseLargeH	correct	n/a	0.65625	no	n/a	n/a
853.3515625	n/a	218458	largeHSmallT	correct	incongruent	0.37891	no	H	T
853.7304688	n/a	218555	responseLargeH	correct	n/a	0.37891	no	n/a	n/a
854.8046875	n/a	218830	largeHSmallH	correct	congruent	0.375	no	H	H
855.1796875	n/a	218926	responseLargeH	correct	n/a	0.375	no	n/a	n/a
856.2578125	n/a	219202	largeHSmallT	correct	incongruent	0.37891	no	H	T
856.6367188	n/a	219299	responseLargeH	correct	n/a	0.37891	no	n/a	n/a
857.6992188	n/a	219571	largeTSmallH	error	incongruent	0.34766	no	T	H
858.046875	n/a	219660	responseLargeH	error	n/a	0.34766	no	n/a	n/a
859.125	n/a	219936	largeTSmallT	correct	congruent	0.54297	no	T	T
859.6679688	n/a	220075	responseLargeT	correct	n/a	0.54297	no	n/a	n/a
860.7382812	n/a	220349	largeTSmallT	correct	congruent	0.39062	no	T	T
861.1289062	n/a	220449	responseLargeT	correct	n/a	0.39062	no	n/a	n/a
862.1914062	n/a	220721	largeHSmallH	correct	congruent	0.96094	no	H	H
863.1523438	n/a	220967	responseLargeH	correct	n/a	0.96094	no	n/a	n/a
864.21875	n/a	221240	largeHSmallT	correct	incongruent	0.41016	no	H	T
864.6289062	n/a	221345	responseLargeH	correct	n/a	0.41016	no	n/a	n/a
865.7109375	n/a	221622	largeTSmallH	correct	incongruent	0.57031	no	T	H
866.28125	n/a	221768	responseLargeT	correct	n/a	0.57031	no	n/a	n/a
867.3359375	n/a	222038	largeTSmallH	correct	incongruent	0.41797	no	T	H
867.7539062	n/a	222145	responseLargeT	correct	n/a	0.41797	no	n/a	n/a
868.8320312	n/a	222421	largeTSmallH	correct	incongruent	0.38672	no	T	H
869.21875	n/a	222520	responseLargeT	correct	n/a	0.38672	no	n/a	n/a
870.296875	n/a	222796	largeTSmallT	correct	congruent	0.50391	no	T	T
870.8007812	n/a	222925	responseLargeT	correct	n/a	0.50391	no	n/a	n/a
871.8710938	n/a	223199	largeHSmallT	error	incongruent	0.41016	no	H	T
872.28125	n/a	223304	responseLargeT	error	n/a	0.41016	no	n/a	n/a
873.3515625	n/a	223578	largeHSmallT	correct	incongruent	0.54688	no	H	T
873.8984375	n/a	223718	responseLargeH	correct	n/a	0.54688	no	n/a	n/a
874.9648438	n/a	223991	largeHSmallT	correct	incongruent	0.35938	no	H	T
875.3242188	n/a	224083	responseLargeH	correct	n/a	0.35938	no	n/a	n/a
876.390625	n/a	224356	largeHSmallH	correct	congruent	0.3125	no	H	H
876.703125	n/a	224436	responseLargeH	correct	n/a	0.3125	no	n/a	n/a
877.7773438	n/a	224711	largeTSmallH	correct	incongruent	0.60547	no	T	H
878.3828125	n/a	224866	responseLargeT	correct	n/a	0.60547	no	n/a	n/a
879.4453125	n/a	225138	largeTSmallH	correct	incongruent	0.34766	no	T	H
879.7929688	n/a	225227	responseLargeT	correct	n/a	0.34766	no	n/a	n/a
880.8710938	n/a	225503	largeHSmallH	correct	congruent	0.65234	no	H	H
881.5234375	n/a	225670	responseLargeH	correct	n/a	0.65234	no	n/a	n/a
882.6054688	n/a	225947	largeHSmallH	correct	congruent	0.45703	no	H	H
883.0625	n/a	226064	responseLargeH	correct	n/a	0.45703	no	n/a	n/a
884.125	n/a	226336	largeTSmallT	correct	congruent	0.875	no	T	T
885	n/a	226560	responseLargeT	correct	n/a	0.875	no	n/a	n/a
886.0859375	n/a	226838	largeTSmallT	correct	congruent	0.39453	no	T	T
886.4804688	n/a	226939	responseLargeT	correct	n/a	0.39453	no	n/a	n/a
887.5507812	n/a	227213	largeHSmallH	correct	congruent	0.53906	no	H	H
888.0898438	n/a	227351	responseLargeH	correct	n/a	0.53906	no	n/a	n/a
889.1640625	n/a	227626	largeTSmallH	correct	incongruent	0.55469	no	T	H
889.71875	n/a	227768	responseLargeT	correct	n/a	0.55469	no	n/a	n/a
890.7890625	n/a	228042	largeHSmallT	error	incongruent	0.50781	no	H	T
891.296875	n/a	228172	responseLargeT	error	n/a	0.50781	no	n/a	n/a
892.3632812	n/a	228445	largeHSmallH	correct	congruent	0.38281	no	H	H
892.7460938	n/a	228543	responseLargeH	correct	n/a	0.38281	no	n/a	n/a
893.8164062	n/a	228817	largeTSmallT	correct	congruent	0.66016	no	T	T
894.4765625	n/a	228986	responseLargeT	correct	n/a	0.66016	no	n/a	n/a
895.5507812	n/a	229261	largeTSmallH	error	incongruent	0.46484	no	T	H
896.015625	n/a	229380	responseLargeH	error	n/a	0.46484	no	n/a	n/a
897.0976562	n/a	229657	largeHSmallT	correct	incongruent	0.51172	no	H	T
897.609375	n/a	229788	responseLargeH	correct	n/a	0.51172	no	n/a	n/a
898.6835938	n/a	230063	largeHSmallH	correct	congruent	0.46094	no	H	H
899.1445312	n/a	230181	responseLargeH	correct	n/a	0.46094	no	n/a	n/a
900.21875	n/a	230456	largeHSmallT	correct	incongruent	0.34375	no	H	T
900.5625	n/a	230544	responseLargeH	correct	n/a	0.34375	no	n/a	n/a
901.6289062	n/a	230817	largeTSmallT	error	congruent	0.36719	no	T	T
901.9960938	n/a	230911	responseLargeH	error	n/a	0.36719	no	n/a	n/a
903.0703125	n/a	231186	largeHSmallT	correct	incongruent	0.56641	no	H	T
903.6367188	n/a	231331	responseLargeH	correct	n/a	0.56641	no	n/a	n/a
904.7109375	n/a	231606	largeTSmallT	correct	congruent	0.57031	no	T	T
905.28125	n/a	231752	responseLargeT	correct	n/a	0.57031	no	n/a	n/a
906.3632812	n/a	232029	largeTSmallH	correct	incongruent	0.59375	no	T	H
906.9570312	n/a	232181	responseLargeT	correct	n/a	0.59375	no	n/a	n/a
908.03125	n/a	232456	largeTSmallT	correct	congruent	0.39453	no	T	T
908.4257812	n/a	232557	responseLargeT	correct	n/a	0.39453	no	n/a	n/a
909.4960938	n/a	232831	largeHSmallH	error	congruent	0.33203	no	H	H
909.828125	n/a	232916	responseLargeT	error	n/a	0.33203	no	n/a	n/a
910.8984375	n/a	233190	largeTSmallT	correct	congruent	0.53125	no	T	T
911.4296875	n/a	233326	responseLargeT	correct	n/a	0.53125	no	n/a	n/a
912.5117188	n/a	233603	largeHSmallH	correct	congruent	0.46875	no	H	H
912.9804688	n/a	233723	responseLargeH	correct	n/a	0.46875	no	n/a	n/a
914.0546875	n/a	233998	largeTSmallH	correct	incongruent	0.66406	no	T	H
914.71875	n/a	234168	responseLargeT	correct	n/a	0.66406	no	n/a	n/a
915.7773438	n/a	234439	largeTSmallT	correct	congruent	0.49219	no	T	T
916.2695312	n/a	234565	responseLargeT	correct	n/a	0.49219	no	n/a	n/a
917.3359375	n/a	234838	largeTSmallH	correct	incongruent	0.75391	no	T	H
918.0898438	n/a	235031	responseLargeT	correct	n/a	0.75391	no	n/a	n/a
919.1640625	n/a	235306	largeHSmallH	correct	congruent	0.46875	no	H	H
919.6328125	n/a	235426	responseLargeH	correct	n/a	0.46875	no	n/a	n/a
920.7109375	n/a	235702	largeTSmallT	error	congruent	0.45312	no	T	T
921.1640625	n/a	235818	responseLargeH	error	n/a	0.45312	no	n/a	n/a
922.2421875	n/a	236094	largeTSmallH	correct	incongruent	0.15625	no	T	H
922.3984375	n/a	236134	responseLargeT	correct	n/a	0.15625	no	n/a	n/a
923.46875	n/a	236408	largeTSmallT	correct	congruent	0.44531	no	T	T
923.9140625	n/a	236522	responseLargeT	correct	n/a	0.44531	no	n/a	n/a
924.9882812	n/a	236797	largeHSmallH	correct	congruent	0.53906	no	H	H
925.5273438	n/a	236935	responseLargeH	correct	n/a	0.53906	no	n/a	n/a
926.5898438	n/a	237207	largeTSmallT	error	congruent	0.39453	no	T	T
926.984375	n/a	237308	responseLargeH	error	n/a	0.39453	no	n/a	n/a
928.0585938	n/a	237583	largeTSmallH	correct	incongruent	0.47656	no	T	H
928.5351562	n/a	237705	responseLargeT	correct	n/a	0.47656	no	n/a	n/a
929.6015625	n/a	237978	largeTSmallT	correct	congruent	0.41016	no	T	T
930.0117188	n/a	238083	responseLargeT	correct	n/a	0.41016	no	n/a	n/a
931.0820312	n/a	238357	largeHSmallT	correct	incongruent	0.57812	no	H	T
931.6601562	n/a	238505	responseLargeH	correct	n/a	0.57812	no	n/a	n/a
932.734375	n/a	238780	largeHSmallH	correct	congruent	0.56641	no	H	H
933.3007812	n/a	238925	responseLargeH	correct	n/a	0.56641	no	n/a	n/a
934.375	n/a	239200	largeTSmallH	correct	incongruent	0.45703	no	T	H
934.8320312	n/a	239317	responseLargeT	correct	n/a	0.45703	no	n/a	n/a
935.9101562	n/a	239593	largeTSmallT	correct	congruent	0.47656	no	T	T
936.3867188	n/a	239715	responseLargeT	correct	n/a	0.47656	no	n/a	n/a
937.46875	n/a	239992	largeHSmallH	correct	congruent	0.625	no	H	H
938.09375	n/a	240152	responseLargeH	correct	n/a	0.625	no	n/a	n/a
939.1640625	n/a	240426	largeTSmallH	correct	incongruent	0.46094	no	T	H
939.625	n/a	240544	responseLargeT	correct	n/a	0.46094	no	n/a	n/a
940.6953125	n/a	240818	largeTSmallT	correct	congruent	0.52344	no	T	T
941.21875	n/a	240952	responseLargeT	correct	n/a	0.52344	no	n/a	n/a
942.28125	n/a	241224	largeTSmallT	correct	congruent	0.60938	no	T	T
942.890625	n/a	241380	responseLargeT	correct	n/a	0.60938	no	n/a	n/a
943.9492188	n/a	241651	largeHSmallT	correct	incongruent	0.68359	no	H	T
944.6328125	n/a	241826	responseLargeH	correct	n/a	0.68359	no	n/a	n/a
945.6953125	n/a	242098	largeHSmallH	correct	congruent	0.54297	no	H	H
946.2382812	n/a	242237	responseLargeH	correct	n/a	0.54297	no	n/a	n/a
947.3085938	n/a	242511	largeTSmallH	error	incongruent	0.48828	no	T	H
947.796875	n/a	242636	responseLargeH	error	n/a	0.48828	no	n/a	n/a
948.8671875	n/a	242910	largeTSmallT	correct	congruent	0.46484	no	T	T
949.3320312	n/a	243029	responseLargeT	correct	n/a	0.46484	no	n/a	n/a
950.4023438	n/a	243303	largeHSmallH	correct	congruent	0.47656	no	H	H
950.8789062	n/a	243425	responseLargeH	correct	n/a	0.47656	no	n/a	n/a
951.9375	n/a	243696	largeHSmallH	correct	congruent	0.43359	no	H	H
952.3710938	n/a	243807	responseLargeH	correct	n/a	0.43359	no	n/a	n/a
953.4414062	n/a	244081	largeTSmallT	correct	congruent	1.1211	no	T	T
954.5625	n/a	244368	responseLargeT	correct	n/a	1.1211	no	n/a	n/a
955.640625	n/a	244644	largeHSmallT	correct	incongruent	0.72656	no	H	T
956.3671875	n/a	244830	responseLargeH	correct	n/a	0.72656	no	n/a	n/a
957.4296875	n/a	245102	largeHSmallT	correct	incongruent	0.52344	no	H	T
957.953125	n/a	245236	responseLargeH	correct	n/a	0.52344	no	n/a	n/a
959.0273438	n/a	245511	largeTSmallH	correct	incongruent	0.75391	no	T	H
959.78125	n/a	245704	responseLargeT	correct	n/a	0.75391	no	n/a	n/a
960.8554688	n/a	245979	largeTSmallT	correct	congruent	0.45312	no	T	T
961.3085938	n/a	246095	responseLargeT	correct	n/a	0.45312	no	n/a	n/a
962.375	n/a	246368	largeHSmallT	correct	incongruent	0.89844	no	H	T
963.2734375	n/a	246598	responseLargeH	correct	n/a	0.89844	no	n/a	n/a
964.3476562	n/a	246873	largeTSmallH	correct	incongruent	0.72656	no	T	H
965.0742188	n/a	247059	responseLargeT	correct	n/a	0.72656	no	n/a	n/a
966.1367188	n/a	247331	largeTSmallH	error	incongruent	0.34375	no	T	H
966.4804688	n/a	247419	responseLargeH	error	n/a	0.34375	no	n/a	n/a
967.5625	n/a	247696	largeHSmallH	correct	congruent	0.46875	no	H	H
968.03125	n/a	247816	responseLargeH	correct	n/a	0.46875	no	n/a	n/a
969.109375	n/a	248092	largeHSmallT	correct	incongruent	0.91797	no	H	T
970.0273438	n/a	248327	responseLargeH	correct	n/a	0.91797	no	n/a	n/a
971.09375	n/a	248600	largeHSmallT	correct	incongruent	0.38672	no	H	T
971.4804688	n/a	248699	responseLargeH	correct	n/a	0.38672	no	n/a	n/a
972.546875	n/a	248972	largeHSmallT	correct	incongruent	0.36719	no	H	T
972.9140625	n/a	249066	responseLargeH	correct	n/a	0.36719	no	n/a	n/a
973.9882812	n/a	249341	largeTSmallH	error	incongruent	0.39453	no	T	H
974.3828125	n/a	249442	responseLargeH	error	n/a	0.39453	no	n/a	n/a
975.453125	n/a	249716	largeTSmallH	correct	incongruent	1.1016	no	T	H
976.5546875	n/a	249998	responseLargeT	correct	n/a	1.1016	no	n/a	n/a
977.6132812	n/a	250269	largeHSmallH	correct	congruent	1.0703	no	H	H
978.6835938	n/a	250543	responseLargeH	correct	n/a	1.0703	no	n/a	n/a
979.7617188	n/a	250819	largeTSmallT	correct	congruent	0.66016	no	T	T
980.421875	n/a	250988	responseLargeT	correct	n/a	0.66016	no	n/a	n/a
981.4960938	n/a	251263	largeHSmallH	correct	congruent	0.65234	no	H	H
982.1484375	n/a	251430	responseLargeH	correct	n/a	0.65234	no	n/a	n/a
983.2148438	n/a	251703	largeHSmallH	correct	congruent	0.5625	no	H	H
983.7773438	n/a	251847	responseLargeH	correct	n/a	0.5625	no	n/a	n/a
984.8398438	n/a	252119	largeTSmallT	correct	congruent	0.48438	no	T	T
985.3242188	n/a	252243	responseLargeT	correct	n/a	0.48438	no	n/a	n/a
986.4023438	n/a	252519	largeHSmallT	correct	incongruent	0.71875	no	H	T
987.1210938	n/a	252703	responseLargeH	correct	n/a	0.71875	no	n/a	n/a
988.203125	n/a	252980	largeTSmallT	correct	congruent	0.44922	no	T	T
988.6523438	n/a	253095	responseLargeT	correct	n/a	0.44922	no	n/a	n/a
989.7226562	n/a	253369	largeTSmallT	correct	congruent	0.46484	no	T	T
990.1875	n/a	253488	responseLargeT	correct	n/a	0.46484	no	n/a	n/a
991.2539062	n/a	253761	largeHSmallT	error	incongruent	0.47656	no	H	T
991.7304688	n/a	253883	responseLargeT	error	n/a	0.47656	no	n/a	n/a
992.8007812	n/a	254157	largeTSmallH	correct	incongruent	0.55469	no	T	H
993.3554688	n/a	254299	responseLargeT	correct	n/a	0.55469	no	n/a	n/a
994.4140625	n/a	254570	largeTSmallT	correct	congruent	0.47266	no	T	T
994.8867188	n/a	254691	responseLargeT	correct	n/a	0.47266	no	n/a	n/a
995.9492188	n/a	254963	largeHSmallT	correct	incongruent	0.69141	no	H	T
996.640625	n/a	255140	responseLargeH	correct	n/a	0.69141	no	n/a	n/a
997.7070312	n/a	255413	largeTSmallH	correct	incongruent	0.82031	no	T	H
998.5273438	n/a	255623	responseLargeT	correct	n/a	0.82031	no	n/a	n/a
999.6015625	n/a	255898	largeTSmallH	correct	incongruent	0.67188	no	T	H
1000.273438	n/a	256070	responseLargeT	correct	n/a	0.67188	no	n/a	n/a
1001.347656	n/a	256345	largeHSmallT	error	incongruent	0.59375	no	H	T
1001.941406	n/a	256497	responseLargeT	error	n/a	0.59375	no	n/a	n/a
1003.015625	n/a	256772	largeTSmallH	correct	incongruent	0.71875	no	T	H
1003.734375	n/a	256956	responseLargeT	correct	n/a	0.71875	no	n/a	n/a
1004.8125	n/a	257232	largeHSmallH	correct	congruent	0.60156	no	H	H
1005.414062	n/a	257386	responseLargeH	correct	n/a	0.60156	no	n/a	n/a
1006.480469	n/a	257659	largeHSmallH	correct	congruent	0.48047	no	H	H
1006.960938	n/a	257782	responseLargeH	correct	n/a	0.48047	no	n/a	n/a
1008.039062	n/a	258058	largeTSmallH	correct	incongruent	1.8281	yes	T	H
1009.867188	n/a	258526	responseLargeT	correct	n/a	1.8281	yes	n/a	n/a
1010.933594	n/a	258799	largeTSmallT	correct	congruent	0.65625	no	T	T
1011.589844	n/a	258967	responseLargeT	correct	n/a	0.65625	no	n/a	n/a
1012.652344	n/a	259239	largeHSmallT	correct	incongruent	0.80469	no	H	T
1013.457031	n/a	259445	responseLargeH	correct	n/a	0.80469	no	n/a	n/a
1014.535156	n/a	259721	largeTSmallH	correct	incongruent	0.52734	no	T	H
1015.0625	n/a	259856	responseLargeT	correct	n/a	0.52734	no	n/a	n/a
1016.132812	n/a	260130	largeHSmallH	correct	congruent	1.5039	yes	H	H
1017.636719	n/a	260515	responseLargeH	correct	n/a	1.5039	yes	n/a	n/a
1018.707031	n/a	260789	largeTSmallT	correct	congruent	0.76953	no	T	T
1019.476562	n/a	260986	responseLargeT	correct	n/a	0.76953	no	n/a	n/a
1020.546875	n/a	261260	largeHSmallT	correct	incongruent	0.70703	no	H	T
1021.253906	n/a	261441	responseLargeH	correct	n/a	0.70703	no	n/a	n/a
1022.332031	n/a	261717	largeHSmallH	correct	congruent	0.45312	no	H	H
1022.785156	n/a	261833	responseLargeH	correct	n/a	0.45312	no	n/a	n/a
1023.855469	n/a	262107	largeHSmallT	correct	incongruent	1.0625	no	H	T
1024.917969	n/a	262379	responseLargeH	correct	n/a	1.0625	no	n/a	n/a
1026	n/a	262656	largeHSmallH	correct	congruent	0.53516	no	H	H
1026.535156	n/a	262793	responseLargeH	correct	n/a	0.53516	no	n/a	n/a
1027.601562	n/a	263066	largeTSmallH	error	incongruent	0.46484	no	T	H
1028.066406	n/a	263185	responseLargeH	error	n/a	0.46484	no	n/a	n/a
1029.132812	n/a	263458	largeTSmallH	error	incongruent	1.4023	no	T	H
1030.535156	n/a	263817	responseLargeH	error	n/a	1.4023	no	n/a	n/a
1031.613281	n/a	264093	largeHSmallT	correct	incongruent	0.57422	no	H	T
1032.1875	n/a	264240	responseLargeH	correct	n/a	0.57422	no	n/a	n/a
1033.265625	n/a	264516	largeHSmallT	correct	incongruent	0.62109	no	H	T
1033.886719	n/a	264675	responseLargeH	correct	n/a	0.62109	no	n/a	n/a
1034.960938	n/a	264950	largeTSmallH	correct	incongruent	0.45703	no	T	H
1035.417969	n/a	265067	responseLargeT	correct	n/a	0.45703	no	n/a	n/a
1036.492188	n/a	265342	largeHSmallT	correct	incongruent	0.70312	no	H	T
1037.195312	n/a	265522	responseLargeH	correct	n/a	0.70312	no	n/a	n/a
1038.253906	n/a	265793	largeHSmallH	correct	congruent	0.57812	no	H	H
1038.832031	n/a	265941	responseLargeH	correct	n/a	0.57812	no	n/a	n/a
1039.894531	n/a	266213	largeHSmallT	error	incongruent	0.53125	no	H	T
1040.425781	n/a	266349	responseLargeT	error	n/a	0.53125	no	n/a	n/a
1041.507812	n/a	266626	largeTSmallH	correct	incongruent	0.70312	no	T	H
1042.210938	n/a	266806	responseLargeT	correct	n/a	0.70312	no	n/a	n/a
1043.28125	n/a	267080	largeHSmallH	correct	congruent	0.57031	no	H	H
1043.851562	n/a	267226	responseLargeH	correct	n/a	0.57031	no	n/a	n/a
1044.917969	n/a	267499	largeHSmallT	correct	incongruent	0.54297	no	H	T
1045.460938	n/a	267638	responseLargeH	correct	n/a	0.54297	no	n/a	n/a
1046.546875	n/a	267916	largeTSmallT	correct	congruent	0.69141	no	T	T
1047.238281	n/a	268093	responseLargeT	correct	n/a	0.69141	no	n/a	n/a
1048.304688	n/a	268366	largeTSmallH	correct	incongruent	0.67188	no	T	H
1048.976562	n/a	268538	responseLargeT	correct	n/a	0.67188	no	n/a	n/a
1050.054688	n/a	268814	largeHSmallH	correct	congruent	0.69141	no	H	H
1050.746094	n/a	268991	responseLargeH	correct	n/a	0.69141	no	n/a	n/a
1051.8125	n/a	269264	largeTSmallT	correct	congruent	0.77344	no	T	T
1052.585938	n/a	269462	responseLargeT	correct	n/a	0.77344	no	n/a	n/a
1053.652344	n/a	269735	largeTSmallT	correct	congruent	0.39844	no	T	T
1054.050781	n/a	269837	responseLargeT	correct	n/a	0.39844	no	n/a	n/a
1055.121094	n/a	270111	largeHSmallT	error	incongruent	0.37891	no	H	T
1055.5	n/a	270208	responseLargeT	error	n/a	0.37891	no	n/a	n/a
1056.574219	n/a	270483	largeHSmallH	correct	congruent	0.54688	no	H	H
1057.121094	n/a	270623	responseLargeH	correct	n/a	0.54688	no	n/a	n/a
1058.199219	n/a	270899	largeHSmallH	correct	congruent	0.42188	no	H	H
1058.621094	n/a	271007	responseLargeH	correct	n/a	0.42188	no	n/a	n/a
1059.691406	n/a	271281	largeTSmallT	error	congruent	0.40234	no	T	T
1060.09375	n/a	271384	responseLargeH	error	n/a	0.40234	no	n/a	n/a
1061.160156	n/a	271657	largeTSmallT	correct	congruent	0.54297	no	T	T
1061.703125	n/a	271796	responseLargeT	correct	n/a	0.54297	no	n/a	n/a
1062.773438	n/a	272070	largeTSmallH	correct	incongruent	0.55469	no	T	H
1063.328125	n/a	272212	responseLargeT	correct	n/a	0.55469	no	n/a	n/a
1064.398438	n/a	272486	largeHSmallH	correct	congruent	0.58203	no	H	H
1064.980469	n/a	272635	responseLargeH	correct	n/a	0.58203	no	n/a	n/a
1066.050781	n/a	272909	largeHSmallH	correct	congruent	0.60938	no	H	H
1066.660156	n/a	273065	responseLargeH	correct	n/a	0.60938	no	n/a	n/a
1067.730469	n/a	273339	largeHSmallT	error	incongruent	0.36719	no	H	T
1068.097656	n/a	273433	responseLargeT	error	n/a	0.36719	no	n/a	n/a
1069.160156	n/a	273705	largeTSmallT	correct	congruent	0.59375	no	T	T
1069.753906	n/a	273857	responseLargeT	correct	n/a	0.59375	no	n/a	n/a
1070.824219	n/a	274131	largeTSmallH	correct	incongruent	0.55469	no	T	H
1071.378906	n/a	274273	responseLargeT	correct	n/a	0.55469	no	n/a	n/a
1072.453125	n/a	274548	largeTSmallH	correct	incongruent	0.47266	no	T	H
1072.925781	n/a	274669	responseLargeT	correct	n/a	0.47266	no	n/a	n/a
1074	n/a	274944	largeTSmallH	correct	incongruent	0.46875	no	T	H
1074.46875	n/a	275064	responseLargeT	correct	n/a	0.46875	no	n/a	n/a
1075.546875	n/a	275340	largeHSmallH	correct	congruent	0.46094	no	H	H
1076.007812	n/a	275458	responseLargeH	correct	n/a	0.46094	no	n/a	n/a
1077.09375	n/a	275736	largeTSmallT	error	congruent	0.41016	no	T	T
1077.503906	n/a	275841	responseLargeH	error	n/a	0.41016	no	n/a	n/a
1078.558594	n/a	276111	largeTSmallT	correct	congruent	0.41016	no	T	T
1078.96875	n/a	276216	responseLargeT	correct	n/a	0.41016	no	n/a	n/a
1080.039062	n/a	276490	largeHSmallT	correct	incongruent	0.71094	no	H	T
1080.75	n/a	276672	responseLargeH	correct	n/a	0.71094	no	n/a	n/a
1083.25	n/a	277312	largeTSmallT	correct	congruent	1.0938	no	T	T
1084.34375	n/a	277592	responseSmallT	correct	n/a	1.0938	no	n/a	n/a
1085.410156	n/a	277865	largeHSmallH	correct	congruent	0.58984	no	H	H
1086	n/a	278016	responseSmallH	correct	n/a	0.58984	no	n/a	n/a
1087.066406	n/a	278289	largeTSmallH	correct	incongruent	0.5625	no	T	H
1087.628906	n/a	278433	responseSmallH	correct	n/a	0.5625	no	n/a	n/a
1088.707031	n/a	278709	largeTSmallT	correct	congruent	0.53516	no	T	T
1089.242188	n/a	278846	responseSmallT	correct	n/a	0.53516	no	n/a	n/a
1090.320312	n/a	279122	largeHSmallH	correct	congruent	0.38672	no	H	H
1090.707031	n/a	279221	responseSmallH	correct	n/a	0.38672	no	n/a	n/a
1091.785156	n/a	279497	largeHSmallT	correct	incongruent	0.41406	no	H	T
1092.199219	n/a	279603	responseSmallT	correct	n/a	0.41406	no	n/a	n/a
1093.265625	n/a	279876	largeHSmallT	correct	incongruent	0.61328	no	H	T
1093.878906	n/a	280033	responseSmallT	correct	n/a	0.61328	no	n/a	n/a
1094.945312	n/a	280306	largeHSmallH	error	congruent	0.33594	no	H	H
1095.28125	n/a	280392	responseSmallT	error	n/a	0.33594	no	n/a	n/a
1096.359375	n/a	280668	largeHSmallH	correct	congruent	0.59375	no	H	H
1096.953125	n/a	280820	responseSmallH	correct	n/a	0.59375	no	n/a	n/a
1098.023438	n/a	281094	largeHSmallH	correct	congruent	0.60156	no	H	H
1098.625	n/a	281248	responseSmallH	correct	n/a	0.60156	no	n/a	n/a
1099.691406	n/a	281521	largeHSmallT	correct	incongruent	0.50781	no	H	T
1100.199219	n/a	281651	responseSmallT	correct	n/a	0.50781	no	n/a	n/a
1101.265625	n/a	281924	largeHSmallT	error	incongruent	0.37891	no	H	T
1101.644531	n/a	282021	responseSmallH	error	n/a	0.37891	no	n/a	n/a
1102.71875	n/a	282296	largeTSmallH	correct	incongruent	0.60547	no	T	H
1103.324219	n/a	282451	responseSmallH	correct	n/a	0.60547	no	n/a	n/a
1104.398438	n/a	282726	largeTSmallT	correct	congruent	0.55469	no	T	T
1104.953125	n/a	282868	responseSmallT	correct	n/a	0.55469	no	n/a	n/a
1106.023438	n/a	283142	largeHSmallT	correct	incongruent	0.37891	no	H	T
1106.402344	n/a	283239	responseSmallT	correct	n/a	0.37891	no	n/a	n/a
1107.476562	n/a	283514	largeHSmallH	error	congruent	0.375	no	H	H
1107.851562	n/a	283610	responseSmallT	error	n/a	0.375	no	n/a	n/a
1108.917969	n/a	283883	largeTSmallT	correct	congruent	0.53906	no	T	T
1109.457031	n/a	284021	responseSmallT	correct	n/a	0.53906	no	n/a	n/a
1110.53125	n/a	284296	largeHSmallT	correct	incongruent	0.76953	no	H	T
1111.300781	n/a	284493	responseSmallT	correct	n/a	0.76953	no	n/a	n/a
1112.371094	n/a	284767	largeTSmallH	correct	incongruent	0.5625	no	T	H
1112.933594	n/a	284911	responseSmallH	correct	n/a	0.5625	no	n/a	n/a
1114.011719	n/a	285187	largeHSmallT	correct	incongruent	0.70703	no	H	T
1114.71875	n/a	285368	responseSmallT	correct	n/a	0.70703	no	n/a	n/a
1115.785156	n/a	285641	largeTSmallT	correct	congruent	0.39062	no	T	T
1116.175781	n/a	285741	responseSmallT	correct	n/a	0.39062	no	n/a	n/a
1117.238281	n/a	286013	largeTSmallH	error	incongruent	0.375	no	T	H
1117.613281	n/a	286109	responseSmallT	error	n/a	0.375	no	n/a	n/a
1118.691406	n/a	286385	largeHSmallH	correct	congruent	0.42578	no	H	H
1119.117188	n/a	286494	responseSmallH	correct	n/a	0.42578	no	n/a	n/a
1120.183594	n/a	286767	largeTSmallT	correct	congruent	0.67969	no	T	T
1120.863281	n/a	286941	responseSmallT	correct	n/a	0.67969	no	n/a	n/a
1121.929688	n/a	287214	largeTSmallT	correct	congruent	0.57031	no	T	T
1122.5	n/a	287360	responseSmallT	correct	n/a	0.57031	no	n/a	n/a
1123.570312	n/a	287634	largeHSmallT	correct	incongruent	0.51953	no	H	T
1124.089844	n/a	287767	responseSmallT	correct	n/a	0.51953	no	n/a	n/a
1125.171875	n/a	288044	largeTSmallH	correct	incongruent	0.54297	no	T	H
1125.714844	n/a	288183	responseSmallH	correct	n/a	0.54297	no	n/a	n/a
1126.785156	n/a	288457	largeHSmallT	correct	incongruent	0.91406	no	H	T
1127.699219	n/a	288691	responseSmallT	correct	n/a	0.91406	no	n/a	n/a
1128.769531	n/a	288965	largeHSmallT	correct	incongruent	0.41797	no	H	T
1129.1875	n/a	289072	responseSmallT	correct	n/a	0.41797	no	n/a	n/a
1130.265625	n/a	289348	largeHSmallH	correct	congruent	0.53516	no	H	H
1130.800781	n/a	289485	responseSmallH	correct	n/a	0.53516	no	n/a	n/a
1131.878906	n/a	289761	largeTSmallT	correct	congruent	0.55078	no	T	T
1132.429688	n/a	289902	responseSmallT	correct	n/a	0.55078	no	n/a	n/a
1133.492188	n/a	290174	largeTSmallT	correct	congruent	0.53125	no	T	T
1134.023438	n/a	290310	responseSmallT	correct	n/a	0.53125	no	n/a	n/a
1135.089844	n/a	290583	largeTSmallH	correct	incongruent	0.375	no	T	H
1135.464844	n/a	290679	responseSmallH	correct	n/a	0.375	no	n/a	n/a
1136.53125	n/a	290952	largeHSmallH	correct	congruent	0.59766	no	H	H
1137.128906	n/a	291105	responseSmallH	correct	n/a	0.59766	no	n/a	n/a
1138.210938	n/a	291382	largeTSmallT	correct	congruent	0.55859	no	T	T
1138.769531	n/a	291525	responseSmallT	correct	n/a	0.55859	no	n/a	n/a
1139.851562	n/a	291802	largeTSmallH	correct	incongruent	0.41016	no	T	H
1140.261719	n/a	291907	responseSmallH	correct	n/a	0.41016	no	n/a	n/a
1141.332031	n/a	292181	largeTSmallH	error	incongruent	0.35156	no	T	H
1141.683594	n/a	292271	responseSmallT	error	n/a	0.35156	no	n/a	n/a
1142.742188	n/a	292542	largeHSmallT	correct	incongruent	0.51953	no	H	T
1143.261719	n/a	292675	responseSmallT	correct	n/a	0.51953	no	n/a	n/a
1144.34375	n/a	292952	largeTSmallH	correct	incongruent	0.64453	no	T	H
1144.988281	n/a	293117	responseSmallH	correct	n/a	0.64453	no	n/a	n/a
1146.050781	n/a	293389	largeHSmallT	correct	incongruent	0.65234	no	H	T
1146.703125	n/a	293556	responseSmallT	correct	n/a	0.65234	no	n/a	n/a
1147.769531	n/a	293829	largeTSmallT	correct	congruent	1.3594	no	T	T
1149.128906	n/a	294177	responseSmallT	correct	n/a	1.3594	no	n/a	n/a
1150.195312	n/a	294450	largeTSmallH	correct	incongruent	0.55469	no	T	H
1150.75	n/a	294592	responseSmallH	correct	n/a	0.55469	no	n/a	n/a
1151.824219	n/a	294867	largeHSmallT	correct	incongruent	0.75391	no	H	T
1152.578125	n/a	295060	responseSmallT	correct	n/a	0.75391	no	n/a	n/a
1153.648438	n/a	295334	largeHSmallT	correct	incongruent	0.63672	no	H	T
1154.285156	n/a	295497	responseSmallT	correct	n/a	0.63672	no	n/a	n/a
1155.355469	n/a	295771	largeHSmallH	error	congruent	0.4375	no	H	H
1155.792969	n/a	295883	responseSmallT	error	n/a	0.4375	no	n/a	n/a
1156.863281	n/a	296157	largeTSmallT	correct	congruent	0.61719	no	T	T
1157.480469	n/a	296315	responseSmallT	correct	n/a	0.61719	no	n/a	n/a
1158.542969	n/a	296587	largeHSmallH	correct	congruent	0.5	no	H	H
1159.042969	n/a	296715	responseSmallH	correct	n/a	0.5	no	n/a	n/a
1160.105469	n/a	296987	largeHSmallT	correct	incongruent	0.77344	no	H	T
1160.878906	n/a	297185	responseSmallT	correct	n/a	0.77344	no	n/a	n/a
1161.941406	n/a	297457	largeTSmallH	correct	incongruent	0.77344	no	T	H
1162.714844	n/a	297655	responseSmallH	correct	n/a	0.77344	no	n/a	n/a
1163.796875	n/a	297932	largeHSmallH	correct	congruent	0.65234	no	H	H
1164.449219	n/a	298099	responseSmallH	correct	n/a	0.65234	no	n/a	n/a
1165.515625	n/a	298372	largeHSmallH	correct	congruent	1.0117	no	H	H
1166.527344	n/a	298631	responseSmallH	correct	n/a	1.0117	no	n/a	n/a
1167.597656	n/a	298905	largeHSmallH	correct	congruent	3.0938	yes	H	H
1170.691406	n/a	299697	responseSmallH	correct	n/a	3.0938	yes	n/a	n/a
1171.757812	n/a	299970	largeHSmallH	correct	congruent	0.50391	no	H	H
1172.261719	n/a	300099	responseSmallH	correct	n/a	0.50391	no	n/a	n/a
1173.34375	n/a	300376	largeTSmallT	correct	congruent	0.63672	no	T	T
1173.980469	n/a	300539	responseSmallT	correct	n/a	0.63672	no	n/a	n/a
1175.050781	n/a	300813	largeHSmallT	correct	incongruent	0.44531	no	H	T
1175.496094	n/a	300927	responseSmallT	correct	n/a	0.44531	no	n/a	n/a
1176.570312	n/a	301202	largeHSmallH	correct	congruent	0.55859	no	H	H
1177.128906	n/a	301345	responseSmallH	correct	n/a	0.55859	no	n/a	n/a
1178.210938	n/a	301622	largeTSmallH	error	incongruent	0.48438	no	T	H
1178.695312	n/a	301746	responseSmallT	error	n/a	0.48438	no	n/a	n/a
1179.769531	n/a	302021	largeHSmallT	correct	incongruent	0.6875	no	H	T
1180.457031	n/a	302197	responseSmallT	correct	n/a	0.6875	no	n/a	n/a
1181.53125	n/a	302472	largeTSmallT	correct	congruent	0.61328	no	T	T
1182.144531	n/a	302629	responseSmallT	correct	n/a	0.61328	no	n/a	n/a
1183.210938	n/a	302902	largeTSmallT	correct	congruent	0.42578	no	T	T
1183.636719	n/a	303011	responseSmallT	correct	n/a	0.42578	no	n/a	n/a
1184.714844	n/a	303287	largeHSmallH	correct	congruent	0.40234	no	H	H
1185.117188	n/a	303390	responseSmallH	correct	n/a	0.40234	no	n/a	n/a
1186.195312	n/a	303666	largeTSmallH	correct	incongruent	0.42969	no	T	H
1186.625	n/a	303776	responseSmallH	correct	n/a	0.42969	no	n/a	n/a
1187.6875	n/a	304048	largeHSmallT	correct	incongruent	0.46484	no	H	T
1188.152344	n/a	304167	responseSmallT	correct	n/a	0.46484	no	n/a	n/a
1189.222656	n/a	304441	largeHSmallT	error	incongruent	0.44141	no	H	T
1189.664062	n/a	304554	responseSmallH	error	n/a	0.44141	no	n/a	n/a
1190.730469	n/a	304827	largeTSmallT	correct	congruent	0.39844	no	T	T
1191.128906	n/a	304929	responseSmallT	correct	n/a	0.39844	no	n/a	n/a
1192.195312	n/a	305202	largeTSmallT	correct	congruent	0.45703	no	T	T
1192.652344	n/a	305319	responseSmallT	correct	n/a	0.45703	no	n/a	n/a
1193.730469	n/a	305595	largeHSmallH	correct	congruent	0.67188	no	H	H
1194.402344	n/a	305767	responseSmallH	correct	n/a	0.67188	no	n/a	n/a
1195.476562	n/a	306042	largeTSmallH	correct	incongruent	0.63281	no	T	H
1196.109375	n/a	306204	responseSmallH	correct	n/a	0.63281	no	n/a	n/a
1197.167969	n/a	306475	largeHSmallH	correct	congruent	0.41016	no	H	H
1197.578125	n/a	306580	responseSmallH	correct	n/a	0.41016	no	n/a	n/a
1198.648438	n/a	306854	largeTSmallT	error	congruent	0.46094	no	T	T
1199.109375	n/a	306972	responseSmallH	error	n/a	0.46094	no	n/a	n/a
1200.183594	n/a	307247	largeTSmallT	correct	congruent	0.45312	no	T	T
1200.636719	n/a	307363	responseSmallT	correct	n/a	0.45312	no	n/a	n/a
1201.714844	n/a	307639	largeHSmallH	correct	congruent	0.67578	no	H	H
1202.390625	n/a	307812	responseSmallH	correct	n/a	0.67578	no	n/a	n/a
1203.460938	n/a	308086	largeTSmallH	correct	incongruent	0.55078	no	T	H
1204.011719	n/a	308227	responseSmallH	correct	n/a	0.55078	no	n/a	n/a
1205.089844	n/a	308503	largeHSmallH	correct	congruent	0.5	no	H	H
1205.589844	n/a	308631	responseSmallH	correct	n/a	0.5	no	n/a	n/a
1206.664062	n/a	308906	largeHSmallT	correct	incongruent	0.56641	no	H	T
1207.230469	n/a	309051	responseSmallT	correct	n/a	0.56641	no	n/a	n/a
1208.300781	n/a	309325	largeTSmallH	correct	incongruent	0.59375	no	T	H
1208.894531	n/a	309477	responseSmallH	correct	n/a	0.59375	no	n/a	n/a
1209.96875	n/a	309752	largeTSmallT	correct	congruent	0.63672	no	T	T
1210.605469	n/a	309915	responseSmallT	correct	n/a	0.63672	no	n/a	n/a
1211.6875	n/a	310192	largeTSmallH	correct	incongruent	0.70703	no	T	H
1212.394531	n/a	310373	responseSmallH	correct	n/a	0.70703	no	n/a	n/a
1213.460938	n/a	310646	largeTSmallH	correct	incongruent	0.37891	no	T	H
1213.839844	n/a	310743	responseSmallH	correct	n/a	0.37891	no	n/a	n/a
1214.914062	n/a	311018	largeTSmallH	correct	incongruent	0.36719	no	T	H
1215.28125	n/a	311112	responseSmallH	correct	n/a	0.36719	no	n/a	n/a
1216.34375	n/a	311384	largeHSmallT	correct	incongruent	0.55859	no	H	T
1216.902344	n/a	311527	responseSmallT	correct	n/a	0.55859	no	n/a	n/a
1217.96875	n/a	311800	largeTSmallH	correct	incongruent	0.51172	no	T	H
1218.480469	n/a	311931	responseSmallH	correct	n/a	0.51172	no	n/a	n/a
1219.542969	n/a	312203	largeTSmallH	correct	incongruent	0.57031	no	T	H
1220.113281	n/a	312349	responseSmallH	correct	n/a	0.57031	no	n/a	n/a
1221.183594	n/a	312623	largeHSmallH	correct	congruent	0.5625	no	H	H
1221.746094	n/a	312767	responseSmallH	correct	n/a	0.5625	no	n/a	n/a
1222.820312	n/a	313042	largeTSmallH	correct	incongruent	0.39453	no	T	H
1223.214844	n/a	313143	responseSmallH	correct	n/a	0.39453	no	n/a	n/a
1224.289062	n/a	313418	largeTSmallH	correct	incongruent	0.34766	no	T	H
1224.636719	n/a	313507	responseSmallH	correct	n/a	0.34766	no	n/a	n/a
1225.714844	n/a	313783	largeHSmallH	correct	congruent	0.39453	no	H	H
1226.109375	n/a	313884	responseSmallH	correct	n/a	0.39453	no	n/a	n/a
1227.167969	n/a	314155	largeHSmallH	correct	congruent	0.35938	no	H	H
1227.527344	n/a	314247	responseSmallH	correct	n/a	0.35938	no	n/a	n/a
1228.59375	n/a	314520	largeHSmallH	correct	congruent	0.36328	no	H	H
1228.957031	n/a	314613	responseSmallH	correct	n/a	0.36328	no	n/a	n/a
1230.019531	n/a	314885	largeHSmallH	correct	congruent	0.33984	no	H	H
1230.359375	n/a	314972	responseSmallH	correct	n/a	0.33984	no	n/a	n/a
1231.433594	n/a	315247	largeHSmallH	correct	congruent	0.082031	yes	H	H
1231.515625	n/a	315268	responseSmallH	correct	n/a	0.082031	yes	n/a	n/a
1232.582031	n/a	315541	largeHSmallH	correct	congruent	0.34375	no	H	H
1232.925781	n/a	315629	responseSmallH	correct	n/a	0.34375	no	n/a	n/a
1233.996094	n/a	315903	largeTSmallT	error	congruent	0.34375	no	T	T
1234.339844	n/a	315991	responseSmallH	error	n/a	0.34375	no	n/a	n/a
1235.40625	n/a	316264	largeTSmallH	error	incongruent	0.31641	no	T	H
1235.722656	n/a	316345	responseSmallT	error	n/a	0.31641	no	n/a	n/a
1236.792969	n/a	316619	largeTSmallH	correct	incongruent	0.35938	no	T	H
1237.152344	n/a	316711	responseSmallH	correct	n/a	0.35938	no	n/a	n/a
1238.222656	n/a	316985	largeHSmallH	correct	congruent	0.375	no	H	H
1238.597656	n/a	317081	responseSmallH	correct	n/a	0.375	no	n/a	n/a
1239.675781	n/a	317357	largeTSmallT	correct	congruent	0.75781	no	T	T
1240.433594	n/a	317551	responseSmallT	correct	n/a	0.75781	no	n/a	n/a
1241.515625	n/a	317828	largeTSmallT	correct	congruent	0.48047	no	T	T
1241.996094	n/a	317951	responseSmallT	correct	n/a	0.48047	no	n/a	n/a
1243.074219	n/a	318227	largeHSmallT	correct	incongruent	0.36328	no	H	T
1243.4375	n/a	318320	responseSmallT	correct	n/a	0.36328	no	n/a	n/a
1244.5	n/a	318592	largeHSmallH	correct	congruent	0.56641	no	H	H
1245.066406	n/a	318737	responseSmallH	correct	n/a	0.56641	no	n/a	n/a
1246.140625	n/a	319012	largeHSmallT	correct	incongruent	0.69141	no	H	T
1246.832031	n/a	319189	responseSmallT	correct	n/a	0.69141	no	n/a	n/a
1247.902344	n/a	319463	largeHSmallT	correct	incongruent	0.94531	no	H	T
1248.847656	n/a	319705	responseSmallT	correct	n/a	0.94531	no	n/a	n/a
1249.914062	n/a	319978	largeHSmallH	correct	congruent	0.39062	no	H	H
1250.304688	n/a	320078	responseSmallH	correct	n/a	0.39062	no	n/a	n/a
1251.382812	n/a	320354	largeTSmallT	correct	congruent	0.4375	no	T	T
1251.820312	n/a	320466	responseSmallT	correct	n/a	0.4375	no	n/a	n/a
1252.902344	n/a	320743	largeHSmallT	error	incongruent	0.375	no	H	T
1253.277344	n/a	320839	responseSmallH	error	n/a	0.375	no	n/a	n/a
1254.355469	n/a	321115	largeHSmallT	correct	incongruent	0.41016	no	H	T
1254.765625	n/a	321220	responseSmallT	correct	n/a	0.41016	no	n/a	n/a
1255.835938	n/a	321494	largeTSmallT	correct	congruent	0.44531	no	T	T
1256.28125	n/a	321608	responseSmallT	correct	n/a	0.44531	no	n/a	n/a
1257.339844	n/a	321879	largeTSmallT	correct	congruent	0.38672	no	T	T
1257.726562	n/a	321978	responseSmallT	correct	n/a	0.38672	no	n/a	n/a
1258.792969	n/a	322251	largeHSmallH	correct	congruent	0.58203	no	H	H
1259.375	n/a	322400	responseSmallH	correct	n/a	0.58203	no	n/a	n/a
1260.449219	n/a	322675	largeHSmallT	correct	incongruent	0.66016	no	H	T
1261.109375	n/a	322844	responseSmallT	correct	n/a	0.66016	no	n/a	n/a
1262.179688	n/a	323118	largeTSmallT	correct	congruent	0.85156	no	T	T
1263.03125	n/a	323336	responseSmallT	correct	n/a	0.85156	no	n/a	n/a
1264.101562	n/a	323610	largeTSmallT	correct	congruent	0.40234	no	T	T
1264.503906	n/a	323713	responseSmallT	correct	n/a	0.40234	no	n/a	n/a
1265.582031	n/a	323989	largeHSmallT	correct	incongruent	0.35547	no	H	T
1265.9375	n/a	324080	responseSmallT	correct	n/a	0.35547	no	n/a	n/a
1266.992188	n/a	324350	largeHSmallT	correct	incongruent	0.41016	no	H	T
1267.402344	n/a	324455	responseSmallT	correct	n/a	0.41016	no	n/a	n/a
1268.460938	n/a	324726	largeHSmallT	correct	incongruent	0.14062	yes	H	T
1268.601562	n/a	324762	responseSmallT	correct	n/a	0.14062	yes	n/a	n/a
1269.660156	n/a	325033	largeHSmallH	error	congruent	0.37109	no	H	H
1270.03125	n/a	325128	responseSmallT	error	n/a	0.37109	no	n/a	n/a
1271.101562	n/a	325402	largeTSmallT	error	congruent	0.33984	no	T	T
1271.441406	n/a	325489	responseSmallH	error	n/a	0.33984	no	n/a	n/a
1272.515625	n/a	325764	largeHSmallT	correct	incongruent	0.50781	no	H	T
1273.023438	n/a	325894	responseSmallT	correct	n/a	0.50781	no	n/a	n/a
1274.101562	n/a	326170	largeTSmallH	error	incongruent	0.41406	no	T	H
1274.515625	n/a	326276	responseSmallT	error	n/a	0.41406	no	n/a	n/a
1275.605469	n/a	326555	largeHSmallH	correct	congruent	0.52344	no	H	H
1276.128906	n/a	326689	responseSmallH	correct	n/a	0.52344	no	n/a	n/a
1277.207031	n/a	326965	largeTSmallT	correct	congruent	0.58594	no	T	T
1277.792969	n/a	327115	responseSmallT	correct	n/a	0.58594	no	n/a	n/a
1278.875	n/a	327392	largeHSmallH	correct	congruent	0.76562	no	H	H
1279.640625	n/a	327588	responseSmallH	correct	n/a	0.76562	no	n/a	n/a
1280.714844	n/a	327863	largeTSmallT	error	congruent	0.40234	no	T	T
1281.117188	n/a	327966	responseSmallH	error	n/a	0.40234	no	n/a	n/a
1282.195312	n/a	328242	largeHSmallT	correct	incongruent	0.61328	no	H	T
1282.808594	n/a	328399	responseSmallT	correct	n/a	0.61328	no	n/a	n/a
1283.875	n/a	328672	largeTSmallH	correct	incongruent	0.54688	no	T	H
1284.421875	n/a	328812	responseSmallH	correct	n/a	0.54688	no	n/a	n/a
1285.488281	n/a	329085	largeHSmallT	correct	incongruent	0.55469	no	H	T
1286.042969	n/a	329227	responseSmallT	correct	n/a	0.55469	no	n/a	n/a
1287.113281	n/a	329501	largeHSmallH	correct	congruent	0.46094	no	H	H
1287.574219	n/a	329619	responseSmallH	correct	n/a	0.46094	no	n/a	n/a
1288.660156	n/a	329897	largeTSmallH	error	incongruent	0.35547	no	T	H
1289.015625	n/a	329988	responseSmallT	error	n/a	0.35547	no	n/a	n/a
1290.085938	n/a	330262	largeTSmallH	correct	incongruent	0.52734	no	T	H
1290.613281	n/a	330397	responseSmallH	correct	n/a	0.52734	no	n/a	n/a
1291.671875	n/a	330668	largeHSmallH	correct	congruent	0.40234	no	H	H
1292.074219	n/a	330771	responseSmallH	correct	n/a	0.40234	no	n/a	n/a
1293.140625	n/a	331044	largeHSmallH	correct	congruent	0.52734	no	H	H
1293.667969	n/a	331179	responseSmallH	correct	n/a	0.52734	no	n/a	n/a
1294.738281	n/a	331453	largeHSmallT	correct	incongruent	0.625	no	H	T
