onset	duration	sample	value	response_type	congruence	response_time	response_out_of_range	largeletter	smallletter
16.33203125	0	4181	largeHSmallH	correct	congruent	1.1211	no	H	H
17.453125	0	4468	responseLargeH	correct	n/a	1.1211	no	n/a	n/a
18.51953125	0	4741	largeHSmallH	correct	congruent	1.0547	no	H	H
19.57421875	0	5011	responseLargeH	correct	n/a	1.0547	no	n/a	n/a
20.63671875	0	5283	largeTSmallT	correct	congruent	0.72656	no	T	T
21.36328125	0	5469	responseLargeT	correct	n/a	0.72656	no	n/a	n/a
22.4375	0	5744	largeHSmallH	correct	congruent	0.74219	no	H	H
23.1796875	0	5934	responseLargeH	correct	n/a	0.74219	no	n/a	n/a
24.23828125	0	6205	largeHSmallT	correct	incongruent	1.0156	no	H	T
25.25390625	0	6465	responseLargeH	correct	n/a	1.0156	no	n/a	n/a
26.31640625	0	6737	largeTSmallH	correct	incongruent	0.83203	no	T	H
27.1484375	0	6950	responseLargeT	correct	n/a	0.83203	no	n/a	n/a
28.22265625	0	7225	largeTSmallH	correct	incongruent	0.75781	no	T	H
28.98046875	0	7419	responseLargeT	correct	n/a	0.75781	no	n/a	n/a
30.05078125	0	7693	largeHSmallH	correct	congruent	0.58203	no	H	H
30.6328125	0	7842	responseLargeH	correct	n/a	0.58203	no	n/a	n/a
31.703125	0	8116	largeTSmallH	correct	incongruent	0.66016	no	T	H
32.36328125	0	8285	responseLargeT	correct	n/a	0.66016	no	n/a	n/a
33.4375	0	8560	largeHSmallT	correct	incongruent	0.76953	no	H	T
34.20703125	0	8757	responseLargeH	correct	n/a	0.76953	no	n/a	n/a
35.27734375	0	9031	largeTSmallT	correct	congruent	0.51172	no	T	T
35.7890625	0	9162	responseLargeT	correct	n/a	0.51172	no	n/a	n/a
36.8515625	0	9434	largeTSmallH	correct	incongruent	1.2734	no	T	H
38.125	0	9760	responseLargeT	correct	n/a	1.2734	no	n/a	n/a
39.18359375	0	10031	largeHSmallH	correct	congruent	0.64844	no	H	H
39.83203125	0	10197	responseLargeH	correct	n/a	0.64844	no	n/a	n/a
40.90234375	0	10471	largeHSmallH	correct	congruent	0.51953	no	H	H
41.421875	0	10604	responseLargeH	correct	n/a	0.51953	no	n/a	n/a
42.4921875	0	10878	largeHSmallT	correct	incongruent	0.52734	no	H	T
43.01953125	0	11013	responseLargeH	correct	n/a	0.52734	no	n/a	n/a
44.08984375	0	11287	largeHSmallH	correct	congruent	0.64453	no	H	H
44.734375	0	11452	responseLargeH	correct	n/a	0.64453	no	n/a	n/a
45.796875	0	11724	largeTSmallT	correct	congruent	0.52344	no	T	T
46.3203125	0	11858	responseLargeT	correct	n/a	0.52344	no	n/a	n/a
47.3984375	0	12134	largeHSmallH	correct	congruent	0.69531	no	H	H
48.09375	0	12312	responseLargeH	correct	n/a	0.69531	no	n/a	n/a
49.15625	0	12584	largeTSmallT	correct	congruent	0.62109	no	T	T
49.77734375	0	12743	responseLargeT	correct	n/a	0.62109	no	n/a	n/a
50.8359375	0	13014	largeTSmallH	correct	incongruent	0.50391	no	T	H
51.33984375	0	13143	responseLargeT	correct	n/a	0.50391	no	n/a	n/a
52.3984375	0	13414	largeHSmallH	correct	congruent	0.47266	no	H	H
52.87109375	0	13535	responseLargeH	correct	n/a	0.47266	no	n/a	n/a
53.9453125	0	13810	largeHSmallH	correct	congruent	0.44531	no	H	H
54.390625	0	13924	responseLargeH	correct	n/a	0.44531	no	n/a	n/a
55.46484375	0	14199	largeTSmallH	correct	incongruent	0.46094	no	T	H
55.92578125	0	14317	responseLargeT	correct	n/a	0.46094	no	n/a	n/a
56.984375	0	14588	largeHSmallH	correct	congruent	0.44141	no	H	H
57.42578125	0	14701	responseLargeH	correct	n/a	0.44141	no	n/a	n/a
58.50390625	0	14977	largeTSmallH	correct	incongruent	0.53125	no	T	H
59.03515625	0	15113	responseLargeT	correct	n/a	0.53125	no	n/a	n/a
60.1015625	0	15386	largeHSmallT	correct	incongruent	0.9375	no	H	T
61.0390625	0	15626	responseLargeH	correct	n/a	0.9375	no	n/a	n/a
62.10546875	0	15899	largeHSmallT	correct	incongruent	0.71094	no	H	T
62.81640625	0	16081	responseLargeH	correct	n/a	0.71094	no	n/a	n/a
63.875	0	16352	largeTSmallT	correct	congruent	0.55469	no	T	T
64.4296875	0	16494	responseLargeT	correct	n/a	0.55469	no	n/a	n/a
65.48828125	0	16765	largeTSmallT	correct	congruent	0.59375	no	T	T
66.08203125	0	16917	responseLargeT	correct	n/a	0.59375	no	n/a	n/a
67.15625	0	17192	largeHSmallT	correct	incongruent	0.46094	no	H	T
67.6171875	0	17310	responseLargeH	correct	n/a	0.46094	no	n/a	n/a
68.69140625	0	17585	largeHSmallH	correct	congruent	0.55078	no	H	H
69.2421875	0	17726	responseLargeH	correct	n/a	0.55078	no	n/a	n/a
70.31640625	0	18001	largeTSmallH	correct	incongruent	0.51953	no	T	H
70.8359375	0	18134	responseLargeT	correct	n/a	0.51953	no	n/a	n/a
71.90234375	0	18407	largeHSmallH	correct	congruent	0.55469	no	H	H
72.45703125	0	18549	responseLargeH	correct	n/a	0.55469	no	n/a	n/a
73.53125	0	18824	largeHSmallT	correct	incongruent	0.63672	no	H	T
74.16796875	0	18987	responseLargeH	correct	n/a	0.63672	no	n/a	n/a
75.23828125	0	19261	largeTSmallT	correct	congruent	0.51562	no	T	T
75.75390625	0	19393	responseLargeT	correct	n/a	0.51562	no	n/a	n/a
76.80859375	0	19663	largeHSmallT	correct	incongruent	0.55078	no	H	T
77.359375	0	19804	responseLargeH	correct	n/a	0.55078	no	n/a	n/a
78.421875	0	20076	largeTSmallT	correct	congruent	0.49219	no	T	T
78.9140625	0	20202	responseLargeT	correct	n/a	0.49219	no	n/a	n/a
79.984375	0	20476	largeTSmallT	correct	congruent	0.52344	no	T	T
80.5078125	0	20610	responseLargeT	correct	n/a	0.52344	no	n/a	n/a
81.5703125	0	20882	largeHSmallT	correct	incongruent	0.60547	no	H	T
82.17578125	0	21037	responseLargeH	correct	n/a	0.60547	no	n/a	n/a
83.234375	0	21308	largeTSmallH	correct	incongruent	0.45312	no	T	H
83.6875	0	21424	responseLargeT	correct	n/a	0.45312	no	n/a	n/a
84.7578125	0	21698	largeHSmallH	correct	congruent	0.48438	no	H	H
85.2421875	0	21822	responseLargeH	correct	n/a	0.48438	no	n/a	n/a
86.31640625	0	22097	largeHSmallT	correct	incongruent	0.62891	no	H	T
86.9453125	0	22258	responseLargeH	correct	n/a	0.62891	no	n/a	n/a
88.0234375	0	22534	largeTSmallH	correct	incongruent	0.51953	no	T	H
88.54296875	0	22667	responseLargeT	correct	n/a	0.51953	no	n/a	n/a
89.609375	0	22940	largeHSmallT	correct	incongruent	0.54297	no	H	T
90.15234375	0	23079	responseLargeH	correct	n/a	0.54297	no	n/a	n/a
91.2109375	0	23350	largeTSmallH	correct	incongruent	0.51172	no	T	H
91.72265625	0	23481	responseLargeT	correct	n/a	0.51172	no	n/a	n/a
92.796875	0	23756	largeHSmallT	correct	incongruent	0.64453	no	H	T
93.44140625	0	23921	responseLargeH	correct	n/a	0.64453	no	n/a	n/a
94.50390625	0	24193	largeHSmallH	correct	congruent	0.46094	no	H	H
94.96484375	0	24311	responseLargeH	correct	n/a	0.46094	no	n/a	n/a
96.03515625	0	24585	largeTSmallH	correct	incongruent	0.5	no	T	H
96.53515625	0	24713	responseLargeT	correct	n/a	0.5	no	n/a	n/a
97.59765625	0	24985	largeHSmallT	correct	incongruent	0.5	no	H	T
98.09765625	0	25113	responseLargeH	correct	n/a	0.5	no	n/a	n/a
99.16796875	0	25387	largeHSmallT	correct	incongruent	0.53906	no	H	T
99.70703125	0	25525	responseLargeH	correct	n/a	0.53906	no	n/a	n/a
100.7695312	0	25797	largeHSmallH	correct	congruent	0.67188	no	H	H
101.4414062	0	25969	responseLargeH	correct	n/a	0.67188	no	n/a	n/a
102.5039062	0	26241	largeHSmallH	correct	congruent	0.55078	no	H	H
103.0546875	0	26382	responseLargeH	correct	n/a	0.55078	no	n/a	n/a
104.1289062	0	26657	largeHSmallT	error	incongruent	0.56641	no	H	T
104.6953125	0	26802	responseLargeT	error	n/a	0.56641	no	n/a	n/a
105.7695312	0	27077	largeHSmallH	correct	congruent	0.55078	no	H	H
106.3203125	0	27218	responseLargeH	correct	n/a	0.55078	no	n/a	n/a
107.3945312	0	27493	largeTSmallT	correct	congruent	0.58203	no	T	T
107.9765625	0	27642	responseLargeT	correct	n/a	0.58203	no	n/a	n/a
109.0507812	0	27917	largeTSmallH	correct	incongruent	0.69531	no	T	H
109.7460938	0	28095	responseLargeT	correct	n/a	0.69531	no	n/a	n/a
110.8242188	0	28371	largeTSmallT	correct	congruent	0.47266	no	T	T
111.296875	0	28492	responseLargeT	correct	n/a	0.47266	no	n/a	n/a
112.3710938	0	28767	largeTSmallT	correct	congruent	0.55469	no	T	T
112.9257812	0	28909	responseLargeT	correct	n/a	0.55469	no	n/a	n/a
113.9960938	0	29183	largeHSmallT	correct	incongruent	0.54297	no	H	T
114.5390625	0	29322	responseLargeH	correct	n/a	0.54297	no	n/a	n/a
115.609375	0	29596	largeHSmallT	correct	incongruent	0.48828	no	H	T
116.0976562	0	29721	responseLargeH	correct	n/a	0.48828	no	n/a	n/a
117.1679688	0	29995	largeTSmallH	correct	incongruent	0.56641	no	T	H
117.734375	0	30140	responseLargeT	correct	n/a	0.56641	no	n/a	n/a
118.796875	0	30412	largeTSmallT	correct	congruent	0.50391	no	T	T
119.3007812	0	30541	responseLargeT	correct	n/a	0.50391	no	n/a	n/a
120.3671875	0	30814	largeTSmallH	correct	incongruent	0.58203	no	T	H
120.9492188	0	30963	responseLargeT	correct	n/a	0.58203	no	n/a	n/a
122.0078125	0	31234	largeTSmallH	correct	incongruent	0.4375	no	T	H
122.4453125	0	31346	responseLargeT	correct	n/a	0.4375	no	n/a	n/a
123.5273438	0	31623	largeHSmallT	correct	incongruent	0.51172	no	H	T
124.0390625	0	31754	responseLargeH	correct	n/a	0.51172	no	n/a	n/a
125.1171875	0	32030	largeTSmallT	correct	congruent	0.53516	no	T	T
125.6523438	0	32167	responseLargeT	correct	n/a	0.53516	no	n/a	n/a
126.7148438	0	32439	largeTSmallT	correct	congruent	0.44531	no	T	T
127.1601562	0	32553	responseLargeT	correct	n/a	0.44531	no	n/a	n/a
128.234375	0	32828	largeTSmallH	correct	incongruent	0.55078	no	T	H
128.7851562	0	32969	responseLargeT	correct	n/a	0.55078	no	n/a	n/a
129.8632812	0	33245	largeTSmallH	correct	incongruent	0.53906	no	T	H
130.4023438	0	33383	responseLargeT	correct	n/a	0.53906	no	n/a	n/a
131.4765625	0	33658	largeTSmallT	correct	congruent	0.48828	no	T	T
131.9648438	0	33783	responseLargeT	correct	n/a	0.48828	no	n/a	n/a
133.0351562	0	34057	largeHSmallT	correct	incongruent	0.5	no	H	T
133.5351562	0	34185	responseLargeH	correct	n/a	0.5	no	n/a	n/a
134.59375	0	34456	largeTSmallH	correct	incongruent	0.59766	no	T	H
135.1914062	0	34609	responseLargeT	correct	n/a	0.59766	no	n/a	n/a
136.25	0	34880	largeHSmallT	correct	incongruent	0.67188	no	H	T
136.921875	0	35052	responseLargeH	correct	n/a	0.67188	no	n/a	n/a
137.9804688	0	35323	largeTSmallH	correct	incongruent	0.56641	no	T	H
138.546875	0	35468	responseLargeT	correct	n/a	0.56641	no	n/a	n/a
139.6210938	0	35743	largeHSmallH	correct	congruent	0.49609	no	H	H
140.1171875	0	35870	responseLargeH	correct	n/a	0.49609	no	n/a	n/a
141.1835938	0	36143	largeTSmallT	correct	congruent	0.625	no	T	T
141.8085938	0	36303	responseLargeT	correct	n/a	0.625	no	n/a	n/a
142.875	0	36576	largeHSmallH	correct	congruent	0.4375	no	H	H
143.3125	0	36688	responseLargeH	correct	n/a	0.4375	no	n/a	n/a
144.3828125	0	36962	largeTSmallT	correct	congruent	0.44922	no	T	T
144.8320312	0	37077	responseLargeT	correct	n/a	0.44922	no	n/a	n/a
145.8867188	0	37347	largeTSmallT	correct	congruent	0.48828	no	T	T
146.375	0	37472	responseLargeT	correct	n/a	0.48828	no	n/a	n/a
147.4335938	0	37743	largeTSmallT	correct	congruent	0.40625	no	T	T
147.8398438	0	37847	responseLargeT	correct	n/a	0.40625	no	n/a	n/a
148.9023438	0	38119	largeHSmallT	correct	incongruent	0.50391	no	H	T
149.40625	0	38248	responseLargeH	correct	n/a	0.50391	no	n/a	n/a
150.4765625	0	38522	largeTSmallT	correct	congruent	0.46094	no	T	T
150.9375	0	38640	responseLargeT	correct	n/a	0.46094	no	n/a	n/a
152.0078125	0	38914	largeTSmallH	correct	incongruent	0.6875	no	T	H
152.6953125	0	39090	responseLargeT	correct	n/a	0.6875	no	n/a	n/a
153.7539062	0	39361	largeTSmallT	correct	congruent	0.4375	no	T	T
154.1914062	0	39473	responseLargeT	correct	n/a	0.4375	no	n/a	n/a
155.25	0	39744	largeTSmallT	correct	congruent	0.48047	no	T	T
155.7304688	0	39867	responseLargeT	correct	n/a	0.48047	no	n/a	n/a
156.7929688	0	40139	largeHSmallH	correct	congruent	0.53125	no	H	H
157.3242188	0	40275	responseLargeH	correct	n/a	0.53125	no	n/a	n/a
158.3828125	0	40546	largeHSmallT	correct	incongruent	0.51953	no	H	T
158.9023438	0	40679	responseLargeH	correct	n/a	0.51953	no	n/a	n/a
159.96875	0	40952	largeHSmallH	correct	congruent	0.51562	no	H	H
160.484375	0	41084	responseLargeH	correct	n/a	0.51562	no	n/a	n/a
161.5546875	0	41358	largeTSmallT	correct	congruent	0.50391	no	T	T
162.0585938	0	41487	responseLargeT	correct	n/a	0.50391	no	n/a	n/a
163.1289062	0	41761	largeTSmallH	correct	incongruent	0.61719	no	T	H
163.7460938	0	41919	responseLargeT	correct	n/a	0.61719	no	n/a	n/a
164.8085938	0	42191	largeTSmallT	correct	congruent	0.51953	no	T	T
165.328125	0	42324	responseLargeT	correct	n/a	0.51953	no	n/a	n/a
166.3945312	0	42597	largeTSmallT	correct	congruent	0.50391	no	T	T
166.8984375	0	42726	responseLargeT	correct	n/a	0.50391	no	n/a	n/a
167.96875	0	43000	largeTSmallH	correct	incongruent	0.73438	no	T	H
168.703125	0	43188	responseLargeT	correct	n/a	0.73438	no	n/a	n/a
169.78125	0	43464	largeTSmallH	correct	incongruent	0.64062	no	T	H
170.421875	0	43628	responseLargeT	correct	n/a	0.64062	no	n/a	n/a
171.4882812	0	43901	largeHSmallT	correct	incongruent	0.51172	no	H	T
172	0	44032	responseLargeH	correct	n/a	0.51172	no	n/a	n/a
173.0742188	0	44307	largeHSmallT	correct	incongruent	0.51562	no	H	T
173.5898438	0	44439	responseLargeH	correct	n/a	0.51562	no	n/a	n/a
174.6601562	0	44713	largeTSmallH	correct	incongruent	0.53906	no	T	H
175.1992188	0	44851	responseLargeT	correct	n/a	0.53906	no	n/a	n/a
176.2617188	0	45123	largeTSmallH	correct	incongruent	0.60156	no	T	H
176.8632812	0	45277	responseLargeT	correct	n/a	0.60156	no	n/a	n/a
177.9414062	0	45553	largeHSmallH	correct	congruent	0.55859	no	H	H
178.5	0	45696	responseLargeH	correct	n/a	0.55859	no	n/a	n/a
179.5664062	0	45969	largeHSmallH	correct	congruent	0.76172	no	H	H
180.328125	0	46164	responseLargeH	correct	n/a	0.76172	no	n/a	n/a
181.3945312	0	46437	largeHSmallT	correct	incongruent	0.54688	no	H	T
181.9414062	0	46577	responseLargeH	correct	n/a	0.54688	no	n/a	n/a
183.0078125	0	46850	largeHSmallT	correct	incongruent	0.55078	no	H	T
183.5585938	0	46991	responseLargeH	correct	n/a	0.55078	no	n/a	n/a
184.6328125	0	47266	largeTSmallH	correct	incongruent	0.66797	no	T	H
185.3007812	0	47437	responseLargeT	correct	n/a	0.66797	no	n/a	n/a
186.3828125	0	47714	largeTSmallH	correct	incongruent	0.49219	no	T	H
186.875	0	47840	responseLargeT	correct	n/a	0.49219	no	n/a	n/a
187.9414062	0	48113	largeHSmallT	correct	incongruent	0.51953	no	H	T
188.4609375	0	48246	responseLargeH	correct	n/a	0.51953	no	n/a	n/a
189.5273438	0	48519	largeTSmallT	correct	congruent	0.48047	no	T	T
190.0078125	0	48642	responseLargeT	correct	n/a	0.48047	no	n/a	n/a
191.0742188	0	48915	largeHSmallH	correct	congruent	0.54297	no	H	H
191.6171875	0	49054	responseLargeH	correct	n/a	0.54297	no	n/a	n/a
192.6875	0	49328	largeHSmallH	correct	congruent	0.45703	no	H	H
193.1445312	0	49445	responseLargeH	correct	n/a	0.45703	no	n/a	n/a
194.2070312	0	49717	largeTSmallT	correct	congruent	0.46094	no	T	T
194.6679688	0	49835	responseLargeT	correct	n/a	0.46094	no	n/a	n/a
195.7421875	0	50110	largeTSmallT	correct	congruent	0.53125	no	T	T
196.2734375	0	50246	responseLargeT	correct	n/a	0.53125	no	n/a	n/a
197.3398438	0	50519	largeTSmallH	correct	incongruent	0.53906	no	T	H
197.8789062	0	50657	responseLargeT	correct	n/a	0.53906	no	n/a	n/a
198.953125	0	50932	largeHSmallT	correct	incongruent	0.49219	no	H	T
199.4453125	0	51058	responseLargeH	correct	n/a	0.49219	no	n/a	n/a
200.515625	0	51332	largeHSmallH	correct	congruent	0.42578	no	H	H
200.9414062	0	51441	responseLargeH	correct	n/a	0.42578	no	n/a	n/a
202.0078125	0	51714	largeTSmallH	correct	incongruent	0.51172	no	T	H
202.5195312	0	51845	responseLargeT	correct	n/a	0.51172	no	n/a	n/a
203.5820312	0	52117	largeTSmallH	correct	incongruent	0.62109	no	T	H
204.203125	0	52276	responseLargeT	correct	n/a	0.62109	no	n/a	n/a
205.2617188	0	52547	largeTSmallT	correct	congruent	0.38672	no	T	T
205.6484375	0	52646	responseLargeT	correct	n/a	0.38672	no	n/a	n/a
206.7148438	0	52919	largeTSmallH	correct	incongruent	0.46484	no	T	H
207.1796875	0	53038	responseLargeT	correct	n/a	0.46484	no	n/a	n/a
208.2460938	0	53311	largeHSmallH	correct	congruent	0.52344	no	H	H
208.7695312	0	53445	responseLargeH	correct	n/a	0.52344	no	n/a	n/a
209.8320312	0	53717	largeTSmallT	correct	congruent	0.49219	no	T	T
210.3242188	0	53843	responseLargeT	correct	n/a	0.49219	no	n/a	n/a
211.3945312	0	54117	largeTSmallH	correct	incongruent	0.58203	no	T	H
211.9765625	0	54266	responseLargeT	correct	n/a	0.58203	no	n/a	n/a
213.0585938	0	54543	largeHSmallT	correct	incongruent	0.67188	no	H	T
213.7304688	0	54715	responseLargeH	correct	n/a	0.67188	no	n/a	n/a
214.7929688	0	54987	largeHSmallH	correct	congruent	0.5625	no	H	H
215.3554688	0	55131	responseLargeH	correct	n/a	0.5625	no	n/a	n/a
216.421875	0	55404	largeHSmallH	correct	congruent	0.54297	no	H	H
216.9648438	0	55543	responseLargeH	correct	n/a	0.54297	no	n/a	n/a
218.0351562	0	55817	largeTSmallH	correct	incongruent	0.63281	no	T	H
218.6679688	0	55979	responseLargeT	correct	n/a	0.63281	no	n/a	n/a
219.7265625	0	56250	largeTSmallH	correct	incongruent	0.51562	no	T	H
220.2421875	0	56382	responseLargeT	correct	n/a	0.51562	no	n/a	n/a
221.3007812	0	56653	largeHSmallH	correct	congruent	0.46484	no	H	H
221.765625	0	56772	responseLargeH	correct	n/a	0.46484	no	n/a	n/a
222.8320312	0	57045	largeHSmallT	correct	incongruent	0.46875	no	H	T
223.3007812	0	57165	responseLargeH	correct	n/a	0.46875	no	n/a	n/a
224.3515625	0	57434	largeTSmallH	correct	incongruent	0.59766	no	T	H
224.9492188	0	57587	responseLargeT	correct	n/a	0.59766	no	n/a	n/a
226.0195312	0	57861	largeHSmallT	correct	incongruent	0.70312	no	H	T
226.7226562	0	58041	responseLargeH	correct	n/a	0.70312	no	n/a	n/a
227.7929688	0	58315	largeHSmallH	correct	congruent	0.46484	no	H	H
228.2578125	0	58434	responseLargeH	correct	n/a	0.46484	no	n/a	n/a
229.328125	0	58708	largeTSmallT	correct	congruent	0.44922	no	T	T
229.7773438	0	58823	responseLargeT	correct	n/a	0.44922	no	n/a	n/a
230.8476562	0	59097	largeHSmallH	correct	congruent	0.51953	no	H	H
231.3671875	0	59230	responseLargeH	correct	n/a	0.51953	no	n/a	n/a
232.4179688	0	59499	largeHSmallH	correct	congruent	0.50391	no	H	H
232.921875	0	59628	responseLargeH	correct	n/a	0.50391	no	n/a	n/a
233.9804688	0	59899	largeTSmallH	correct	incongruent	0.54297	no	T	H
234.5234375	0	60038	responseLargeT	correct	n/a	0.54297	no	n/a	n/a
235.59375	0	60312	largeHSmallT	correct	incongruent	0.57812	no	H	T
236.171875	0	60460	responseLargeH	correct	n/a	0.57812	no	n/a	n/a
237.2460938	0	60735	largeTSmallH	correct	incongruent	0.48047	no	T	H
237.7265625	0	60858	responseLargeT	correct	n/a	0.48047	no	n/a	n/a
238.7929688	0	61131	largeHSmallT	correct	incongruent	0.49219	no	H	T
239.2851562	0	61257	responseLargeH	correct	n/a	0.49219	no	n/a	n/a
240.3515625	0	61530	largeHSmallH	correct	congruent	0.59766	no	H	H
240.9492188	0	61683	responseLargeH	correct	n/a	0.59766	no	n/a	n/a
242.0195312	0	61957	largeHSmallT	correct	incongruent	0.50391	no	H	T
242.5234375	0	62086	responseLargeH	correct	n/a	0.50391	no	n/a	n/a
243.59375	0	62360	largeHSmallH	correct	congruent	0.42578	no	H	H
244.0195312	0	62469	responseLargeH	correct	n/a	0.42578	no	n/a	n/a
245.1015625	0	62746	largeTSmallH	correct	incongruent	0.59375	no	T	H
245.6953125	0	62898	responseLargeT	correct	n/a	0.59375	no	n/a	n/a
246.765625	0	63172	largeHSmallT	correct	incongruent	0.48438	no	H	T
247.25	0	63296	responseLargeH	correct	n/a	0.48438	no	n/a	n/a
248.328125	0	63572	largeTSmallH	correct	incongruent	0.46875	no	T	H
248.796875	0	63692	responseLargeT	correct	n/a	0.46875	no	n/a	n/a
249.8710938	0	63967	largeHSmallT	correct	incongruent	0.54297	no	H	T
250.4140625	0	64106	responseLargeH	correct	n/a	0.54297	no	n/a	n/a
251.4726562	0	64377	largeHSmallT	correct	incongruent	0.5	no	H	T
251.9726562	0	64505	responseLargeH	correct	n/a	0.5	no	n/a	n/a
253.03125	0	64776	largeTSmallT	correct	congruent	0.51172	no	T	T
253.5429688	0	64907	responseLargeT	correct	n/a	0.51172	no	n/a	n/a
254.6054688	0	65179	largeHSmallH	correct	congruent	0.52344	no	H	H
255.1289062	0	65313	responseLargeH	correct	n/a	0.52344	no	n/a	n/a
256.2070312	0	65589	largeTSmallT	correct	congruent	0.52734	no	T	T
256.734375	0	65724	responseLargeT	correct	n/a	0.52734	no	n/a	n/a
257.8046875	0	65998	largeHSmallH	correct	congruent	0.44141	no	H	H
258.2460938	0	66111	responseLargeH	correct	n/a	0.44141	no	n/a	n/a
259.3242188	0	66387	largeTSmallT	correct	congruent	0.47656	no	T	T
259.8007812	0	66509	responseLargeT	correct	n/a	0.47656	no	n/a	n/a
260.859375	0	66780	largeTSmallH	correct	incongruent	0.77344	no	T	H
261.6328125	0	66978	responseLargeT	correct	n/a	0.77344	no	n/a	n/a
262.6992188	0	67251	largeHSmallH	correct	congruent	0.41016	no	H	H
263.109375	0	67356	responseLargeH	correct	n/a	0.41016	no	n/a	n/a
264.1640625	0	67626	largeHSmallT	correct	incongruent	0.64453	no	H	T
264.8085938	0	67791	responseLargeH	correct	n/a	0.64453	no	n/a	n/a
265.8710938	0	68063	largeHSmallT	correct	incongruent	0.58203	no	H	T
266.453125	0	68212	responseLargeH	correct	n/a	0.58203	no	n/a	n/a
267.5273438	0	68487	largeHSmallT	correct	incongruent	0.59375	no	H	T
268.1210938	0	68639	responseLargeH	correct	n/a	0.59375	no	n/a	n/a
269.1796875	0	68910	largeHSmallT	correct	incongruent	0.39844	no	H	T
269.578125	0	69012	responseLargeH	correct	n/a	0.39844	no	n/a	n/a
270.6445312	0	69285	largeHSmallT	correct	incongruent	0.53125	no	H	T
271.1757812	0	69421	responseLargeH	correct	n/a	0.53125	no	n/a	n/a
272.234375	0	69692	largeTSmallT	correct	congruent	0.55469	no	T	T
272.7890625	0	69834	responseLargeT	correct	n/a	0.55469	no	n/a	n/a
273.859375	0	70108	largeTSmallT	correct	congruent	0.50781	no	T	T
274.3671875	0	70238	responseLargeT	correct	n/a	0.50781	no	n/a	n/a
275.4335938	0	70511	largeHSmallT	correct	incongruent	0.55859	no	H	T
275.9921875	0	70654	responseLargeH	correct	n/a	0.55859	no	n/a	n/a
277.0585938	0	70927	largeTSmallH	correct	incongruent	0.50391	no	T	H
277.5625	0	71056	responseLargeT	correct	n/a	0.50391	no	n/a	n/a
278.6328125	0	71330	largeTSmallH	correct	incongruent	0.53125	no	T	H
279.1640625	0	71466	responseLargeT	correct	n/a	0.53125	no	n/a	n/a
280.21875	0	71736	largeHSmallT	correct	incongruent	0.44922	no	H	T
280.6679688	0	71851	responseLargeH	correct	n/a	0.44922	no	n/a	n/a
281.7382812	0	72125	largeHSmallT	correct	incongruent	0.54297	no	H	T
282.28125	0	72264	responseLargeH	correct	n/a	0.54297	no	n/a	n/a
283.3398438	0	72535	largeTSmallT	correct	congruent	0.48047	no	T	T
283.8203125	0	72658	responseLargeT	correct	n/a	0.48047	no	n/a	n/a
284.8867188	0	72931	largeTSmallT	correct	congruent	0.60547	no	T	T
285.4921875	0	73086	responseLargeT	correct	n/a	0.60547	no	n/a	n/a
286.5664062	0	73361	largeHSmallH	correct	congruent	0.62109	no	H	H
287.1875	0	73520	responseLargeH	correct	n/a	0.62109	no	n/a	n/a
288.2578125	0	73794	largeHSmallH	correct	congruent	0.51953	no	H	H
288.7773438	0	73927	responseLargeH	correct	n/a	0.51953	no	n/a	n/a
289.84375	0	74200	largeHSmallT	correct	incongruent	0.55469	no	H	T
290.3984375	0	74342	responseLargeH	correct	n/a	0.55469	no	n/a	n/a
291.4726562	0	74617	largeHSmallH	correct	congruent	0.41406	no	H	H
291.8867188	0	74723	responseLargeH	correct	n/a	0.41406	no	n/a	n/a
292.953125	0	74996	largeHSmallH	correct	congruent	0.39062	no	H	H
293.34375	0	75096	responseLargeH	correct	n/a	0.39062	no	n/a	n/a
294.40625	0	75368	largeTSmallT	correct	congruent	0.48828	no	T	T
294.8945312	0	75493	responseLargeT	correct	n/a	0.48828	no	n/a	n/a
295.9648438	0	75767	largeHSmallT	correct	incongruent	1.4414	no	H	T
297.40625	0	76136	responseLargeH	correct	n/a	1.4414	no	n/a	n/a
298.4726562	0	76409	largeHSmallT	correct	incongruent	0.48438	no	H	T
298.9570312	0	76533	responseLargeH	correct	n/a	0.48438	no	n/a	n/a
300.0195312	0	76805	largeTSmallT	correct	congruent	0.52344	no	T	T
300.5429688	0	76939	responseLargeT	correct	n/a	0.52344	no	n/a	n/a
301.6054688	0	77211	largeHSmallH	correct	congruent	0.51953	no	H	H
302.125	0	77344	responseLargeH	correct	n/a	0.51953	no	n/a	n/a
303.1914062	0	77617	largeHSmallH	correct	congruent	0.42188	no	H	H
303.6132812	0	77725	responseLargeH	correct	n/a	0.42188	no	n/a	n/a
304.6835938	0	77999	largeHSmallT	correct	incongruent	0.45312	no	H	T
305.1367188	0	78115	responseLargeH	correct	n/a	0.45312	no	n/a	n/a
306.203125	0	78388	largeHSmallH	correct	congruent	0.55469	no	H	H
306.7578125	0	78530	responseLargeH	correct	n/a	0.55469	no	n/a	n/a
307.8203125	0	78802	largeTSmallH	correct	incongruent	0.54688	no	T	H
308.3671875	0	78942	responseLargeT	correct	n/a	0.54688	no	n/a	n/a
309.4335938	0	79215	largeTSmallT	correct	congruent	0.57031	no	T	T
310.0039062	0	79361	responseLargeT	correct	n/a	0.57031	no	n/a	n/a
311.0703125	0	79634	largeTSmallH	correct	incongruent	0.71094	no	T	H
311.78125	0	79816	responseLargeT	correct	n/a	0.71094	no	n/a	n/a
312.84375	0	80088	largeTSmallT	correct	congruent	0.67969	no	T	T
313.5234375	0	80262	responseLargeT	correct	n/a	0.67969	no	n/a	n/a
314.5898438	0	80535	largeTSmallH	correct	incongruent	0.63672	no	T	H
315.2265625	0	80698	responseLargeT	correct	n/a	0.63672	no	n/a	n/a
316.296875	0	80972	largeTSmallT	correct	congruent	0.5	no	T	T
316.796875	0	81100	responseLargeT	correct	n/a	0.5	no	n/a	n/a
317.8710938	0	81375	largeHSmallH	correct	congruent	0.52734	no	H	H
318.3984375	0	81510	responseLargeH	correct	n/a	0.52734	no	n/a	n/a
319.4570312	0	81781	largeHSmallH	correct	congruent	0.41797	no	H	H
319.875	0	81888	responseLargeH	correct	n/a	0.41797	no	n/a	n/a
320.9375	0	82160	largeTSmallT	correct	congruent	0.53906	no	T	T
321.4765625	0	82298	responseLargeT	correct	n/a	0.53906	no	n/a	n/a
322.5507812	0	82573	largeTSmallH	correct	incongruent	0.56641	no	T	H
323.1171875	0	82718	responseLargeT	correct	n/a	0.56641	no	n/a	n/a
324.1914062	0	82993	largeTSmallT	correct	congruent	0.42969	no	T	T
324.6210938	0	83103	responseLargeT	correct	n/a	0.42969	no	n/a	n/a
325.6835938	0	83375	largeHSmallH	correct	congruent	0.54688	no	H	H
326.2304688	0	83515	responseLargeH	correct	n/a	0.54688	no	n/a	n/a
327.2851562	0	83785	largeTSmallT	correct	congruent	0.46484	no	T	T
327.75	0	83904	responseLargeT	correct	n/a	0.46484	no	n/a	n/a
328.8164062	0	84177	largeTSmallH	correct	incongruent	0.53125	no	T	H
329.3476562	0	84313	responseLargeT	correct	n/a	0.53125	no	n/a	n/a
330.40625	0	84584	largeTSmallH	correct	incongruent	0.42188	no	T	H
330.828125	0	84692	responseLargeT	correct	n/a	0.42188	no	n/a	n/a
331.8984375	0	84966	largeTSmallT	correct	congruent	0.44141	no	T	T
332.3398438	0	85079	responseLargeT	correct	n/a	0.44141	no	n/a	n/a
333.40625	0	85352	largeHSmallT	correct	incongruent	0.49219	no	H	T
333.8984375	0	85478	responseLargeH	correct	n/a	0.49219	no	n/a	n/a
334.9648438	0	85751	largeHSmallH	correct	congruent	0.45703	no	H	H
335.421875	0	85868	responseLargeH	correct	n/a	0.45703	no	n/a	n/a
336.4960938	0	86143	largeTSmallT	correct	congruent	0.51953	no	T	T
337.015625	0	86276	responseLargeT	correct	n/a	0.51953	no	n/a	n/a
338.0859375	0	86550	largeTSmallH	correct	incongruent	0.59766	no	T	H
338.6835938	0	86703	responseLargeT	correct	n/a	0.59766	no	n/a	n/a
339.75	0	86976	largeTSmallT	correct	congruent	0.5625	no	T	T
340.3125	0	87120	responseLargeT	correct	n/a	0.5625	no	n/a	n/a
348.21875	0	89144	largeTSmallT	correct	congruent	0.75	no	T	T
348.96875	0	89336	responseSmallT	correct	n/a	0.75	no	n/a	n/a
350.03125	0	89608	largeHSmallT	correct	incongruent	0.58203	no	H	T
350.6132812	0	89757	responseSmallT	correct	n/a	0.58203	no	n/a	n/a
351.6835938	0	90031	largeHSmallT	correct	incongruent	0.55078	no	H	T
352.234375	0	90172	responseSmallT	correct	n/a	0.55078	no	n/a	n/a
353.296875	0	90444	largeTSmallH	correct	incongruent	0.6875	no	T	H
353.984375	0	90620	responseSmallH	correct	n/a	0.6875	no	n/a	n/a
355.0429688	0	90891	largeHSmallT	correct	incongruent	0.55859	no	H	T
355.6015625	0	91034	responseSmallT	correct	n/a	0.55859	no	n/a	n/a
356.671875	0	91308	largeHSmallH	correct	congruent	0.67969	no	H	H
357.3515625	0	91482	responseSmallH	correct	n/a	0.67969	no	n/a	n/a
358.4296875	0	91758	largeHSmallT	correct	incongruent	0.61719	no	H	T
359.046875	0	91916	responseSmallT	correct	n/a	0.61719	no	n/a	n/a
360.109375	0	92188	largeHSmallH	correct	congruent	0.58984	no	H	H
360.6992188	0	92339	responseSmallH	correct	n/a	0.58984	no	n/a	n/a
361.765625	0	92612	largeTSmallH	correct	incongruent	0.69922	no	T	H
362.4648438	0	92791	responseSmallH	correct	n/a	0.69922	no	n/a	n/a
363.5234375	0	93062	largeTSmallH	correct	incongruent	0.48828	no	T	H
364.0117188	0	93187	responseSmallH	correct	n/a	0.48828	no	n/a	n/a
365.0703125	0	93458	largeTSmallT	correct	congruent	0.48828	no	T	T
365.5585938	0	93583	responseSmallT	correct	n/a	0.48828	no	n/a	n/a
366.6289062	0	93857	largeHSmallH	correct	congruent	0.55859	no	H	H
367.1875	0	94000	responseSmallH	correct	n/a	0.55859	no	n/a	n/a
368.2578125	0	94274	largeHSmallH	correct	congruent	0.51953	no	H	H
368.7773438	0	94407	responseSmallH	correct	n/a	0.51953	no	n/a	n/a
369.84375	0	94680	largeHSmallT	correct	incongruent	0.4375	no	H	T
370.28125	0	94792	responseSmallT	correct	n/a	0.4375	no	n/a	n/a
371.3515625	0	95066	largeHSmallH	correct	congruent	0.48047	no	H	H
371.8320312	0	95189	responseSmallH	correct	n/a	0.48047	no	n/a	n/a
372.9101562	0	95465	largeHSmallH	correct	congruent	0.49219	no	H	H
373.4023438	0	95591	responseSmallH	correct	n/a	0.49219	no	n/a	n/a
374.46875	0	95864	largeHSmallT	correct	incongruent	0.57031	no	H	T
375.0390625	0	96010	responseSmallT	correct	n/a	0.57031	no	n/a	n/a
376.0976562	0	96281	largeTSmallT	correct	congruent	0.53906	no	T	T
376.6367188	0	96419	responseSmallT	correct	n/a	0.53906	no	n/a	n/a
377.7109375	0	96694	largeHSmallT	correct	incongruent	0.52734	no	H	T
378.2382812	0	96829	responseSmallT	correct	n/a	0.52734	no	n/a	n/a
379.296875	0	97100	largeTSmallH	correct	incongruent	0.54297	no	T	H
379.8398438	0	97239	responseSmallH	correct	n/a	0.54297	no	n/a	n/a
380.9101562	0	97513	largeHSmallT	correct	incongruent	0.48828	no	H	T
381.3984375	0	97638	responseSmallT	correct	n/a	0.48828	no	n/a	n/a
382.46875	0	97912	largeTSmallH	correct	incongruent	0.52344	no	T	H
382.9921875	0	98046	responseSmallH	correct	n/a	0.52344	no	n/a	n/a
384.0585938	0	98319	largeHSmallT	correct	incongruent	0.48438	no	H	T
384.5429688	0	98443	responseSmallT	correct	n/a	0.48438	no	n/a	n/a
385.6171875	0	98718	largeHSmallT	correct	incongruent	0.47656	no	H	T
386.09375	0	98840	responseSmallT	correct	n/a	0.47656	no	n/a	n/a
387.1640625	0	99114	largeTSmallH	correct	incongruent	0.46875	no	T	H
387.6328125	0	99234	responseSmallH	correct	n/a	0.46875	no	n/a	n/a
388.6953125	0	99506	largeHSmallH	error	congruent	0.40234	no	H	H
389.0976562	0	99609	responseSmallT	error	n/a	0.40234	no	n/a	n/a
390.1757812	0	99885	largeHSmallT	correct	incongruent	0.57812	no	H	T
390.7539062	0	100033	responseSmallT	correct	n/a	0.57812	no	n/a	n/a
391.828125	0	100308	largeHSmallT	correct	incongruent	0.57031	no	H	T
392.3984375	0	100454	responseSmallT	correct	n/a	0.57031	no	n/a	n/a
393.46875	0	100728	largeTSmallH	correct	incongruent	0.70312	no	T	H
394.171875	0	100908	responseSmallH	correct	n/a	0.70312	no	n/a	n/a
395.2421875	0	101182	largeTSmallH	correct	incongruent	0.46875	no	T	H
395.7109375	0	101302	responseSmallH	correct	n/a	0.46875	no	n/a	n/a
396.7773438	0	101575	largeHSmallT	correct	incongruent	0.54297	no	H	T
397.3203125	0	101714	responseSmallT	correct	n/a	0.54297	no	n/a	n/a
398.4023438	0	101991	largeHSmallT	correct	incongruent	1.0977	no	H	T
399.5	0	102272	responseSmallT	correct	n/a	1.0977	no	n/a	n/a
400.5625	0	102544	largeTSmallT	correct	congruent	0.54688	no	T	T
401.109375	0	102684	responseSmallT	correct	n/a	0.54688	no	n/a	n/a
402.1757812	0	102957	largeHSmallT	correct	incongruent	0.45703	no	H	T
402.6328125	0	103074	responseSmallT	correct	n/a	0.45703	no	n/a	n/a
403.6953125	0	103346	largeTSmallH	correct	incongruent	0.5	no	T	H
404.1953125	0	103474	responseSmallH	correct	n/a	0.5	no	n/a	n/a
405.2578125	0	103746	largeHSmallT	correct	incongruent	0.50391	no	H	T
405.7617188	0	103875	responseSmallT	correct	n/a	0.50391	no	n/a	n/a
406.828125	0	104148	largeHSmallT	correct	incongruent	0.47266	no	H	T
407.3007812	0	104269	responseSmallT	correct	n/a	0.47266	no	n/a	n/a
408.3632812	0	104541	largeTSmallH	correct	incongruent	0.46094	no	T	H
408.8242188	0	104659	responseSmallH	correct	n/a	0.46094	no	n/a	n/a
409.8945312	0	104933	largeHSmallH	correct	congruent	0.47266	no	H	H
410.3671875	0	105054	responseSmallH	correct	n/a	0.47266	no	n/a	n/a
411.4414062	0	105329	largeTSmallT	correct	congruent	0.46875	no	T	T
411.9101562	0	105449	responseSmallT	correct	n/a	0.46875	no	n/a	n/a
412.9765625	0	105722	largeTSmallT	correct	congruent	0.41406	no	T	T
413.390625	0	105828	responseSmallT	correct	n/a	0.41406	no	n/a	n/a
414.46875	0	106104	largeTSmallH	correct	incongruent	0.53906	no	T	H
415.0078125	0	106242	responseSmallH	correct	n/a	0.53906	no	n/a	n/a
416.0703125	0	106514	largeTSmallH	correct	incongruent	0.41797	no	T	H
416.4882812	0	106621	responseSmallH	correct	n/a	0.41797	no	n/a	n/a
417.5507812	0	106893	largeHSmallH	correct	congruent	0.69141	no	H	H
418.2421875	0	107070	responseSmallH	correct	n/a	0.69141	no	n/a	n/a
419.3085938	0	107343	largeTSmallH	correct	incongruent	0.56641	no	T	H
419.875	0	107488	responseSmallH	correct	n/a	0.56641	no	n/a	n/a
420.9375	0	107760	largeTSmallT	correct	congruent	0.63281	no	T	T
421.5703125	0	107922	responseSmallT	correct	n/a	0.63281	no	n/a	n/a
422.640625	0	108196	largeTSmallT	correct	congruent	0.45703	no	T	T
423.0976562	0	108313	responseSmallT	correct	n/a	0.45703	no	n/a	n/a
424.1640625	0	108586	largeHSmallH	correct	congruent	0.5625	no	H	H
424.7265625	0	108730	responseSmallH	correct	n/a	0.5625	no	n/a	n/a
425.7890625	0	109002	largeTSmallH	correct	incongruent	0.52344	no	T	H
426.3125	0	109136	responseSmallH	correct	n/a	0.52344	no	n/a	n/a
427.375	0	109408	largeTSmallH	correct	incongruent	0.51953	no	T	H
427.8945312	0	109541	responseSmallH	correct	n/a	0.51953	no	n/a	n/a
428.9492188	0	109811	largeTSmallH	correct	incongruent	0.53125	no	T	H
429.4804688	0	109947	responseSmallH	correct	n/a	0.53125	no	n/a	n/a
430.5507812	0	110221	largeHSmallT	correct	incongruent	0.57422	no	H	T
431.125	0	110368	responseSmallT	correct	n/a	0.57422	no	n/a	n/a
432.1875	0	110640	largeTSmallT	correct	congruent	0.57422	no	T	T
432.7617188	0	110787	responseSmallT	correct	n/a	0.57422	no	n/a	n/a
433.828125	0	111060	largeTSmallH	correct	incongruent	0.58984	no	T	H
434.4179688	0	111211	responseSmallH	correct	n/a	0.58984	no	n/a	n/a
435.4960938	0	111487	largeTSmallT	correct	congruent	0.5625	no	T	T
436.0585938	0	111631	responseSmallT	correct	n/a	0.5625	no	n/a	n/a
437.1367188	0	111907	largeHSmallT	correct	incongruent	0.5625	no	H	T
437.6992188	0	112051	responseSmallT	correct	n/a	0.5625	no	n/a	n/a
438.7617188	0	112323	largeHSmallH	correct	congruent	0.57031	no	H	H
439.3320312	0	112469	responseSmallH	correct	n/a	0.57031	no	n/a	n/a
440.4023438	0	112743	largeHSmallH	correct	congruent	0.44922	no	H	H
440.8515625	0	112858	responseSmallH	correct	n/a	0.44922	no	n/a	n/a
441.921875	0	113132	largeHSmallT	correct	incongruent	0.57812	no	H	T
442.5	0	113280	responseSmallT	correct	n/a	0.57812	no	n/a	n/a
443.5742188	0	113555	largeTSmallT	correct	congruent	0.66016	no	T	T
444.234375	0	113724	responseSmallT	correct	n/a	0.66016	no	n/a	n/a
445.3085938	0	113999	largeHSmallT	correct	incongruent	0.51172	no	H	T
445.8203125	0	114130	responseSmallT	correct	n/a	0.51172	no	n/a	n/a
446.8945312	0	114405	largeTSmallH	correct	incongruent	0.49609	no	T	H
447.390625	0	114532	responseSmallH	correct	n/a	0.49609	no	n/a	n/a
448.4570312	0	114805	largeTSmallH	correct	incongruent	0.60547	no	T	H
449.0625	0	114960	responseSmallH	correct	n/a	0.60547	no	n/a	n/a
450.1210938	0	115231	largeHSmallT	correct	incongruent	0.52344	no	H	T
450.6445312	0	115365	responseSmallT	correct	n/a	0.52344	no	n/a	n/a
451.7226562	0	115641	largeTSmallH	correct	incongruent	0.5	no	T	H
452.2226562	0	115769	responseSmallH	correct	n/a	0.5	no	n/a	n/a
453.296875	0	116044	largeTSmallT	correct	congruent	0.62109	no	T	T
453.9179688	0	116203	responseSmallT	correct	n/a	0.62109	no	n/a	n/a
454.9765625	0	116474	largeHSmallH	correct	congruent	0.62109	no	H	H
455.5976562	0	116633	responseSmallH	correct	n/a	0.62109	no	n/a	n/a
456.65625	0	116904	largeTSmallH	correct	incongruent	0.48438	no	T	H
457.140625	0	117028	responseSmallH	correct	n/a	0.48438	no	n/a	n/a
458.203125	0	117300	largeTSmallT	correct	congruent	0.60156	no	T	T
458.8046875	0	117454	responseSmallT	correct	n/a	0.60156	no	n/a	n/a
459.8671875	0	117726	largeTSmallH	correct	incongruent	0.52734	no	T	H
460.3945312	0	117861	responseSmallH	correct	n/a	0.52734	no	n/a	n/a
461.46875	0	118136	largeHSmallH	correct	congruent	0.49609	no	H	H
461.9648438	0	118263	responseSmallH	correct	n/a	0.49609	no	n/a	n/a
463.0273438	0	118535	largeTSmallT	correct	congruent	0.5	no	T	T
463.5273438	0	118663	responseSmallT	correct	n/a	0.5	no	n/a	n/a
464.6015625	0	118938	largeHSmallH	correct	congruent	0.53516	no	H	H
465.1367188	0	119075	responseSmallH	correct	n/a	0.53516	no	n/a	n/a
466.2148438	0	119351	largeTSmallT	correct	congruent	0.5625	no	T	T
466.7773438	0	119495	responseSmallT	correct	n/a	0.5625	no	n/a	n/a
467.8398438	0	119767	largeHSmallT	correct	incongruent	0.53125	no	H	T
468.3710938	0	119903	responseSmallT	correct	n/a	0.53125	no	n/a	n/a
469.4414062	0	120177	largeTSmallT	correct	congruent	0.55078	no	T	T
469.9921875	0	120318	responseSmallT	correct	n/a	0.55078	no	n/a	n/a
471.0664062	0	120593	largeHSmallH	correct	congruent	0.48438	no	H	H
471.5507812	0	120717	responseSmallH	correct	n/a	0.48438	no	n/a	n/a
472.6289062	0	120993	largeTSmallT	correct	congruent	0.47656	no	T	T
473.1054688	0	121115	responseSmallT	correct	n/a	0.47656	no	n/a	n/a
474.1601562	0	121385	largeHSmallH	correct	congruent	0.48438	no	H	H
474.6445312	0	121509	responseSmallH	correct	n/a	0.48438	no	n/a	n/a
475.7070312	0	121781	largeTSmallT	correct	congruent	0.53125	no	T	T
476.2382812	0	121917	responseSmallT	correct	n/a	0.53125	no	n/a	n/a
477.2929688	0	122187	largeTSmallT	correct	congruent	0.53125	no	T	T
477.8242188	0	122323	responseSmallT	correct	n/a	0.53125	no	n/a	n/a
478.8945312	0	122597	largeHSmallT	correct	incongruent	0.46484	no	H	T
479.359375	0	122716	responseSmallT	correct	n/a	0.46484	no	n/a	n/a
480.4296875	0	122990	largeTSmallT	correct	congruent	0.53516	no	T	T
480.9648438	0	123127	responseSmallT	correct	n/a	0.53516	no	n/a	n/a
482.0273438	0	123399	largeHSmallH	correct	congruent	0.48047	no	H	H
482.5078125	0	123522	responseSmallH	correct	n/a	0.48047	no	n/a	n/a
483.5742188	0	123795	largeTSmallH	correct	incongruent	0.48438	no	T	H
484.0585938	0	123919	responseSmallH	correct	n/a	0.48438	no	n/a	n/a
485.1328125	0	124194	largeHSmallH	correct	congruent	0.46094	no	H	H
485.59375	0	124312	responseSmallH	correct	n/a	0.46094	no	n/a	n/a
486.65625	0	124584	largeHSmallH	correct	congruent	0.51172	no	H	H
487.1679688	0	124715	responseSmallH	correct	n/a	0.51172	no	n/a	n/a
488.2421875	0	124990	largeHSmallH	correct	congruent	0.4375	no	H	H
488.6796875	0	125102	responseSmallH	correct	n/a	0.4375	no	n/a	n/a
489.7460938	0	125375	largeHSmallT	correct	incongruent	0.5625	no	H	T
490.3085938	0	125519	responseSmallT	correct	n/a	0.5625	no	n/a	n/a
491.375	0	125792	largeTSmallT	correct	congruent	0.47656	no	T	T
491.8515625	0	125914	responseSmallT	correct	n/a	0.47656	no	n/a	n/a
492.921875	0	126188	largeTSmallT	correct	congruent	0.40234	no	T	T
493.3242188	0	126291	responseSmallT	correct	n/a	0.40234	no	n/a	n/a
494.4023438	0	126567	largeTSmallH	correct	incongruent	0.47656	no	T	H
494.8789062	0	126689	responseSmallH	correct	n/a	0.47656	no	n/a	n/a
495.9492188	0	126963	largeHSmallH	correct	congruent	0.46094	no	H	H
496.4101562	0	127081	responseSmallH	correct	n/a	0.46094	no	n/a	n/a
497.46875	0	127352	largeTSmallT	correct	congruent	0.46094	no	T	T
497.9296875	0	127470	responseSmallT	correct	n/a	0.46094	no	n/a	n/a
499	0	127744	largeHSmallT	correct	incongruent	0.52344	no	H	T
499.5234375	0	127878	responseSmallT	correct	n/a	0.52344	no	n/a	n/a
500.5859375	0	128150	largeTSmallT	correct	congruent	0.5	no	T	T
501.0859375	0	128278	responseSmallT	correct	n/a	0.5	no	n/a	n/a
502.1484375	0	128550	largeTSmallH	correct	incongruent	0.48438	no	T	H
502.6328125	0	128674	responseSmallH	correct	n/a	0.48438	no	n/a	n/a
503.6953125	0	128946	largeHSmallT	correct	incongruent	0.47266	no	H	T
504.1679688	0	129067	responseSmallT	correct	n/a	0.47266	no	n/a	n/a
505.2421875	0	129342	largeHSmallH	correct	congruent	0.45312	no	H	H
505.6953125	0	129458	responseSmallH	correct	n/a	0.45312	no	n/a	n/a
506.7734375	0	129734	largeHSmallT	correct	incongruent	0.57031	no	H	T
507.34375	0	129880	responseSmallT	correct	n/a	0.57031	no	n/a	n/a
508.4023438	0	130151	largeHSmallH	correct	congruent	0.53125	no	H	H
508.9335938	0	130287	responseSmallH	correct	n/a	0.53125	no	n/a	n/a
510	0	130560	largeTSmallT	correct	congruent	0.47656	no	T	T
510.4765625	0	130682	responseSmallT	correct	n/a	0.47656	no	n/a	n/a
511.546875	0	130956	largeHSmallH	correct	congruent	0.48828	no	H	H
512.0351562	0	131081	responseSmallH	correct	n/a	0.48828	no	n/a	n/a
513.1054688	0	131355	largeTSmallT	correct	congruent	0.48047	no	T	T
513.5859375	0	131478	responseSmallT	correct	n/a	0.48047	no	n/a	n/a
514.640625	0	131748	largeHSmallH	correct	congruent	0.55469	no	H	H
515.1953125	0	131890	responseSmallH	correct	n/a	0.55469	no	n/a	n/a
516.265625	0	132164	largeTSmallH	correct	incongruent	0.65234	no	T	H
516.9179688	0	132331	responseSmallH	correct	n/a	0.65234	no	n/a	n/a
517.9882812	0	132605	largeTSmallT	correct	congruent	0.49219	no	T	T
518.4804688	0	132731	responseSmallT	correct	n/a	0.49219	no	n/a	n/a
519.546875	0	133004	largeHSmallH	correct	congruent	0.54297	no	H	H
520.0898438	0	133143	responseSmallH	correct	n/a	0.54297	no	n/a	n/a
521.1484375	0	133414	largeHSmallH	correct	congruent	0.61328	no	H	H
521.7617188	0	133571	responseSmallH	correct	n/a	0.61328	no	n/a	n/a
522.8398438	0	133847	largeHSmallT	correct	incongruent	0.50781	no	H	T
523.3476562	0	133977	responseSmallT	correct	n/a	0.50781	no	n/a	n/a
524.4140625	0	134250	largeHSmallT	correct	incongruent	0.70312	no	H	T
525.1171875	0	134430	responseSmallT	correct	n/a	0.70312	no	n/a	n/a
526.1875	0	134704	largeTSmallH	correct	incongruent	0.55859	no	T	H
526.7460938	0	134847	responseSmallH	correct	n/a	0.55859	no	n/a	n/a
527.8125	0	135120	largeTSmallT	correct	congruent	0.53906	no	T	T
528.3515625	0	135258	responseSmallT	correct	n/a	0.53906	no	n/a	n/a
529.4140625	0	135530	largeTSmallH	correct	incongruent	0.54688	no	T	H
529.9609375	0	135670	responseSmallH	correct	n/a	0.54688	no	n/a	n/a
531.0273438	0	135943	largeHSmallH	correct	congruent	0.52344	no	H	H
531.5507812	0	136077	responseSmallH	correct	n/a	0.52344	no	n/a	n/a
532.6132812	0	136349	largeHSmallT	correct	incongruent	0.49219	no	H	T
533.1054688	0	136475	responseSmallT	correct	n/a	0.49219	no	n/a	n/a
534.171875	0	136748	largeTSmallH	correct	incongruent	0.67578	no	T	H
534.8476562	0	136921	responseSmallH	correct	n/a	0.67578	no	n/a	n/a
535.90625	0	137192	largeHSmallT	correct	incongruent	0.48438	no	H	T
536.390625	0	137316	responseSmallT	correct	n/a	0.48438	no	n/a	n/a
537.453125	0	137588	largeTSmallH	correct	incongruent	0.44141	no	T	H
537.8945312	0	137701	responseSmallH	correct	n/a	0.44141	no	n/a	n/a
538.9609375	0	137974	largeTSmallT	correct	congruent	0.48828	no	T	T
539.4492188	0	138099	responseSmallT	correct	n/a	0.48828	no	n/a	n/a
540.5078125	0	138370	largeTSmallH	correct	incongruent	0.60547	no	T	H
541.1132812	0	138525	responseSmallH	correct	n/a	0.60547	no	n/a	n/a
542.1875	0	138800	largeTSmallT	correct	congruent	0.47656	no	T	T
542.6640625	0	138922	responseSmallT	correct	n/a	0.47656	no	n/a	n/a
543.7226562	0	139193	largeTSmallT	correct	congruent	0.44922	no	T	T
544.171875	0	139308	responseSmallT	correct	n/a	0.44922	no	n/a	n/a
545.2382812	0	139581	largeHSmallH	correct	congruent	0.53125	no	H	H
545.7695312	0	139717	responseSmallH	correct	n/a	0.53125	no	n/a	n/a
546.8554688	0	139995	largeHSmallT	correct	incongruent	0.64453	no	H	T
547.5	0	140160	responseSmallT	correct	n/a	0.64453	no	n/a	n/a
548.5585938	0	140431	largeTSmallT	correct	congruent	0.51953	no	T	T
549.078125	0	140564	responseSmallT	correct	n/a	0.51953	no	n/a	n/a
550.1328125	0	140834	largeTSmallH	correct	incongruent	0.45312	no	T	H
550.5859375	0	140950	responseSmallH	correct	n/a	0.45312	no	n/a	n/a
551.6523438	0	141223	largeHSmallH	correct	congruent	0.63672	no	H	H
552.2890625	0	141386	responseSmallH	correct	n/a	0.63672	no	n/a	n/a
553.3476562	0	141657	largeHSmallT	correct	incongruent	0.60156	no	H	T
553.9492188	0	141811	responseSmallT	correct	n/a	0.60156	no	n/a	n/a
555.0117188	0	142083	largeHSmallT	correct	incongruent	0.49219	no	H	T
555.5039062	0	142209	responseSmallT	correct	n/a	0.49219	no	n/a	n/a
556.5585938	0	142479	largeTSmallT	correct	congruent	0.50781	no	T	T
557.0664062	0	142609	responseSmallT	correct	n/a	0.50781	no	n/a	n/a
558.1328125	0	142882	largeHSmallT	correct	incongruent	0.39062	no	H	T
558.5234375	0	142982	responseSmallT	correct	n/a	0.39062	no	n/a	n/a
559.5859375	0	143254	largeTSmallH	correct	incongruent	0.5	no	T	H
560.0859375	0	143382	responseSmallH	correct	n/a	0.5	no	n/a	n/a
561.1445312	0	143653	largeTSmallT	correct	congruent	0.67969	no	T	T
561.8242188	0	143827	responseSmallT	correct	n/a	0.67969	no	n/a	n/a
562.8945312	0	144101	largeHSmallH	correct	congruent	0.46484	no	H	H
563.359375	0	144220	responseSmallH	correct	n/a	0.46484	no	n/a	n/a
564.4257812	0	144493	largeTSmallT	correct	congruent	0.53125	no	T	T
564.9570312	0	144629	responseSmallT	correct	n/a	0.53125	no	n/a	n/a
566.0390625	0	144906	largeHSmallH	correct	congruent	0.62891	no	H	H
566.6679688	0	145067	responseSmallH	correct	n/a	0.62891	no	n/a	n/a
567.734375	0	145340	largeHSmallT	correct	incongruent	0.53906	no	H	T
568.2734375	0	145478	responseSmallT	correct	n/a	0.53906	no	n/a	n/a
569.3476562	0	145753	largeHSmallT	correct	incongruent	0.61328	no	H	T
569.9609375	0	145910	responseSmallT	correct	n/a	0.61328	no	n/a	n/a
571.0273438	0	146183	largeHSmallH	correct	congruent	0.57812	no	H	H
571.6054688	0	146331	responseSmallH	correct	n/a	0.57812	no	n/a	n/a
572.6679688	0	146603	largeTSmallH	correct	incongruent	0.55859	no	T	H
573.2265625	0	146746	responseSmallH	correct	n/a	0.55859	no	n/a	n/a
574.3046875	0	147022	largeHSmallH	correct	congruent	0.48438	no	H	H
574.7890625	0	147146	responseSmallH	correct	n/a	0.48438	no	n/a	n/a
575.8671875	0	147422	largeHSmallT	correct	incongruent	0.51953	no	H	T
576.3867188	0	147555	responseSmallT	correct	n/a	0.51953	no	n/a	n/a
577.453125	0	147828	largeHSmallH	correct	congruent	0.57031	no	H	H
578.0234375	0	147974	responseSmallH	correct	n/a	0.57031	no	n/a	n/a
579.09375	0	148248	largeTSmallT	correct	congruent	0.625	no	T	T
579.71875	0	148408	responseSmallT	correct	n/a	0.625	no	n/a	n/a
580.8007812	0	148685	largeTSmallT	correct	congruent	0.47656	no	T	T
581.2773438	0	148807	responseSmallT	correct	n/a	0.47656	no	n/a	n/a
582.3476562	0	149081	largeHSmallH	correct	congruent	0.50781	no	H	H
582.8554688	0	149211	responseSmallH	correct	n/a	0.50781	no	n/a	n/a
583.9335938	0	149487	largeHSmallH	correct	congruent	0.50781	no	H	H
584.4414062	0	149617	responseSmallH	correct	n/a	0.50781	no	n/a	n/a
585.5195312	0	149893	largeHSmallH	correct	congruent	0.50391	no	H	H
586.0234375	0	150022	responseSmallH	correct	n/a	0.50391	no	n/a	n/a
587.09375	0	150296	largeHSmallH	correct	congruent	0.46094	no	H	H
587.5546875	0	150414	responseSmallH	correct	n/a	0.46094	no	n/a	n/a
588.625	0	150688	largeTSmallT	correct	congruent	0.61328	no	T	T
589.2382812	0	150845	responseSmallT	correct	n/a	0.61328	no	n/a	n/a
590.3046875	0	151118	largeTSmallH	correct	incongruent	0.45703	no	T	H
590.7617188	0	151235	responseSmallH	correct	n/a	0.45703	no	n/a	n/a
591.8398438	0	151511	largeHSmallT	correct	incongruent	0.55859	no	H	T
592.3984375	0	151654	responseSmallT	correct	n/a	0.55859	no	n/a	n/a
593.4804688	0	151931	largeHSmallH	correct	congruent	0.6875	no	H	H
594.1679688	0	152107	responseSmallH	correct	n/a	0.6875	no	n/a	n/a
595.2382812	0	152381	largeHSmallT	correct	incongruent	0.62109	no	H	T
595.859375	0	152540	responseSmallT	correct	n/a	0.62109	no	n/a	n/a
596.9179688	0	152811	largeHSmallH	correct	congruent	0.58203	no	H	H
597.5	0	152960	responseSmallH	correct	n/a	0.58203	no	n/a	n/a
598.5585938	0	153231	largeTSmallH	correct	incongruent	0.52344	no	T	H
599.0820312	0	153365	responseSmallH	correct	n/a	0.52344	no	n/a	n/a
600.1445312	0	153637	largeTSmallH	correct	incongruent	0.77734	no	T	H
600.921875	0	153836	responseSmallH	correct	n/a	0.77734	no	n/a	n/a
602	0	154112	largeHSmallH	correct	congruent	0.60547	no	H	H
602.6054688	0	154267	responseSmallH	correct	n/a	0.60547	no	n/a	n/a
603.6796875	0	154542	largeTSmallT	correct	congruent	0.70703	no	T	T
604.3867188	0	154723	responseSmallT	correct	n/a	0.70703	no	n/a	n/a
605.453125	0	154996	largeHSmallT	correct	incongruent	0.48438	no	H	T
605.9375	0	155120	responseSmallT	correct	n/a	0.48438	no	n/a	n/a
607	0	155392	largeHSmallT	correct	incongruent	0.47266	no	H	T
607.4726562	0	155513	responseSmallT	correct	n/a	0.47266	no	n/a	n/a
608.546875	0	155788	largeHSmallH	correct	congruent	0.58984	no	H	H
609.1367188	0	155939	responseSmallH	correct	n/a	0.58984	no	n/a	n/a
610.1992188	0	156211	largeHSmallT	correct	incongruent	0.63672	no	H	T
610.8359375	0	156374	responseSmallT	correct	n/a	0.63672	no	n/a	n/a
611.890625	0	156644	largeTSmallH	correct	incongruent	0.47656	no	T	H
612.3671875	0	156766	responseSmallH	correct	n/a	0.47656	no	n/a	n/a
613.4375	0	157040	largeHSmallT	correct	incongruent	0.38672	no	H	T
613.8242188	0	157139	responseSmallT	correct	n/a	0.38672	no	n/a	n/a
614.890625	0	157412	largeTSmallH	correct	incongruent	0.4375	no	T	H
615.328125	0	157524	responseSmallH	correct	n/a	0.4375	no	n/a	n/a
616.3867188	0	157795	largeTSmallT	correct	congruent	0.36719	no	T	T
616.7539062	0	157889	responseSmallT	correct	n/a	0.36719	no	n/a	n/a
617.8242188	0	158163	largeHSmallH	correct	congruent	0.34375	no	H	H
618.1679688	0	158251	responseSmallH	correct	n/a	0.34375	no	n/a	n/a
619.2265625	0	158522	largeHSmallT	correct	incongruent	0.35547	no	H	T
619.5820312	0	158613	responseSmallT	correct	n/a	0.35547	no	n/a	n/a
620.6523438	0	158887	largeTSmallH	correct	incongruent	0.55859	no	T	H
621.2109375	0	159030	responseSmallH	correct	n/a	0.55859	no	n/a	n/a
622.2773438	0	159303	largeTSmallH	correct	incongruent	0.52344	no	T	H
622.8007812	0	159437	responseSmallH	correct	n/a	0.52344	no	n/a	n/a
623.8632812	0	159709	largeTSmallH	correct	incongruent	0.5625	no	T	H
624.4257812	0	159853	responseSmallH	correct	n/a	0.5625	no	n/a	n/a
625.4921875	0	160126	largeTSmallT	correct	congruent	0.57812	no	T	T
626.0703125	0	160274	responseSmallT	correct	n/a	0.57812	no	n/a	n/a
627.1445312	0	160549	largeTSmallH	correct	incongruent	0.58203	no	T	H
627.7265625	0	160698	responseSmallH	correct	n/a	0.58203	no	n/a	n/a
628.796875	0	160972	largeTSmallT	correct	congruent	0.46094	no	T	T
629.2578125	0	161090	responseSmallT	correct	n/a	0.46094	no	n/a	n/a
630.3164062	0	161361	largeTSmallH	correct	incongruent	0.48047	no	T	H
630.796875	0	161484	responseSmallH	correct	n/a	0.48047	no	n/a	n/a
631.8632812	0	161757	largeHSmallH	correct	congruent	0.55469	no	H	H
632.4179688	0	161899	responseSmallH	correct	n/a	0.55469	no	n/a	n/a
633.4921875	0	162174	largeTSmallT	correct	congruent	0.5	no	T	T
633.9921875	0	162302	responseSmallT	correct	n/a	0.5	no	n/a	n/a
635.0664062	0	162577	largeTSmallT	correct	congruent	0.58984	no	T	T
635.65625	0	162728	responseSmallT	correct	n/a	0.58984	no	n/a	n/a
636.71875	0	163000	largeTSmallH	correct	incongruent	0.40234	no	T	H
637.1210938	0	163103	responseSmallH	correct	n/a	0.40234	no	n/a	n/a
638.1835938	0	163375	largeHSmallH	correct	congruent	0.52734	no	H	H
638.7109375	0	163510	responseSmallH	correct	n/a	0.52734	no	n/a	n/a
639.7695312	0	163781	largeHSmallT	correct	incongruent	0.5	no	H	T
640.2695312	0	163909	responseSmallT	correct	n/a	0.5	no	n/a	n/a
641.3320312	0	164181	largeTSmallH	correct	incongruent	0.47266	no	T	H
641.8046875	0	164302	responseSmallH	correct	n/a	0.47266	no	n/a	n/a
642.8789062	0	164577	largeTSmallH	correct	incongruent	0.48047	no	T	H
643.359375	0	164700	responseSmallH	correct	n/a	0.48047	no	n/a	n/a
644.4257812	0	164973	largeHSmallT	correct	incongruent	0.51562	no	H	T
644.9414062	0	165105	responseSmallT	correct	n/a	0.51562	no	n/a	n/a
646.0117188	0	165379	largeHSmallH	correct	congruent	0.45312	no	H	H
646.4648438	0	165495	responseSmallH	correct	n/a	0.45312	no	n/a	n/a
647.53125	0	165768	largeTSmallT	correct	congruent	0.45703	no	T	T
647.9882812	0	165885	responseSmallT	correct	n/a	0.45703	no	n/a	n/a
649.0664062	0	166161	largeHSmallT	error	incongruent	0.51172	no	H	T
649.578125	0	166292	responseSmallH	error	n/a	0.51172	no	n/a	n/a
650.6523438	0	166567	largeHSmallH	correct	congruent	0.41406	no	H	H
651.0664062	0	166673	responseSmallH	correct	n/a	0.41406	no	n/a	n/a
652.1328125	0	166946	largeTSmallH	correct	incongruent	0.58594	no	T	H
652.71875	0	167096	responseSmallH	correct	n/a	0.58594	no	n/a	n/a
653.7851562	0	167369	largeTSmallT	correct	congruent	0.55469	no	T	T
654.3398438	0	167511	responseSmallT	correct	n/a	0.55469	no	n/a	n/a
655.4101562	0	167785	largeTSmallT	correct	congruent	0.49219	no	T	T
655.9023438	0	167911	responseSmallT	correct	n/a	0.49219	no	n/a	n/a
656.9726562	0	168185	largeTSmallT	correct	congruent	0.53516	no	T	T
657.5078125	0	168322	responseSmallT	correct	n/a	0.53516	no	n/a	n/a
658.5703125	0	168594	largeTSmallH	correct	incongruent	0.52344	no	T	H
659.09375	0	168728	responseSmallH	correct	n/a	0.52344	no	n/a	n/a
660.171875	0	169004	largeHSmallH	correct	congruent	0.58594	no	H	H
660.7578125	0	169154	responseSmallH	correct	n/a	0.58594	no	n/a	n/a
661.8242188	0	169427	largeHSmallT	correct	incongruent	0.49219	no	H	T
662.3164062	0	169553	responseSmallT	correct	n/a	0.49219	no	n/a	n/a
663.3828125	0	169826	largeTSmallT	correct	congruent	0.39844	no	T	T
663.78125	0	169928	responseSmallT	correct	n/a	0.39844	no	n/a	n/a
664.8515625	0	170202	largeTSmallT	correct	congruent	0.43359	no	T	T
665.2851562	0	170313	responseSmallT	correct	n/a	0.43359	no	n/a	n/a
666.3554688	0	170587	largeTSmallH	correct	incongruent	0.47266	no	T	H
666.828125	0	170708	responseSmallH	correct	n/a	0.47266	no	n/a	n/a
681.890625	0	174564	largeHSmallT	correct	incongruent	0.85938	no	H	T
682.75	0	174784	responseLargeH	correct	n/a	0.85938	no	n/a	n/a
683.8085938	0	175055	largeTSmallT	correct	congruent	0.57031	no	T	T
684.3789062	0	175201	responseLargeT	correct	n/a	0.57031	no	n/a	n/a
685.4492188	0	175475	largeTSmallH	correct	incongruent	0.46875	no	T	H
685.9179688	0	175595	responseLargeT	correct	n/a	0.46875	no	n/a	n/a
686.984375	0	175868	largeTSmallH	correct	incongruent	0.40625	no	T	H
687.390625	0	175972	responseLargeT	correct	n/a	0.40625	no	n/a	n/a
688.4648438	0	176247	largeHSmallT	correct	incongruent	0.46094	no	H	T
688.9257812	0	176365	responseLargeH	correct	n/a	0.46094	no	n/a	n/a
689.9960938	0	176639	largeTSmallH	correct	incongruent	0.5	no	T	H
690.4960938	0	176767	responseLargeT	correct	n/a	0.5	no	n/a	n/a
691.5703125	0	177042	largeTSmallH	correct	incongruent	0.54688	no	T	H
692.1171875	0	177182	responseLargeT	correct	n/a	0.54688	no	n/a	n/a
693.1953125	0	177458	largeTSmallT	correct	congruent	0.46094	no	T	T
693.65625	0	177576	responseLargeT	correct	n/a	0.46094	no	n/a	n/a
694.71875	0	177848	largeTSmallH	correct	incongruent	0.5625	no	T	H
695.28125	0	177992	responseLargeT	correct	n/a	0.5625	no	n/a	n/a
696.3554688	0	178267	largeHSmallH	correct	congruent	0.63672	no	H	H
696.9921875	0	178430	responseLargeH	correct	n/a	0.63672	no	n/a	n/a
698.0625	0	178704	largeTSmallH	correct	incongruent	0.53516	no	T	H
698.5976562	0	178841	responseLargeT	correct	n/a	0.53516	no	n/a	n/a
699.6640625	0	179114	largeTSmallH	correct	incongruent	0.4375	no	T	H
700.1015625	0	179226	responseLargeT	correct	n/a	0.4375	no	n/a	n/a
701.1835938	0	179503	largeTSmallH	correct	incongruent	0.39062	no	T	H
701.5742188	0	179603	responseLargeT	correct	n/a	0.39062	no	n/a	n/a
702.6484375	0	179878	largeHSmallH	correct	congruent	0.52734	no	H	H
703.1757812	0	180013	responseLargeH	correct	n/a	0.52734	no	n/a	n/a
704.25	0	180288	largeTSmallH	correct	incongruent	0.46484	no	T	H
704.7148438	0	180407	responseLargeT	correct	n/a	0.46484	no	n/a	n/a
705.7851562	0	180681	largeTSmallT	correct	congruent	0.38281	no	T	T
706.1679688	0	180779	responseLargeT	correct	n/a	0.38281	no	n/a	n/a
707.2226562	0	181049	largeTSmallH	correct	incongruent	0.48047	no	T	H
707.703125	0	181172	responseLargeT	correct	n/a	0.48047	no	n/a	n/a
708.7695312	0	181445	largeHSmallT	correct	incongruent	0.53906	no	H	T
709.3085938	0	181583	responseLargeH	correct	n/a	0.53906	no	n/a	n/a
710.3828125	0	181858	largeHSmallT	correct	incongruent	0.48438	no	H	T
710.8671875	0	181982	responseLargeH	correct	n/a	0.48438	no	n/a	n/a
717.1445312	0	183589	largeHSmallH	correct	congruent	0.78125	no	H	H
717.9257812	0	183789	responseLargeH	correct	n/a	0.78125	no	n/a	n/a
719	0	184064	largeTSmallT	correct	congruent	0.73047	no	T	T
719.7304688	0	184251	responseLargeT	correct	n/a	0.73047	no	n/a	n/a
720.8007812	0	184525	largeTSmallT	correct	congruent	0.47266	no	T	T
721.2734375	0	184646	responseLargeT	correct	n/a	0.47266	no	n/a	n/a
722.34375	0	184920	largeTSmallH	correct	incongruent	0.39844	no	T	H
722.7421875	0	185022	responseLargeT	correct	n/a	0.39844	no	n/a	n/a
723.8125	0	185296	largeHSmallH	correct	congruent	0.4375	no	H	H
724.25	0	185408	responseLargeH	correct	n/a	0.4375	no	n/a	n/a
725.3046875	0	185678	largeTSmallH	correct	incongruent	0.51172	no	T	H
725.8164062	0	185809	responseLargeT	correct	n/a	0.51172	no	n/a	n/a
726.890625	0	186084	largeHSmallH	correct	congruent	0.58594	no	H	H
727.4765625	0	186234	responseLargeH	correct	n/a	0.58594	no	n/a	n/a
728.546875	0	186508	largeHSmallH	correct	congruent	0.46875	no	H	H
729.015625	0	186628	responseLargeH	correct	n/a	0.46875	no	n/a	n/a
730.09375	0	186904	largeTSmallT	correct	congruent	0.44922	no	T	T
730.5429688	0	187019	responseLargeT	correct	n/a	0.44922	no	n/a	n/a
731.6132812	0	187293	largeHSmallT	correct	incongruent	0.45703	no	H	T
732.0703125	0	187410	responseLargeH	correct	n/a	0.45703	no	n/a	n/a
733.1445312	0	187685	largeHSmallH	correct	congruent	0.44922	no	H	H
733.59375	0	187800	responseLargeH	correct	n/a	0.44922	no	n/a	n/a
734.6523438	0	188071	largeHSmallT	correct	incongruent	0.5	no	H	T
735.1523438	0	188199	responseLargeH	correct	n/a	0.5	no	n/a	n/a
736.2109375	0	188470	largeHSmallH	correct	congruent	0.45703	no	H	H
736.6679688	0	188587	responseLargeH	correct	n/a	0.45703	no	n/a	n/a
737.7460938	0	188863	largeHSmallT	correct	incongruent	0.46875	no	H	T
738.2148438	0	188983	responseLargeH	correct	n/a	0.46875	no	n/a	n/a
739.265625	0	189252	largeTSmallT	correct	congruent	0.46094	no	T	T
739.7265625	0	189370	responseLargeT	correct	n/a	0.46094	no	n/a	n/a
740.796875	0	189644	largeTSmallH	error	incongruent	0.48438	no	T	H
741.28125	0	189768	responseLargeH	error	n/a	0.48438	no	n/a	n/a
742.34375	0	190040	largeHSmallT	error	incongruent	0.67188	no	H	T
743.015625	0	190212	responseLargeT	error	n/a	0.67188	no	n/a	n/a
744.078125	0	190484	largeTSmallT	correct	congruent	0.56641	no	T	T
744.6445312	0	190629	responseLargeT	correct	n/a	0.56641	no	n/a	n/a
745.71875	0	190904	largeTSmallT	correct	congruent	0.50781	no	T	T
746.2265625	0	191034	responseLargeT	correct	n/a	0.50781	no	n/a	n/a
747.2929688	0	191307	largeTSmallH	correct	incongruent	0.53125	no	T	H
747.8242188	0	191443	responseLargeT	correct	n/a	0.53125	no	n/a	n/a
748.90625	0	191720	largeHSmallH	correct	congruent	0.51953	no	H	H
749.4257812	0	191853	responseLargeH	correct	n/a	0.51953	no	n/a	n/a
750.4921875	0	192126	largeTSmallH	correct	incongruent	0.57422	no	T	H
751.0664062	0	192273	responseLargeT	correct	n/a	0.57422	no	n/a	n/a
752.1328125	0	192546	largeTSmallT	correct	congruent	0.49609	no	T	T
752.6289062	0	192673	responseLargeT	correct	n/a	0.49609	no	n/a	n/a
753.703125	0	192948	largeTSmallH	correct	incongruent	0.48828	no	T	H
754.1914062	0	193073	responseLargeT	correct	n/a	0.48828	no	n/a	n/a
755.265625	0	193348	largeHSmallH	correct	congruent	0.50391	no	H	H
755.7695312	0	193477	responseLargeH	correct	n/a	0.50391	no	n/a	n/a
756.8398438	0	193751	largeTSmallT	correct	congruent	0.46094	no	T	T
757.3007812	0	193869	responseLargeT	correct	n/a	0.46094	no	n/a	n/a
758.3710938	0	194143	largeTSmallT	correct	congruent	0.49219	no	T	T
758.8632812	0	194269	responseLargeT	correct	n/a	0.49219	no	n/a	n/a
759.9296875	0	194542	largeHSmallH	correct	congruent	0.49219	no	H	H
760.421875	0	194668	responseLargeH	correct	n/a	0.49219	no	n/a	n/a
761.4921875	0	194942	largeTSmallH	correct	incongruent	0.47656	no	T	H
761.96875	0	195064	responseLargeT	correct	n/a	0.47656	no	n/a	n/a
763.0390625	0	195338	largeTSmallH	correct	incongruent	0.53906	no	T	H
763.578125	0	195476	responseLargeT	correct	n/a	0.53906	no	n/a	n/a
764.6367188	0	195747	largeHSmallT	correct	incongruent	0.45703	no	H	T
765.09375	0	195864	responseLargeH	correct	n/a	0.45703	no	n/a	n/a
766.171875	0	196140	largeTSmallT	correct	congruent	0.57031	no	T	T
766.7421875	0	196286	responseLargeT	correct	n/a	0.57031	no	n/a	n/a
767.796875	0	196556	largeHSmallT	correct	incongruent	0.53906	no	H	T
768.3359375	0	196694	responseLargeH	correct	n/a	0.53906	no	n/a	n/a
769.3984375	0	196966	largeHSmallH	correct	congruent	0.54688	no	H	H
769.9453125	0	197106	responseLargeH	correct	n/a	0.54688	no	n/a	n/a
771.0234375	0	197382	largeTSmallT	correct	congruent	0.50391	no	T	T
771.5273438	0	197511	responseLargeT	correct	n/a	0.50391	no	n/a	n/a
772.5976562	0	197785	largeTSmallT	correct	congruent	0.48047	no	T	T
773.078125	0	197908	responseLargeT	correct	n/a	0.48047	no	n/a	n/a
774.1445312	0	198181	largeTSmallH	correct	incongruent	0.49609	no	T	H
774.640625	0	198308	responseLargeT	correct	n/a	0.49609	no	n/a	n/a
775.71875	0	198584	largeTSmallT	correct	congruent	0.44922	no	T	T
776.1679688	0	198699	responseLargeT	correct	n/a	0.44922	no	n/a	n/a
777.2382812	0	198973	largeTSmallH	correct	incongruent	0.45703	no	T	H
777.6953125	0	199090	responseLargeT	correct	n/a	0.45703	no	n/a	n/a
778.7578125	0	199362	largeHSmallT	correct	incongruent	0.50391	no	H	T
779.2617188	0	199491	responseLargeH	correct	n/a	0.50391	no	n/a	n/a
780.3320312	0	199765	largeTSmallT	correct	congruent	0.50781	no	T	T
780.8398438	0	199895	responseLargeT	correct	n/a	0.50781	no	n/a	n/a
781.9023438	0	200167	largeTSmallH	correct	incongruent	0.46094	no	T	H
782.3632812	0	200285	responseLargeT	correct	n/a	0.46094	no	n/a	n/a
783.4375	0	200560	largeHSmallH	correct	congruent	0.73047	no	H	H
784.1679688	0	200747	responseLargeH	correct	n/a	0.73047	no	n/a	n/a
785.2226562	0	201017	largeHSmallH	correct	congruent	0.46094	no	H	H
785.6835938	0	201135	responseLargeH	correct	n/a	0.46094	no	n/a	n/a
786.7460938	0	201407	largeHSmallT	correct	incongruent	0.52734	no	H	T
787.2734375	0	201542	responseLargeH	correct	n/a	0.52734	no	n/a	n/a
788.3320312	0	201813	largeHSmallH	correct	congruent	0.42578	no	H	H
788.7578125	0	201922	responseLargeH	correct	n/a	0.42578	no	n/a	n/a
789.8242188	0	202195	largeHSmallT	correct	incongruent	0.53125	no	H	T
790.3554688	0	202331	responseLargeH	correct	n/a	0.53125	no	n/a	n/a
791.4257812	0	202605	largeHSmallT	correct	incongruent	0.51172	no	H	T
791.9375	0	202736	responseLargeH	correct	n/a	0.51172	no	n/a	n/a
792.9960938	0	203007	largeTSmallT	correct	congruent	0.55078	no	T	T
793.546875	0	203148	responseLargeT	correct	n/a	0.55078	no	n/a	n/a
794.625	0	203424	largeHSmallT	correct	incongruent	0.55859	no	H	T
795.1835938	0	203567	responseLargeH	correct	n/a	0.55859	no	n/a	n/a
796.25	0	203840	largeHSmallH	correct	congruent	0.53906	no	H	H
796.7890625	0	203978	responseLargeH	correct	n/a	0.53906	no	n/a	n/a
797.8515625	0	204250	largeHSmallT	correct	incongruent	0.47656	no	H	T
798.328125	0	204372	responseLargeH	correct	n/a	0.47656	no	n/a	n/a
799.3984375	0	204646	largeTSmallH	correct	incongruent	0.53516	no	T	H
799.9335938	0	204783	responseLargeT	correct	n/a	0.53516	no	n/a	n/a
801.0117188	0	205059	largeTSmallT	correct	congruent	0.45312	no	T	T
801.4648438	0	205175	responseLargeT	correct	n/a	0.45312	no	n/a	n/a
802.53125	0	205448	largeHSmallH	correct	congruent	0.5625	no	H	H
803.09375	0	205592	responseLargeH	correct	n/a	0.5625	no	n/a	n/a
804.15625	0	205864	largeHSmallH	correct	congruent	0.5625	no	H	H
804.71875	0	206008	responseLargeH	correct	n/a	0.5625	no	n/a	n/a
805.796875	0	206284	largeTSmallH	correct	incongruent	0.54688	no	T	H
806.34375	0	206424	responseLargeT	correct	n/a	0.54688	no	n/a	n/a
807.4101562	0	206697	largeHSmallH	correct	congruent	0.47266	no	H	H
807.8828125	0	206818	responseLargeH	correct	n/a	0.47266	no	n/a	n/a
808.9453125	0	207090	largeTSmallT	correct	congruent	0.48438	no	T	T
809.4296875	0	207214	responseLargeT	correct	n/a	0.48438	no	n/a	n/a
810.5039062	0	207489	largeTSmallH	correct	incongruent	0.58203	no	T	H
811.0859375	0	207638	responseLargeT	correct	n/a	0.58203	no	n/a	n/a
812.15625	0	207912	largeTSmallH	correct	incongruent	0.44922	no	T	H
812.6054688	0	208027	responseLargeT	correct	n/a	0.44922	no	n/a	n/a
813.6640625	0	208298	largeTSmallH	correct	incongruent	0.42188	no	T	H
814.0859375	0	208406	responseLargeT	correct	n/a	0.42188	no	n/a	n/a
815.15625	0	208680	largeHSmallT	correct	incongruent	0.50391	no	H	T
815.6601562	0	208809	responseLargeH	correct	n/a	0.50391	no	n/a	n/a
816.7304688	0	209083	largeTSmallT	correct	congruent	0.49219	no	T	T
817.2226562	0	209209	responseLargeT	correct	n/a	0.49219	no	n/a	n/a
818.2890625	0	209482	largeTSmallT	correct	congruent	0.61328	no	T	T
818.9023438	0	209639	responseLargeT	correct	n/a	0.61328	no	n/a	n/a
819.984375	0	209916	largeTSmallH	correct	incongruent	0.44922	no	T	H
820.4335938	0	210031	responseLargeT	correct	n/a	0.44922	no	n/a	n/a
821.5039062	0	210305	largeTSmallT	correct	congruent	0.42578	no	T	T
821.9296875	0	210414	responseLargeT	correct	n/a	0.42578	no	n/a	n/a
822.9960938	0	210687	largeTSmallT	correct	congruent	0.41016	no	T	T
823.40625	0	210792	responseLargeT	correct	n/a	0.41016	no	n/a	n/a
824.4648438	0	211063	largeTSmallH	correct	incongruent	0.38281	no	T	H
824.8476562	0	211161	responseLargeT	correct	n/a	0.38281	no	n/a	n/a
825.9179688	0	211435	largeHSmallT	correct	incongruent	0.51562	no	H	T
826.4335938	0	211567	responseLargeH	correct	n/a	0.51562	no	n/a	n/a
827.4882812	0	211837	largeTSmallH	correct	incongruent	0.50781	no	T	H
827.9960938	0	211967	responseLargeT	correct	n/a	0.50781	no	n/a	n/a
829.0625	0	212240	largeTSmallH	correct	incongruent	0.55859	no	T	H
829.6210938	0	212383	responseLargeT	correct	n/a	0.55859	no	n/a	n/a
830.6914062	0	212657	largeHSmallT	correct	incongruent	0.50781	no	H	T
831.1992188	0	212787	responseLargeH	correct	n/a	0.50781	no	n/a	n/a
832.2617188	0	213059	largeHSmallT	correct	incongruent	0.56641	no	H	T
832.828125	0	213204	responseLargeH	correct	n/a	0.56641	no	n/a	n/a
833.890625	0	213476	largeHSmallH	correct	congruent	0.51172	no	H	H
834.4023438	0	213607	responseLargeH	correct	n/a	0.51172	no	n/a	n/a
835.4648438	0	213879	largeTSmallT	correct	congruent	0.45312	no	T	T
835.9179688	0	213995	responseLargeT	correct	n/a	0.45312	no	n/a	n/a
836.9960938	0	214271	largeHSmallH	correct	congruent	0.625	no	H	H
837.6210938	0	214431	responseLargeH	correct	n/a	0.625	no	n/a	n/a
838.6914062	0	214705	largeTSmallT	correct	congruent	0.51562	no	T	T
839.2070312	0	214837	responseLargeT	correct	n/a	0.51562	no	n/a	n/a
840.2890625	0	215114	largeTSmallH	correct	incongruent	0.53516	no	T	H
840.8242188	0	215251	responseLargeT	correct	n/a	0.53516	no	n/a	n/a
841.890625	0	215524	largeHSmallH	correct	congruent	0.5	no	H	H
842.390625	0	215652	responseLargeH	correct	n/a	0.5	no	n/a	n/a
843.4492188	0	215923	largeTSmallT	correct	congruent	0.73047	no	T	T
844.1796875	0	216110	responseLargeT	correct	n/a	0.73047	no	n/a	n/a
845.25	0	216384	largeTSmallH	correct	incongruent	0.71875	no	T	H
845.96875	0	216568	responseLargeT	correct	n/a	0.71875	no	n/a	n/a
847.0351562	0	216841	largeTSmallH	correct	incongruent	0.55078	no	T	H
847.5859375	0	216982	responseLargeT	correct	n/a	0.55078	no	n/a	n/a
848.6484375	0	217254	largeHSmallT	correct	incongruent	0.70703	no	H	T
849.3554688	0	217435	responseLargeH	correct	n/a	0.70703	no	n/a	n/a
850.421875	0	217708	largeHSmallH	correct	congruent	0.51562	no	H	H
850.9375	0	217840	responseLargeH	correct	n/a	0.51562	no	n/a	n/a
851.9960938	0	218111	largeHSmallT	correct	incongruent	0.59766	no	H	T
852.59375	0	218264	responseLargeH	correct	n/a	0.59766	no	n/a	n/a
853.6484375	0	218534	largeHSmallT	correct	incongruent	0.67969	no	H	T
854.328125	0	218708	responseLargeH	correct	n/a	0.67969	no	n/a	n/a
855.3945312	0	218981	largeHSmallT	correct	incongruent	0.52344	no	H	T
855.9179688	0	219115	responseLargeH	correct	n/a	0.52344	no	n/a	n/a
856.9960938	0	219391	largeHSmallT	correct	incongruent	0.46094	no	H	T
857.4570312	0	219509	responseLargeH	correct	n/a	0.46094	no	n/a	n/a
858.515625	0	219780	largeHSmallT	correct	incongruent	0.5	no	H	T
859.015625	0	219908	responseLargeH	correct	n/a	0.5	no	n/a	n/a
860.0742188	0	220179	largeTSmallH	correct	incongruent	0.54297	no	T	H
860.6171875	0	220318	responseLargeT	correct	n/a	0.54297	no	n/a	n/a
861.6914062	0	220593	largeHSmallH	correct	congruent	0.59766	no	H	H
862.2890625	0	220746	responseLargeH	correct	n/a	0.59766	no	n/a	n/a
863.3554688	0	221019	largeHSmallT	correct	incongruent	0.46875	no	H	T
863.8242188	0	221139	responseLargeH	correct	n/a	0.46875	no	n/a	n/a
864.890625	0	221412	largeHSmallT	correct	incongruent	0.52344	no	H	T
865.4140625	0	221546	responseLargeH	correct	n/a	0.52344	no	n/a	n/a
866.4765625	0	221818	largeTSmallH	correct	incongruent	0.57422	no	T	H
867.0507812	0	221965	responseLargeT	correct	n/a	0.57422	no	n/a	n/a
868.1171875	0	222238	largeTSmallT	correct	congruent	0.44531	no	T	T
868.5625	0	222352	responseLargeT	correct	n/a	0.44531	no	n/a	n/a
869.6210938	0	222623	largeHSmallH	correct	congruent	0.49609	no	H	H
870.1171875	0	222750	responseLargeH	correct	n/a	0.49609	no	n/a	n/a
871.1835938	0	223023	largeHSmallT	correct	incongruent	0.51562	no	H	T
871.6992188	0	223155	responseLargeH	correct	n/a	0.51562	no	n/a	n/a
872.7695312	0	223429	largeHSmallH	correct	congruent	0.50781	no	H	H
873.2773438	0	223559	responseLargeH	correct	n/a	0.50781	no	n/a	n/a
874.34375	0	223832	largeHSmallH	correct	congruent	0.53516	no	H	H
874.8789062	0	223969	responseLargeH	correct	n/a	0.53516	no	n/a	n/a
879.1289062	0	225057	largeTSmallT	correct	congruent	0.48438	no	T	T
879.6132812	0	225181	responseSmallT	correct	n/a	0.48438	no	n/a	n/a
880.6875	0	225456	largeTSmallT	correct	congruent	0.46484	no	T	T
881.1523438	0	225575	responseSmallT	correct	n/a	0.46484	no	n/a	n/a
882.2226562	0	225849	largeTSmallH	error	incongruent	0.60547	no	T	H
882.828125	0	226004	responseSmallT	error	n/a	0.60547	no	n/a	n/a
883.9023438	0	226279	largeHSmallT	correct	incongruent	0.51562	no	H	T
884.4179688	0	226411	responseSmallT	correct	n/a	0.51562	no	n/a	n/a
885.4882812	0	226685	largeHSmallH	correct	congruent	0.5625	no	H	H
886.0507812	0	226829	responseSmallH	correct	n/a	0.5625	no	n/a	n/a
887.1171875	0	227102	largeTSmallH	correct	incongruent	0.57422	no	T	H
887.6914062	0	227249	responseSmallH	correct	n/a	0.57422	no	n/a	n/a
888.7539062	0	227521	largeTSmallT	correct	congruent	0.51953	no	T	T
889.2734375	0	227654	responseSmallT	correct	n/a	0.51953	no	n/a	n/a
890.34375	0	227928	largeTSmallT	correct	congruent	0.60156	no	T	T
890.9453125	0	228082	responseSmallT	correct	n/a	0.60156	no	n/a	n/a
892.0078125	0	228354	largeHSmallH	correct	congruent	0.49609	no	H	H
892.5039062	0	228481	responseSmallH	correct	n/a	0.49609	no	n/a	n/a
893.5703125	0	228754	largeHSmallT	correct	incongruent	0.57031	no	H	T
894.140625	0	228900	responseSmallT	correct	n/a	0.57031	no	n/a	n/a
895.2070312	0	229173	largeTSmallT	correct	congruent	0.48047	no	T	T
895.6875	0	229296	responseSmallT	correct	n/a	0.48047	no	n/a	n/a
896.7539062	0	229569	largeHSmallT	correct	incongruent	0.55078	no	H	T
897.3046875	0	229710	responseSmallT	correct	n/a	0.55078	no	n/a	n/a
898.3828125	0	229986	largeHSmallH	correct	congruent	0.54297	no	H	H
898.9257812	0	230125	responseSmallH	correct	n/a	0.54297	no	n/a	n/a
899.9960938	0	230399	largeTSmallH	correct	incongruent	0.70312	no	T	H
900.6992188	0	230579	responseSmallH	correct	n/a	0.70312	no	n/a	n/a
901.7695312	0	230853	largeHSmallH	correct	congruent	0.55469	no	H	H
902.3242188	0	230995	responseSmallH	correct	n/a	0.55469	no	n/a	n/a
903.3828125	0	231266	largeTSmallT	correct	congruent	0.70703	no	T	T
904.0898438	0	231447	responseSmallT	correct	n/a	0.70703	no	n/a	n/a
905.1679688	0	231723	largeHSmallT	correct	incongruent	0.54688	no	H	T
905.7148438	0	231863	responseSmallT	correct	n/a	0.54688	no	n/a	n/a
906.78125	0	232136	largeTSmallH	correct	incongruent	0.44531	no	T	H
907.2265625	0	232250	responseSmallH	correct	n/a	0.44531	no	n/a	n/a
908.3007812	0	232525	largeHSmallH	correct	congruent	0.54688	no	H	H
908.8476562	0	232665	responseSmallH	correct	n/a	0.54688	no	n/a	n/a
909.9023438	0	232935	largeTSmallH	correct	incongruent	0.78125	no	T	H
910.6835938	0	233135	responseSmallH	correct	n/a	0.78125	no	n/a	n/a
911.7421875	0	233406	largeTSmallH	correct	incongruent	0.4375	no	T	H
912.1796875	0	233518	responseSmallH	correct	n/a	0.4375	no	n/a	n/a
913.25	0	233792	largeHSmallH	correct	congruent	0.45312	no	H	H
913.703125	0	233908	responseSmallH	correct	n/a	0.45312	no	n/a	n/a
914.7695312	0	234181	largeTSmallT	correct	congruent	0.54297	no	T	T
915.3125	0	234320	responseSmallT	correct	n/a	0.54297	no	n/a	n/a
916.3828125	0	234594	largeHSmallH	correct	congruent	0.55859	no	H	H
916.9414062	0	234737	responseSmallH	correct	n/a	0.55859	no	n/a	n/a
918.0078125	0	235010	largeTSmallT	correct	congruent	0.57812	no	T	T
918.5859375	0	235158	responseSmallT	correct	n/a	0.57812	no	n/a	n/a
919.6601562	0	235433	largeTSmallH	correct	incongruent	0.47266	no	T	H
920.1328125	0	235554	responseSmallH	correct	n/a	0.47266	no	n/a	n/a
921.2070312	0	235829	largeHSmallT	correct	incongruent	0.52734	no	H	T
921.734375	0	235964	responseSmallT	correct	n/a	0.52734	no	n/a	n/a
922.8085938	0	236239	largeHSmallH	correct	congruent	0.47266	no	H	H
923.28125	0	236360	responseSmallH	correct	n/a	0.47266	no	n/a	n/a
924.3554688	0	236635	largeTSmallH	correct	incongruent	0.46484	no	T	H
924.8203125	0	236754	responseSmallH	correct	n/a	0.46484	no	n/a	n/a
925.875	0	237024	largeTSmallH	correct	incongruent	0.47266	no	T	H
926.3476562	0	237145	responseSmallH	correct	n/a	0.47266	no	n/a	n/a
927.40625	0	237416	largeHSmallH	correct	congruent	0.46875	no	H	H
927.875	0	237536	responseSmallH	correct	n/a	0.46875	no	n/a	n/a
928.9414062	0	237809	largeTSmallT	correct	congruent	0.53906	no	T	T
929.4804688	0	237947	responseSmallT	correct	n/a	0.53906	no	n/a	n/a
930.5429688	0	238219	largeTSmallH	correct	incongruent	0.49219	no	T	H
931.0351562	0	238345	responseSmallH	correct	n/a	0.49219	no	n/a	n/a
932.1015625	0	238618	largeTSmallH	correct	incongruent	0.48438	no	T	H
932.5859375	0	238742	responseSmallH	correct	n/a	0.48438	no	n/a	n/a
933.6484375	0	239014	largeHSmallT	correct	incongruent	0.50391	no	H	T
934.1523438	0	239143	responseSmallT	correct	n/a	0.50391	no	n/a	n/a
935.2226562	0	239417	largeTSmallT	correct	congruent	0.47266	no	T	T
935.6953125	0	239538	responseSmallT	correct	n/a	0.47266	no	n/a	n/a
936.7539062	0	239809	largeHSmallH	correct	congruent	0.51172	no	H	H
937.265625	0	239940	responseSmallH	correct	n/a	0.51172	no	n/a	n/a
938.328125	0	240212	largeHSmallH	correct	congruent	0.47656	no	H	H
938.8046875	0	240334	responseSmallH	correct	n/a	0.47656	no	n/a	n/a
939.875	0	240608	largeHSmallT	correct	incongruent	0.49609	no	H	T
940.3710938	0	240735	responseSmallT	correct	n/a	0.49609	no	n/a	n/a
941.4335938	0	241007	largeHSmallT	correct	incongruent	0.49609	no	H	T
941.9296875	0	241134	responseSmallT	correct	n/a	0.49609	no	n/a	n/a
942.9960938	0	241407	largeTSmallT	correct	congruent	0.41797	no	T	T
943.4140625	0	241514	responseSmallT	correct	n/a	0.41797	no	n/a	n/a
944.4726562	0	241785	largeHSmallH	correct	congruent	0.45703	no	H	H
944.9296875	0	241902	responseSmallH	correct	n/a	0.45703	no	n/a	n/a
945.9960938	0	242175	largeHSmallH	correct	congruent	0.46484	no	H	H
946.4609375	0	242294	responseSmallH	correct	n/a	0.46484	no	n/a	n/a
947.5390625	0	242570	largeHSmallT	correct	incongruent	0.50391	no	H	T
948.0429688	0	242699	responseSmallT	correct	n/a	0.50391	no	n/a	n/a
949.1132812	0	242973	largeTSmallH	correct	incongruent	0.44922	no	T	H
949.5625	0	243088	responseSmallH	correct	n/a	0.44922	no	n/a	n/a
950.6210938	0	243359	largeHSmallH	correct	congruent	0.47656	no	H	H
951.0976562	0	243481	responseSmallH	correct	n/a	0.47656	no	n/a	n/a
952.1679688	0	243755	largeHSmallT	correct	incongruent	0.47266	no	H	T
952.640625	0	243876	responseSmallT	correct	n/a	0.47266	no	n/a	n/a
953.7148438	0	244151	largeHSmallH	correct	congruent	0.64062	no	H	H
954.3554688	0	244315	responseSmallH	correct	n/a	0.64062	no	n/a	n/a
955.421875	0	244588	largeTSmallT	correct	congruent	0.45703	no	T	T
955.8789062	0	244705	responseSmallT	correct	n/a	0.45703	no	n/a	n/a
956.9414062	0	244977	largeHSmallT	correct	incongruent	0.57812	no	H	T
957.5195312	0	245125	responseSmallT	correct	n/a	0.57812	no	n/a	n/a
958.59375	0	245400	largeTSmallH	correct	incongruent	0.42188	no	T	H
959.015625	0	245508	responseSmallH	correct	n/a	0.42188	no	n/a	n/a
960.0742188	0	245779	largeHSmallT	correct	incongruent	0.83984	no	H	T
960.9140625	0	245994	responseSmallT	correct	n/a	0.83984	no	n/a	n/a
961.9804688	0	246267	largeHSmallT	correct	incongruent	0.49609	no	H	T
962.4765625	0	246394	responseSmallT	correct	n/a	0.49609	no	n/a	n/a
963.5390625	0	246666	largeHSmallH	correct	congruent	0.38672	no	H	H
963.9257812	0	246765	responseSmallH	correct	n/a	0.38672	no	n/a	n/a
964.9921875	0	247038	largeTSmallT	correct	congruent	0.46875	no	T	T
965.4609375	0	247158	responseSmallT	correct	n/a	0.46875	no	n/a	n/a
966.5390625	0	247434	largeHSmallT	correct	incongruent	0.46094	no	H	T
967	0	247552	responseSmallT	correct	n/a	0.46094	no	n/a	n/a
968.0585938	0	247823	largeTSmallH	correct	incongruent	0.42188	no	T	H
968.4804688	0	247931	responseSmallH	correct	n/a	0.42188	no	n/a	n/a
969.5390625	0	248202	largeTSmallH	correct	incongruent	0.38281	no	T	H
969.921875	0	248300	responseSmallH	correct	n/a	0.38281	no	n/a	n/a
970.9921875	0	248574	largeHSmallT	correct	incongruent	0.46484	no	H	T
971.4570312	0	248693	responseSmallT	correct	n/a	0.46484	no	n/a	n/a
972.5273438	0	248967	largeHSmallH	correct	congruent	0.42969	no	H	H
972.9570312	0	249077	responseSmallH	correct	n/a	0.42969	no	n/a	n/a
974.0195312	0	249349	largeTSmallH	correct	incongruent	0.64453	no	T	H
974.6640625	0	249514	responseSmallH	correct	n/a	0.64453	no	n/a	n/a
975.7265625	0	249786	largeTSmallH	correct	incongruent	0.52344	no	T	H
976.25	0	249920	responseSmallH	correct	n/a	0.52344	no	n/a	n/a
977.3125	0	250192	largeTSmallH	correct	incongruent	0.42578	no	T	H
977.7382812	0	250301	responseSmallH	correct	n/a	0.42578	no	n/a	n/a
978.7929688	0	250571	largeHSmallT	correct	incongruent	0.44922	no	H	T
979.2421875	0	250686	responseSmallT	correct	n/a	0.44922	no	n/a	n/a
980.3125	0	250960	largeTSmallH	correct	incongruent	0.47266	no	T	H
980.7851562	0	251081	responseSmallH	correct	n/a	0.47266	no	n/a	n/a
981.859375	0	251356	largeHSmallH	correct	congruent	0.46094	no	H	H
982.3203125	0	251474	responseSmallH	correct	n/a	0.46094	no	n/a	n/a
983.3789062	0	251745	largeTSmallT	correct	congruent	0.5	no	T	T
983.8789062	0	251873	responseSmallT	correct	n/a	0.5	no	n/a	n/a
984.9414062	0	252145	largeTSmallH	correct	incongruent	0.5	no	T	H
985.4414062	0	252273	responseSmallH	correct	n/a	0.5	no	n/a	n/a
986.5	0	252544	largeTSmallT	correct	congruent	0.49219	no	T	T
986.9921875	0	252670	responseSmallT	correct	n/a	0.49219	no	n/a	n/a
988.0585938	0	252943	largeHSmallT	correct	incongruent	0.51953	no	H	T
988.578125	0	253076	responseSmallT	correct	n/a	0.51953	no	n/a	n/a
989.6328125	0	253346	largeTSmallT	correct	congruent	0.50391	no	T	T
990.1367188	0	253475	responseSmallT	correct	n/a	0.50391	no	n/a	n/a
991.2070312	0	253749	largeTSmallT	correct	congruent	0.54297	no	T	T
991.75	0	253888	responseSmallT	correct	n/a	0.54297	no	n/a	n/a
992.8203125	0	254162	largeTSmallT	correct	congruent	0.44531	no	T	T
993.265625	0	254276	responseSmallT	correct	n/a	0.44531	no	n/a	n/a
994.3398438	0	254551	largeHSmallT	correct	incongruent	0.51562	no	H	T
994.8554688	0	254683	responseSmallT	correct	n/a	0.51562	no	n/a	n/a
995.9257812	0	254957	largeHSmallT	correct	incongruent	0.40234	no	H	T
996.328125	0	255060	responseSmallT	correct	n/a	0.40234	no	n/a	n/a
997.3945312	0	255333	largeTSmallT	correct	congruent	0.91797	no	T	T
998.3125	0	255568	responseSmallT	correct	n/a	0.91797	no	n/a	n/a
999.3671875	0	255838	largeHSmallH	correct	congruent	0.50391	no	H	H
999.8710938	0	255967	responseSmallH	correct	n/a	0.50391	no	n/a	n/a
1000.925781	0	256237	largeHSmallH	correct	congruent	0.5	no	H	H
1001.425781	0	256365	responseSmallH	correct	n/a	0.5	no	n/a	n/a
1002.5	0	256640	largeTSmallH	correct	incongruent	0.59375	no	T	H
1003.09375	0	256792	responseSmallH	correct	n/a	0.59375	no	n/a	n/a
1004.167969	0	257067	largeHSmallT	correct	incongruent	0.56641	no	H	T
1004.734375	0	257212	responseSmallT	correct	n/a	0.56641	no	n/a	n/a
1005.804688	0	257486	largeTSmallH	correct	incongruent	0.57031	no	T	H
1006.375	0	257632	responseSmallH	correct	n/a	0.57031	no	n/a	n/a
1007.445312	0	257906	largeHSmallT	correct	incongruent	0.49609	no	H	T
1007.941406	0	258033	responseSmallT	correct	n/a	0.49609	no	n/a	n/a
1009.019531	0	258309	largeHSmallH	correct	congruent	0.47266	no	H	H
1009.492188	0	258430	responseSmallH	correct	n/a	0.47266	no	n/a	n/a
1010.566406	0	258705	largeTSmallH	correct	incongruent	0.56641	no	T	H
1011.132812	0	258850	responseSmallH	correct	n/a	0.56641	no	n/a	n/a
1012.191406	0	259121	largeHSmallH	correct	congruent	0.50781	no	H	H
1012.699219	0	259251	responseSmallH	correct	n/a	0.50781	no	n/a	n/a
1013.78125	0	259528	largeHSmallT	correct	incongruent	0.40625	no	H	T
1014.1875	0	259632	responseSmallT	correct	n/a	0.40625	no	n/a	n/a
1015.257812	0	259906	largeHSmallH	correct	congruent	0.45703	no	H	H
1015.714844	0	260023	responseSmallH	correct	n/a	0.45703	no	n/a	n/a
1016.777344	0	260295	largeTSmallT	correct	congruent	0.48438	no	T	T
1017.261719	0	260419	responseSmallT	correct	n/a	0.48438	no	n/a	n/a
1018.324219	0	260691	largeTSmallH	correct	incongruent	0.46484	no	T	H
1018.789062	0	260810	responseSmallH	correct	n/a	0.46484	no	n/a	n/a
1019.859375	0	261084	largeTSmallT	correct	congruent	0.47656	no	T	T
1020.335938	0	261206	responseSmallT	correct	n/a	0.47656	no	n/a	n/a
1021.40625	0	261480	largeTSmallT	error	congruent	0.40625	no	T	T
1021.8125	0	261584	responseSmallH	error	n/a	0.40625	no	n/a	n/a
1022.886719	0	261859	largeTSmallT	correct	congruent	0.59766	no	T	T
1023.484375	0	262012	responseSmallT	correct	n/a	0.59766	no	n/a	n/a
1024.550781	0	262285	largeHSmallH	correct	congruent	0.46875	no	H	H
1025.019531	0	262405	responseSmallH	correct	n/a	0.46875	no	n/a	n/a
1026.085938	0	262678	largeTSmallT	correct	congruent	0.58594	no	T	T
1026.671875	0	262828	responseSmallT	correct	n/a	0.58594	no	n/a	n/a
1027.738281	0	263101	largeTSmallH	correct	incongruent	0.48828	no	T	H
1028.226562	0	263226	responseSmallH	correct	n/a	0.48828	no	n/a	n/a
1029.300781	0	263501	largeHSmallH	correct	congruent	0.50391	no	H	H
1029.804688	0	263630	responseSmallH	correct	n/a	0.50391	no	n/a	n/a
1030.871094	0	263903	largeHSmallT	correct	incongruent	0.47656	no	H	T
1031.347656	0	264025	responseSmallT	correct	n/a	0.47656	no	n/a	n/a
1032.417969	0	264299	largeHSmallT	correct	incongruent	0.51172	no	H	T
1032.929688	0	264430	responseSmallT	correct	n/a	0.51172	no	n/a	n/a
1033.992188	0	264702	largeHSmallT	correct	incongruent	0.64453	no	H	T
1034.636719	0	264867	responseSmallT	correct	n/a	0.64453	no	n/a	n/a
1035.710938	0	265142	largeTSmallT	correct	congruent	0.51953	no	T	T
1036.230469	0	265275	responseSmallT	correct	n/a	0.51953	no	n/a	n/a
1045.820312	0	267730	largeHSmallT	correct	incongruent	0.65625	no	H	T
1046.476562	0	267898	responseLargeH	correct	n/a	0.65625	no	n/a	n/a
1047.550781	0	268173	largeHSmallH	correct	congruent	0.49609	no	H	H
1048.046875	0	268300	responseLargeH	correct	n/a	0.49609	no	n/a	n/a
1049.113281	0	268573	largeHSmallH	correct	congruent	0.39844	no	H	H
1049.511719	0	268675	responseLargeH	correct	n/a	0.39844	no	n/a	n/a
1050.578125	0	268948	largeTSmallH	correct	incongruent	0.6875	no	T	H
1051.265625	0	269124	responseLargeT	correct	n/a	0.6875	no	n/a	n/a
1052.339844	0	269399	largeHSmallT	correct	incongruent	0.50391	no	H	T
1052.84375	0	269528	responseLargeH	correct	n/a	0.50391	no	n/a	n/a
1053.910156	0	269801	largeTSmallH	correct	incongruent	0.46875	no	T	H
1054.378906	0	269921	responseLargeT	correct	n/a	0.46875	no	n/a	n/a
1055.445312	0	270194	largeTSmallH	correct	incongruent	0.53516	no	T	H
1055.980469	0	270331	responseLargeT	correct	n/a	0.53516	no	n/a	n/a
1057.046875	0	270604	largeTSmallT	correct	congruent	0.42188	no	T	T
1057.46875	0	270712	responseLargeT	correct	n/a	0.42188	no	n/a	n/a
1058.523438	0	270982	largeHSmallH	correct	congruent	0.47656	no	H	H
1059	0	271104	responseLargeH	correct	n/a	0.47656	no	n/a	n/a
1060.070312	0	271378	largeTSmallT	correct	congruent	0.47656	no	T	T
1060.546875	0	271500	responseLargeT	correct	n/a	0.47656	no	n/a	n/a
1061.617188	0	271774	largeTSmallH	correct	incongruent	0.44141	no	T	H
1062.058594	0	271887	responseLargeT	correct	n/a	0.44141	no	n/a	n/a
1063.125	0	272160	largeHSmallT	correct	incongruent	0.48438	no	H	T
1063.609375	0	272284	responseLargeH	correct	n/a	0.48438	no	n/a	n/a
1064.671875	0	272556	largeTSmallH	correct	incongruent	0.5	no	T	H
1065.171875	0	272684	responseLargeT	correct	n/a	0.5	no	n/a	n/a
1066.230469	0	272955	largeTSmallT	correct	congruent	0.42578	no	T	T
1066.65625	0	273064	responseLargeT	correct	n/a	0.42578	no	n/a	n/a
1067.710938	0	273334	largeTSmallT	correct	congruent	0.42578	no	T	T
1068.136719	0	273443	responseLargeT	correct	n/a	0.42578	no	n/a	n/a
1069.203125	0	273716	largeTSmallH	correct	incongruent	0.49609	no	T	H
1069.699219	0	273843	responseLargeT	correct	n/a	0.49609	no	n/a	n/a
1070.777344	0	274119	largeHSmallT	correct	incongruent	0.51172	no	H	T
1071.289062	0	274250	responseLargeH	correct	n/a	0.51172	no	n/a	n/a
1072.351562	0	274522	largeTSmallH	correct	incongruent	0.44922	no	T	H
1072.800781	0	274637	responseLargeT	correct	n/a	0.44922	no	n/a	n/a
1073.859375	0	274908	largeHSmallH	correct	congruent	0.51172	no	H	H
1074.371094	0	275039	responseLargeH	correct	n/a	0.51172	no	n/a	n/a
1075.445312	0	275314	largeTSmallT	correct	congruent	0.4375	no	T	T
1075.882812	0	275426	responseLargeT	correct	n/a	0.4375	no	n/a	n/a
1076.953125	0	275700	largeTSmallH	correct	incongruent	0.46875	no	T	H
1077.421875	0	275820	responseLargeT	correct	n/a	0.46875	no	n/a	n/a
1078.484375	0	276092	largeHSmallT	correct	incongruent	0.55469	no	H	T
1079.039062	0	276234	responseLargeH	correct	n/a	0.55469	no	n/a	n/a
1080.097656	0	276505	largeTSmallT	correct	congruent	0.42969	no	T	T
1080.527344	0	276615	responseLargeT	correct	n/a	0.42969	no	n/a	n/a
1081.605469	0	276891	largeHSmallT	correct	incongruent	0.51953	no	H	T
1082.125	0	277024	responseLargeH	correct	n/a	0.51953	no	n/a	n/a
1083.191406	0	277297	largeTSmallT	correct	congruent	0.40625	no	T	T
1083.597656	0	277401	responseLargeT	correct	n/a	0.40625	no	n/a	n/a
1084.65625	0	277672	largeHSmallH	correct	congruent	0.39062	no	H	H
1085.046875	0	277772	responseLargeH	correct	n/a	0.39062	no	n/a	n/a
1086.109375	0	278044	largeHSmallT	correct	incongruent	0.48438	no	H	T
1086.59375	0	278168	responseLargeH	correct	n/a	0.48438	no	n/a	n/a
1087.65625	0	278440	largeTSmallH	correct	incongruent	0.47266	no	T	H
1088.128906	0	278561	responseLargeT	correct	n/a	0.47266	no	n/a	n/a
1089.203125	0	278836	largeHSmallT	correct	incongruent	0.45703	no	H	T
1089.660156	0	278953	responseLargeH	correct	n/a	0.45703	no	n/a	n/a
1090.722656	0	279225	largeHSmallH	correct	congruent	0.45703	no	H	H
1091.179688	0	279342	responseLargeH	correct	n/a	0.45703	no	n/a	n/a
1092.246094	0	279615	largeTSmallH	correct	incongruent	0.42969	no	T	H
1092.675781	0	279725	responseLargeT	correct	n/a	0.42969	no	n/a	n/a
1093.738281	0	279997	largeHSmallH	correct	congruent	0.46484	no	H	H
1094.203125	0	280116	responseLargeH	correct	n/a	0.46484	no	n/a	n/a
1095.269531	0	280389	largeHSmallH	correct	congruent	0.49219	no	H	H
1095.761719	0	280515	responseLargeH	correct	n/a	0.49219	no	n/a	n/a
1096.832031	0	280789	largeHSmallH	correct	congruent	0.42578	no	H	H
1097.257812	0	280898	responseLargeH	correct	n/a	0.42578	no	n/a	n/a
1098.324219	0	281171	largeHSmallT	correct	incongruent	0.46484	no	H	T
1098.789062	0	281290	responseLargeH	correct	n/a	0.46484	no	n/a	n/a
1099.859375	0	281564	largeTSmallT	correct	congruent	0.46484	no	T	T
1100.324219	0	281683	responseLargeT	correct	n/a	0.46484	no	n/a	n/a
1101.390625	0	281956	largeTSmallT	correct	congruent	0.47656	no	T	T
1101.867188	0	282078	responseLargeT	correct	n/a	0.47656	no	n/a	n/a
1102.9375	0	282352	largeHSmallT	correct	incongruent	0.48047	no	H	T
1103.417969	0	282475	responseLargeH	correct	n/a	0.48047	no	n/a	n/a
1104.484375	0	282748	largeHSmallH	correct	congruent	0.42188	no	H	H
1104.90625	0	282856	responseLargeH	correct	n/a	0.42188	no	n/a	n/a
1105.964844	0	283127	largeHSmallT	correct	incongruent	0.47266	no	H	T
1106.4375	0	283248	responseLargeH	correct	n/a	0.47266	no	n/a	n/a
1107.511719	0	283523	largeTSmallH	error	incongruent	0.65234	no	T	H
1108.164062	0	283690	responseLargeH	error	n/a	0.65234	no	n/a	n/a
1109.230469	0	283963	largeTSmallT	correct	congruent	0.68359	no	T	T
1109.914062	0	284138	responseLargeT	correct	n/a	0.68359	no	n/a	n/a
1110.976562	0	284410	largeHSmallH	correct	congruent	0.40625	no	H	H
1111.382812	0	284514	responseLargeH	correct	n/a	0.40625	no	n/a	n/a
1112.457031	0	284789	largeHSmallT	correct	incongruent	0.58984	no	H	T
1113.046875	0	284940	responseLargeH	correct	n/a	0.58984	no	n/a	n/a
1114.109375	0	285212	largeTSmallH	correct	incongruent	0.49219	no	T	H
1114.601562	0	285338	responseLargeT	correct	n/a	0.49219	no	n/a	n/a
1115.671875	0	285612	largeHSmallT	correct	incongruent	0.61719	no	H	T
1116.289062	0	285770	responseLargeH	correct	n/a	0.61719	no	n/a	n/a
1117.363281	0	286045	largeTSmallT	correct	congruent	0.44531	no	T	T
1117.808594	0	286159	responseLargeT	correct	n/a	0.44531	no	n/a	n/a
1118.871094	0	286431	largeHSmallT	correct	incongruent	0.46875	no	H	T
1119.339844	0	286551	responseLargeH	correct	n/a	0.46875	no	n/a	n/a
1120.417969	0	286827	largeHSmallT	correct	incongruent	0.49609	no	H	T
1120.914062	0	286954	responseLargeH	correct	n/a	0.49609	no	n/a	n/a
1121.976562	0	287226	largeHSmallT	correct	incongruent	0.42188	no	H	T
1122.398438	0	287334	responseLargeH	correct	n/a	0.42188	no	n/a	n/a
1123.46875	0	287608	largeTSmallH	correct	incongruent	0.45703	no	T	H
1123.925781	0	287725	responseLargeT	correct	n/a	0.45703	no	n/a	n/a
1124.992188	0	287998	largeHSmallT	correct	incongruent	0.47656	no	H	T
1125.46875	0	288120	responseLargeH	correct	n/a	0.47656	no	n/a	n/a
1126.535156	0	288393	largeTSmallT	correct	congruent	0.42578	no	T	T
1126.960938	0	288502	responseLargeT	correct	n/a	0.42578	no	n/a	n/a
1128.03125	0	288776	largeTSmallT	correct	congruent	0.53906	no	T	T
1128.570312	0	288914	responseLargeT	correct	n/a	0.53906	no	n/a	n/a
1129.628906	0	289185	largeTSmallH	correct	incongruent	0.60938	no	T	H
1130.238281	0	289341	responseLargeT	correct	n/a	0.60938	no	n/a	n/a
1131.308594	0	289615	largeHSmallT	correct	incongruent	0.53516	no	H	T
1131.84375	0	289752	responseLargeH	correct	n/a	0.53516	no	n/a	n/a
1132.910156	0	290025	largeHSmallT	correct	incongruent	0.57031	no	H	T
1133.480469	0	290171	responseLargeH	correct	n/a	0.57031	no	n/a	n/a
1134.550781	0	290445	largeTSmallH	correct	incongruent	0.52344	no	T	H
1135.074219	0	290579	responseLargeT	correct	n/a	0.52344	no	n/a	n/a
1136.136719	0	290851	largeHSmallH	correct	congruent	0.45312	no	H	H
1136.589844	0	290967	responseLargeH	correct	n/a	0.45312	no	n/a	n/a
1137.65625	0	291240	largeHSmallT	correct	incongruent	0.51172	no	H	T
1138.167969	0	291371	responseLargeH	correct	n/a	0.51172	no	n/a	n/a
1139.230469	0	291643	largeHSmallH	correct	congruent	0.48438	no	H	H
1139.714844	0	291767	responseLargeH	correct	n/a	0.48438	no	n/a	n/a
1140.789062	0	292042	largeTSmallT	correct	congruent	0.50391	no	T	T
1141.292969	0	292171	responseLargeT	correct	n/a	0.50391	no	n/a	n/a
1142.363281	0	292445	largeTSmallT	correct	congruent	0.46484	no	T	T
1142.828125	0	292564	responseLargeT	correct	n/a	0.46484	no	n/a	n/a
1143.894531	0	292837	largeTSmallH	correct	incongruent	0.45703	no	T	H
1144.351562	0	292954	responseLargeT	correct	n/a	0.45703	no	n/a	n/a
1145.414062	0	293226	largeHSmallH	correct	congruent	0.45703	no	H	H
1145.871094	0	293343	responseLargeH	correct	n/a	0.45703	no	n/a	n/a
1146.9375	0	293616	largeTSmallH	correct	incongruent	0.51953	no	T	H
1147.457031	0	293749	responseLargeT	correct	n/a	0.51953	no	n/a	n/a
1148.523438	0	294022	largeTSmallT	correct	congruent	0.55469	no	T	T
1149.078125	0	294164	responseLargeT	correct	n/a	0.55469	no	n/a	n/a
1150.148438	0	294438	largeTSmallH	correct	incongruent	0.58203	no	T	H
1150.730469	0	294587	responseLargeT	correct	n/a	0.58203	no	n/a	n/a
1151.804688	0	294862	largeTSmallT	correct	congruent	0.42188	no	T	T
1152.226562	0	294970	responseLargeT	correct	n/a	0.42188	no	n/a	n/a
1153.296875	0	295244	largeTSmallT	correct	congruent	0.38281	no	T	T
1153.679688	0	295342	responseLargeT	correct	n/a	0.38281	no	n/a	n/a
1154.75	0	295616	largeHSmallT	correct	incongruent	0.48047	no	H	T
1155.230469	0	295739	responseLargeH	correct	n/a	0.48047	no	n/a	n/a
1156.296875	0	296012	largeTSmallH	correct	incongruent	0.48438	no	T	H
1156.78125	0	296136	responseLargeT	correct	n/a	0.48438	no	n/a	n/a
1157.855469	0	296411	largeTSmallH	correct	incongruent	0.52734	no	T	H
1158.382812	0	296546	responseLargeT	correct	n/a	0.52734	no	n/a	n/a
1159.441406	0	296817	largeTSmallH	correct	incongruent	0.39844	no	T	H
1159.839844	0	296919	responseLargeT	correct	n/a	0.39844	no	n/a	n/a
1160.910156	0	297193	largeHSmallH	correct	congruent	0.4375	no	H	H
1161.347656	0	297305	responseLargeH	correct	n/a	0.4375	no	n/a	n/a
1162.402344	0	297575	largeTSmallT	correct	congruent	0.44922	no	T	T
1162.851562	0	297690	responseLargeT	correct	n/a	0.44922	no	n/a	n/a
1163.921875	0	297964	largeHSmallH	correct	congruent	0.46484	no	H	H
1164.386719	0	298083	responseLargeH	correct	n/a	0.46484	no	n/a	n/a
1165.457031	0	298357	largeHSmallH	correct	congruent	0.60938	no	H	H
1166.066406	0	298513	responseLargeH	correct	n/a	0.60938	no	n/a	n/a
1167.136719	0	298787	largeHSmallH	correct	congruent	0.38281	no	H	H
1167.519531	0	298885	responseLargeH	correct	n/a	0.38281	no	n/a	n/a
1168.589844	0	299159	largeTSmallH	correct	incongruent	0.46875	no	T	H
1169.058594	0	299279	responseLargeT	correct	n/a	0.46875	no	n/a	n/a
1170.136719	0	299555	largeHSmallT	correct	incongruent	0.50781	no	H	T
1170.644531	0	299685	responseLargeH	correct	n/a	0.50781	no	n/a	n/a
1171.710938	0	299958	largeHSmallH	correct	congruent	0.50391	no	H	H
1172.214844	0	300087	responseLargeH	correct	n/a	0.50391	no	n/a	n/a
1173.28125	0	300360	largeHSmallH	correct	congruent	0.39844	no	H	H
1173.679688	0	300462	responseLargeH	correct	n/a	0.39844	no	n/a	n/a
1174.75	0	300736	largeHSmallH	correct	congruent	0.44922	no	H	H
1175.199219	0	300851	responseLargeH	correct	n/a	0.44922	no	n/a	n/a
1176.257812	0	301122	largeHSmallT	correct	incongruent	0.49219	no	H	T
1176.75	0	301248	responseLargeH	correct	n/a	0.49219	no	n/a	n/a
1177.828125	0	301524	largeTSmallH	correct	incongruent	0.47656	no	T	H
1178.304688	0	301646	responseLargeT	correct	n/a	0.47656	no	n/a	n/a
1179.363281	0	301917	largeHSmallT	correct	incongruent	0.44531	no	H	T
1179.808594	0	302031	responseLargeH	correct	n/a	0.44531	no	n/a	n/a
1180.882812	0	302306	largeTSmallT	correct	congruent	0.56641	no	T	T
1181.449219	0	302451	responseLargeT	correct	n/a	0.56641	no	n/a	n/a
1182.523438	0	302726	largeTSmallH	correct	incongruent	0.58203	no	T	H
1183.105469	0	302875	responseLargeT	correct	n/a	0.58203	no	n/a	n/a
1184.175781	0	303149	largeHSmallH	correct	congruent	0.42969	no	H	H
1184.605469	0	303259	responseLargeH	correct	n/a	0.42969	no	n/a	n/a
1185.667969	0	303531	largeHSmallH	correct	congruent	0.44922	no	H	H
1186.117188	0	303646	responseLargeH	correct	n/a	0.44922	no	n/a	n/a
1187.1875	0	303920	largeHSmallH	correct	congruent	0.51562	no	H	H
1187.703125	0	304052	responseLargeH	correct	n/a	0.51562	no	n/a	n/a
1188.777344	0	304327	largeHSmallT	correct	incongruent	0.46875	no	H	T
1189.246094	0	304447	responseLargeH	correct	n/a	0.46875	no	n/a	n/a
1190.320312	0	304722	largeHSmallH	correct	congruent	0.53125	no	H	H
1190.851562	0	304858	responseLargeH	correct	n/a	0.53125	no	n/a	n/a
1191.921875	0	305132	largeTSmallT	correct	congruent	0.55469	no	T	T
1192.476562	0	305274	responseLargeT	correct	n/a	0.55469	no	n/a	n/a
1193.546875	0	305548	largeTSmallH	correct	incongruent	0.55859	no	T	H
1194.105469	0	305691	responseLargeT	correct	n/a	0.55859	no	n/a	n/a
1195.175781	0	305965	largeTSmallT	correct	congruent	0.5	no	T	T
1195.675781	0	306093	responseLargeT	correct	n/a	0.5	no	n/a	n/a
1196.75	0	306368	largeTSmallT	correct	congruent	0.37109	no	T	T
1197.121094	0	306463	responseLargeT	correct	n/a	0.37109	no	n/a	n/a
1198.175781	0	306733	largeTSmallT	correct	congruent	0.42969	no	T	T
1198.605469	0	306843	responseLargeT	correct	n/a	0.42969	no	n/a	n/a
1199.683594	0	307119	largeTSmallT	correct	congruent	0.35156	no	T	T
1200.035156	0	307209	responseLargeT	correct	n/a	0.35156	no	n/a	n/a
1202.800781	0	307917	largeTSmallH	correct	incongruent	0.65234	no	T	H
1203.453125	0	308084	responseSmallH	correct	n/a	0.65234	no	n/a	n/a
1204.507812	0	308354	largeTSmallT	correct	congruent	0.46484	no	T	T
1204.972656	0	308473	responseSmallT	correct	n/a	0.46484	no	n/a	n/a
1206.042969	0	308747	largeTSmallT	correct	congruent	0.48828	no	T	T
1206.53125	0	308872	responseSmallT	correct	n/a	0.48828	no	n/a	n/a
1207.601562	0	309146	largeHSmallT	correct	incongruent	0.64062	no	H	T
1208.242188	0	309310	responseSmallT	correct	n/a	0.64062	no	n/a	n/a
1209.308594	0	309583	largeHSmallH	correct	congruent	0.58594	no	H	H
1209.894531	0	309733	responseSmallH	correct	n/a	0.58594	no	n/a	n/a
1210.960938	0	310006	largeHSmallT	correct	incongruent	0.53516	no	H	T
1211.496094	0	310143	responseSmallT	correct	n/a	0.53516	no	n/a	n/a
1212.5625	0	310416	largeHSmallT	correct	incongruent	0.44531	no	H	T
1213.007812	0	310530	responseSmallT	correct	n/a	0.44531	no	n/a	n/a
1214.082031	0	310805	largeTSmallH	correct	incongruent	0.48047	no	T	H
1214.5625	0	310928	responseSmallH	correct	n/a	0.48047	no	n/a	n/a
1215.640625	0	311204	largeTSmallT	correct	congruent	0.46094	no	T	T
1216.101562	0	311322	responseSmallT	correct	n/a	0.46094	no	n/a	n/a
1217.160156	0	311593	largeTSmallT	correct	congruent	0.46094	no	T	T
1217.621094	0	311711	responseSmallT	correct	n/a	0.46094	no	n/a	n/a
1218.695312	0	311986	largeHSmallH	correct	congruent	0.46094	no	H	H
1219.15625	0	312104	responseSmallH	correct	n/a	0.46094	no	n/a	n/a
1220.226562	0	312378	largeHSmallT	correct	incongruent	0.44531	no	H	T
1220.671875	0	312492	responseSmallT	correct	n/a	0.44531	no	n/a	n/a
1221.734375	0	312764	largeHSmallT	correct	incongruent	0.52344	no	H	T
1222.257812	0	312898	responseSmallT	correct	n/a	0.52344	no	n/a	n/a
1223.335938	0	313174	largeTSmallT	correct	congruent	0.45312	no	T	T
1223.789062	0	313290	responseSmallT	correct	n/a	0.45312	no	n/a	n/a
1224.855469	0	313563	largeTSmallH	correct	incongruent	0.48438	no	T	H
1225.339844	0	313687	responseSmallH	correct	n/a	0.48438	no	n/a	n/a
1226.402344	0	313959	largeHSmallT	correct	incongruent	0.44141	no	H	T
1226.84375	0	314072	responseSmallT	correct	n/a	0.44141	no	n/a	n/a
1227.90625	0	314344	largeHSmallT	correct	incongruent	0.41797	no	H	T
1228.324219	0	314451	responseSmallT	correct	n/a	0.41797	no	n/a	n/a
1229.402344	0	314727	largeHSmallH	correct	congruent	0.48047	no	H	H
1229.882812	0	314850	responseSmallH	correct	n/a	0.48047	no	n/a	n/a
1230.960938	0	315126	largeTSmallT	correct	congruent	0.44531	no	T	T
1231.40625	0	315240	responseSmallT	correct	n/a	0.44531	no	n/a	n/a
1232.46875	0	315512	largeHSmallT	correct	incongruent	0.42969	no	H	T
1232.898438	0	315622	responseSmallT	correct	n/a	0.42969	no	n/a	n/a
1233.972656	0	315897	largeTSmallT	correct	congruent	0.41016	no	T	T
1234.382812	0	316002	responseSmallT	correct	n/a	0.41016	no	n/a	n/a
1235.453125	0	316276	largeTSmallH	error	incongruent	0.44531	no	T	H
1235.898438	0	316390	responseSmallT	error	n/a	0.44531	no	n/a	n/a
1236.960938	0	316662	largeHSmallH	correct	congruent	0.57812	no	H	H
1237.539062	0	316810	responseSmallH	correct	n/a	0.57812	no	n/a	n/a
1238.601562	0	317082	largeHSmallH	correct	congruent	0.42188	no	H	H
1239.023438	0	317190	responseSmallH	correct	n/a	0.42188	no	n/a	n/a
1240.082031	0	317461	largeHSmallH	correct	congruent	0.40234	no	H	H
1240.484375	0	317564	responseSmallH	correct	n/a	0.40234	no	n/a	n/a
1241.546875	0	317836	largeTSmallT	correct	congruent	0.45703	no	T	T
1242.003906	0	317953	responseSmallT	correct	n/a	0.45703	no	n/a	n/a
1243.082031	0	318229	largeTSmallH	correct	incongruent	0.49609	no	T	H
1243.578125	0	318356	responseSmallH	correct	n/a	0.49609	no	n/a	n/a
1244.640625	0	318628	largeHSmallH	correct	congruent	0.5	no	H	H
1245.140625	0	318756	responseSmallH	correct	n/a	0.5	no	n/a	n/a
1246.214844	0	319031	largeTSmallT	correct	congruent	0.44141	no	T	T
1246.65625	0	319144	responseSmallT	correct	n/a	0.44141	no	n/a	n/a
1247.722656	0	319417	largeHSmallT	correct	incongruent	0.43359	no	H	T
1248.15625	0	319528	responseSmallT	correct	n/a	0.43359	no	n/a	n/a
1249.226562	0	319802	largeHSmallH	correct	congruent	0.47266	no	H	H
1249.699219	0	319923	responseSmallH	correct	n/a	0.47266	no	n/a	n/a
1250.773438	0	320198	largeTSmallH	correct	incongruent	0.64062	no	T	H
1251.414062	0	320362	responseSmallH	correct	n/a	0.64062	no	n/a	n/a
