onset	duration	sample	value	response_type	congruence	response_time	response_out_of_range	largeletter	smallletter
22.24609375	n/a	5695	largeTSmallH	error	incongruent	1.2539	no	T	H
23.5	n/a	6016	responseLargeH	error	n/a	1.2539	no	n/a	n/a
24.578125	n/a	6292	largeTSmallH	correct	incongruent	1.2109	no	T	H
25.7890625	n/a	6602	responseLargeT	correct	n/a	1.2109	no	n/a	n/a
26.84375	n/a	6872	largeTSmallT	correct	congruent	0.77344	no	T	T
27.6171875	n/a	7070	responseLargeT	correct	n/a	0.77344	no	n/a	n/a
28.68359375	n/a	7343	largeHSmallH	correct	congruent	0.69531	no	H	H
29.37890625	n/a	7521	responseLargeH	correct	n/a	0.69531	no	n/a	n/a
30.45703125	n/a	7797	largeTSmallT	correct	congruent	0.60938	no	T	T
31.06640625	n/a	7953	responseLargeT	correct	n/a	0.60938	no	n/a	n/a
32.13671875	n/a	8227	largeTSmallT	correct	congruent	0.65625	no	T	T
32.79296875	n/a	8395	responseLargeT	correct	n/a	0.65625	no	n/a	n/a
33.859375	n/a	8668	largeHSmallH	correct	congruent	0.57031	no	H	H
34.4296875	n/a	8814	responseLargeH	correct	n/a	0.57031	no	n/a	n/a
35.49609375	n/a	9087	largeTSmallT	correct	congruent	0.55859	no	T	T
36.0546875	n/a	9230	responseLargeT	correct	n/a	0.55859	no	n/a	n/a
37.125	n/a	9504	largeTSmallH	correct	incongruent	0.58203	no	T	H
37.70703125	n/a	9653	responseLargeT	correct	n/a	0.58203	no	n/a	n/a
38.765625	n/a	9924	largeHSmallT	correct	incongruent	0.83203	no	H	T
39.59765625	n/a	10137	responseLargeH	correct	n/a	0.83203	no	n/a	n/a
40.671875	n/a	10412	largeHSmallH	correct	congruent	0.76562	no	H	H
41.4375	n/a	10608	responseLargeH	correct	n/a	0.76562	no	n/a	n/a
42.51171875	n/a	10883	largeHSmallH	correct	congruent	0.62109	no	H	H
43.1328125	n/a	11042	responseLargeH	correct	n/a	0.62109	no	n/a	n/a
44.203125	n/a	11316	largeHSmallH	correct	congruent	0.625	no	H	H
44.828125	n/a	11476	responseLargeH	correct	n/a	0.625	no	n/a	n/a
45.8984375	n/a	11750	largeHSmallH	correct	congruent	0.58984	no	H	H
46.48828125	n/a	11901	responseLargeH	correct	n/a	0.58984	no	n/a	n/a
47.55078125	n/a	12173	largeTSmallT	correct	congruent	0.71484	no	T	T
48.265625	n/a	12356	responseLargeT	correct	n/a	0.71484	no	n/a	n/a
49.32421875	n/a	12627	largeTSmallT	correct	congruent	0.75781	no	T	T
50.08203125	n/a	12821	responseLargeT	correct	n/a	0.75781	no	n/a	n/a
51.15234375	n/a	13095	largeHSmallT	correct	incongruent	0.68359	no	H	T
51.8359375	n/a	13270	responseLargeH	correct	n/a	0.68359	no	n/a	n/a
52.8984375	n/a	13542	largeTSmallT	correct	congruent	0.66406	no	T	T
53.5625	n/a	13712	responseLargeT	correct	n/a	0.66406	no	n/a	n/a
54.62890625	n/a	13985	largeHSmallT	correct	incongruent	0.72656	no	H	T
55.35546875	n/a	14171	responseLargeH	correct	n/a	0.72656	no	n/a	n/a
56.4296875	n/a	14446	largeHSmallT	correct	incongruent	0.71484	no	H	T
57.14453125	n/a	14629	responseLargeH	correct	n/a	0.71484	no	n/a	n/a
58.203125	n/a	14900	largeHSmallH	correct	congruent	0.78125	no	H	H
58.984375	n/a	15100	responseLargeH	correct	n/a	0.78125	no	n/a	n/a
60.04296875	n/a	15371	largeHSmallT	correct	incongruent	0.77734	no	H	T
60.8203125	n/a	15570	responseLargeH	correct	n/a	0.77734	no	n/a	n/a
61.8828125	n/a	15842	largeHSmallH	correct	congruent	0.55469	no	H	H
62.4375	n/a	15984	responseLargeH	correct	n/a	0.55469	no	n/a	n/a
63.51171875	n/a	16259	largeHSmallH	correct	congruent	0.80469	no	H	H
64.31640625	n/a	16465	responseLargeH	correct	n/a	0.80469	no	n/a	n/a
65.37890625	n/a	16737	largeHSmallH	correct	congruent	0.9375	no	H	H
66.31640625	n/a	16977	responseLargeH	correct	n/a	0.9375	no	n/a	n/a
67.375	n/a	17248	largeTSmallH	correct	incongruent	0.69531	no	T	H
68.0703125	n/a	17426	responseLargeT	correct	n/a	0.69531	no	n/a	n/a
69.13671875	n/a	17699	largeTSmallT	correct	congruent	0.63672	no	T	T
69.7734375	n/a	17862	responseLargeT	correct	n/a	0.63672	no	n/a	n/a
70.84375	n/a	18136	largeTSmallT	correct	congruent	0.58984	no	T	T
71.43359375	n/a	18287	responseLargeT	correct	n/a	0.58984	no	n/a	n/a
72.49609375	n/a	18559	largeHSmallT	correct	incongruent	0.55078	no	H	T
73.046875	n/a	18700	responseLargeH	correct	n/a	0.55078	no	n/a	n/a
74.109375	n/a	18972	largeTSmallH	correct	incongruent	0.46094	no	T	H
74.5703125	n/a	19090	responseLargeT	correct	n/a	0.46094	no	n/a	n/a
75.64453125	n/a	19365	largeHSmallH	correct	congruent	0.49219	no	H	H
76.13671875	n/a	19491	responseLargeH	correct	n/a	0.49219	no	n/a	n/a
77.203125	n/a	19764	largeTSmallT	correct	congruent	0.58203	no	T	T
77.78515625	n/a	19913	responseLargeT	correct	n/a	0.58203	no	n/a	n/a
78.84375	n/a	20184	largeTSmallH	correct	incongruent	0.67969	no	T	H
79.5234375	n/a	20358	responseLargeT	correct	n/a	0.67969	no	n/a	n/a
80.58984375	n/a	20631	largeTSmallH	correct	incongruent	0.75391	no	T	H
81.34375	n/a	20824	responseLargeT	correct	n/a	0.75391	no	n/a	n/a
82.41796875	n/a	21099	largeHSmallH	correct	congruent	0.66797	no	H	H
83.0859375	n/a	21270	responseLargeH	correct	n/a	0.66797	no	n/a	n/a
84.1484375	n/a	21542	largeTSmallT	correct	congruent	0.66016	no	T	T
84.80859375	n/a	21711	responseLargeT	correct	n/a	0.66016	no	n/a	n/a
85.8828125	n/a	21986	largeTSmallH	correct	incongruent	0.59375	no	T	H
86.4765625	n/a	22138	responseLargeT	correct	n/a	0.59375	no	n/a	n/a
87.55078125	n/a	22413	largeHSmallT	correct	incongruent	1.2148	no	H	T
88.765625	n/a	22724	responseLargeH	correct	n/a	1.2148	no	n/a	n/a
89.828125	n/a	22996	largeTSmallT	correct	congruent	1.4844	no	T	T
91.3125	n/a	23376	responseLargeT	correct	n/a	1.4844	no	n/a	n/a
92.390625	n/a	23652	largeHSmallH	correct	congruent	0.63281	no	H	H
93.0234375	n/a	23814	responseLargeH	correct	n/a	0.63281	no	n/a	n/a
94.08203125	n/a	24085	largeTSmallT	correct	congruent	0.66797	no	T	T
94.75	n/a	24256	responseLargeT	correct	n/a	0.66797	no	n/a	n/a
95.81640625	n/a	24529	largeTSmallT	correct	congruent	0.49219	no	T	T
96.30859375	n/a	24655	responseLargeT	correct	n/a	0.49219	no	n/a	n/a
97.375	n/a	24928	largeTSmallH	correct	incongruent	0.44922	no	T	H
97.82421875	n/a	25043	responseLargeT	correct	n/a	0.44922	no	n/a	n/a
98.89453125	n/a	25317	largeTSmallH	correct	incongruent	1.6211	yes	T	H
100.515625	n/a	25732	responseLargeT	correct	n/a	1.6211	yes	n/a	n/a
101.5898438	n/a	26007	largeTSmallT	correct	congruent	0.46094	no	T	T
102.0507812	n/a	26125	responseLargeT	correct	n/a	0.46094	no	n/a	n/a
103.1210938	n/a	26399	largeHSmallH	correct	congruent	0.53906	no	H	H
103.6601562	n/a	26537	responseLargeH	correct	n/a	0.53906	no	n/a	n/a
104.7226562	n/a	26809	largeTSmallH	correct	incongruent	0.42969	no	T	H
105.1523438	n/a	26919	responseLargeT	correct	n/a	0.42969	no	n/a	n/a
106.2148438	n/a	27191	largeHSmallH	correct	congruent	0.54297	no	H	H
106.7578125	n/a	27330	responseLargeH	correct	n/a	0.54297	no	n/a	n/a
107.828125	n/a	27604	largeHSmallH	correct	congruent	0.44922	no	H	H
108.2773438	n/a	27719	responseLargeH	correct	n/a	0.44922	no	n/a	n/a
109.3359375	n/a	27990	largeHSmallT	correct	incongruent	0.57812	no	H	T
109.9140625	n/a	28138	responseLargeH	correct	n/a	0.57812	no	n/a	n/a
110.9765625	n/a	28410	largeTSmallT	correct	congruent	0.45703	no	T	T
111.4335938	n/a	28527	responseLargeT	correct	n/a	0.45703	no	n/a	n/a
112.5078125	n/a	28802	largeTSmallT	correct	congruent	0.47266	no	T	T
112.9804688	n/a	28923	responseLargeT	correct	n/a	0.47266	no	n/a	n/a
114.0546875	n/a	29198	largeHSmallT	correct	incongruent	0.54688	no	H	T
114.6015625	n/a	29338	responseLargeH	correct	n/a	0.54688	no	n/a	n/a
115.65625	n/a	29608	largeTSmallT	correct	congruent	0.39453	no	T	T
116.0507812	n/a	29709	responseLargeT	correct	n/a	0.39453	no	n/a	n/a
117.109375	n/a	29980	largeHSmallH	correct	congruent	0.44531	no	H	H
117.5546875	n/a	30094	responseLargeH	correct	n/a	0.44531	no	n/a	n/a
118.6289062	n/a	30369	largeHSmallT	correct	incongruent	0.44531	no	H	T
119.0742188	n/a	30483	responseLargeH	correct	n/a	0.44531	no	n/a	n/a
120.1367188	n/a	30755	largeHSmallT	correct	incongruent	0.36719	no	H	T
120.5039062	n/a	30849	responseLargeH	correct	n/a	0.36719	no	n/a	n/a
121.5742188	n/a	31123	largeHSmallT	correct	incongruent	0.36328	no	H	T
121.9375	n/a	31216	responseLargeH	correct	n/a	0.36328	no	n/a	n/a
123.0039062	n/a	31489	largeTSmallH	correct	incongruent	0.44141	no	T	H
123.4453125	n/a	31602	responseLargeT	correct	n/a	0.44141	no	n/a	n/a
124.5234375	n/a	31878	largeHSmallH	correct	congruent	0.59375	no	H	H
125.1171875	n/a	32030	responseLargeH	correct	n/a	0.59375	no	n/a	n/a
126.1875	n/a	32304	largeTSmallT	correct	congruent	0.62109	no	T	T
126.8085938	n/a	32463	responseLargeT	correct	n/a	0.62109	no	n/a	n/a
127.8828125	n/a	32738	largeHSmallH	correct	congruent	0.72266	no	H	H
128.6054688	n/a	32923	responseLargeH	correct	n/a	0.72266	no	n/a	n/a
129.6679688	n/a	33195	largeHSmallT	correct	incongruent	0.55078	no	H	T
130.21875	n/a	33336	responseLargeH	correct	n/a	0.55078	no	n/a	n/a
131.296875	n/a	33612	largeHSmallT	correct	incongruent	0.56641	no	H	T
131.8632812	n/a	33757	responseLargeH	correct	n/a	0.56641	no	n/a	n/a
132.921875	n/a	34028	largeHSmallT	correct	incongruent	0.40625	no	H	T
133.328125	n/a	34132	responseLargeH	correct	n/a	0.40625	no	n/a	n/a
134.4023438	n/a	34407	largeTSmallH	correct	incongruent	0.45312	no	T	H
134.8554688	n/a	34523	responseLargeT	correct	n/a	0.45312	no	n/a	n/a
135.921875	n/a	34796	largeTSmallT	error	congruent	0.35156	no	T	T
136.2734375	n/a	34886	responseLargeH	error	n/a	0.35156	no	n/a	n/a
137.3476562	n/a	35161	largeHSmallH	correct	congruent	0.45703	no	H	H
137.8046875	n/a	35278	responseLargeH	correct	n/a	0.45703	no	n/a	n/a
138.8671875	n/a	35550	largeTSmallH	correct	incongruent	0.52734	no	T	H
139.3945312	n/a	35685	responseLargeT	correct	n/a	0.52734	no	n/a	n/a
140.46875	n/a	35960	largeHSmallH	correct	congruent	0.39062	no	H	H
140.859375	n/a	36060	responseLargeH	correct	n/a	0.39062	no	n/a	n/a
141.9335938	n/a	36335	largeHSmallH	correct	congruent	0.50391	no	H	H
142.4375	n/a	36464	responseLargeH	correct	n/a	0.50391	no	n/a	n/a
143.5078125	n/a	36738	largeHSmallH	correct	congruent	0.40625	no	H	H
143.9140625	n/a	36842	responseLargeH	correct	n/a	0.40625	no	n/a	n/a
144.9765625	n/a	37114	largeTSmallH	error	incongruent	0.36719	no	T	H
145.34375	n/a	37208	responseLargeH	error	n/a	0.36719	no	n/a	n/a
146.4140625	n/a	37482	largeTSmallT	correct	congruent	0.49609	no	T	T
146.9101562	n/a	37609	responseLargeT	correct	n/a	0.49609	no	n/a	n/a
147.9882812	n/a	37885	largeHSmallH	correct	congruent	0.55078	no	H	H
148.5390625	n/a	38026	responseLargeH	correct	n/a	0.55078	no	n/a	n/a
149.6015625	n/a	38298	largeHSmallT	correct	incongruent	0.45703	no	H	T
150.0585938	n/a	38415	responseLargeH	correct	n/a	0.45703	no	n/a	n/a
151.1210938	n/a	38687	largeHSmallT	correct	incongruent	0.40625	no	H	T
151.5273438	n/a	38791	responseLargeH	correct	n/a	0.40625	no	n/a	n/a
152.6015625	n/a	39066	largeHSmallH	correct	congruent	0.41797	no	H	H
153.0195312	n/a	39173	responseLargeH	correct	n/a	0.41797	no	n/a	n/a
154.0820312	n/a	39445	largeTSmallT	correct	congruent	0.52344	no	T	T
154.6054688	n/a	39579	responseLargeT	correct	n/a	0.52344	no	n/a	n/a
155.6796875	n/a	39854	largeHSmallH	correct	congruent	0.37109	no	H	H
156.0507812	n/a	39949	responseLargeH	correct	n/a	0.37109	no	n/a	n/a
157.1210938	n/a	40223	largeTSmallH	correct	incongruent	0.54297	no	T	H
157.6640625	n/a	40362	responseLargeT	correct	n/a	0.54297	no	n/a	n/a
158.734375	n/a	40636	largeTSmallT	correct	congruent	0.44141	no	T	T
159.1757812	n/a	40749	responseLargeT	correct	n/a	0.44141	no	n/a	n/a
160.2421875	n/a	41022	largeHSmallT	correct	incongruent	0.53125	no	H	T
160.7734375	n/a	41158	responseLargeH	correct	n/a	0.53125	no	n/a	n/a
161.8398438	n/a	41431	largeHSmallH	correct	congruent	0.5	no	H	H
162.3398438	n/a	41559	responseLargeH	correct	n/a	0.5	no	n/a	n/a
163.4140625	n/a	41834	largeTSmallH	correct	incongruent	0.54297	no	T	H
163.9570312	n/a	41973	responseLargeT	correct	n/a	0.54297	no	n/a	n/a
165.015625	n/a	42244	largeTSmallH	correct	incongruent	0.68359	no	T	H
165.6992188	n/a	42419	responseLargeT	correct	n/a	0.68359	no	n/a	n/a
166.7617188	n/a	42691	largeHSmallH	correct	congruent	0.41797	no	H	H
167.1796875	n/a	42798	responseLargeH	correct	n/a	0.41797	no	n/a	n/a
168.2421875	n/a	43070	largeTSmallH	correct	incongruent	0.40625	no	T	H
168.6484375	n/a	43174	responseLargeT	correct	n/a	0.40625	no	n/a	n/a
169.7070312	n/a	43445	largeHSmallH	correct	congruent	0.51953	no	H	H
170.2265625	n/a	43578	responseLargeH	correct	n/a	0.51953	no	n/a	n/a
171.2929688	n/a	43851	largeTSmallT	correct	congruent	0.57031	no	T	T
171.8632812	n/a	43997	responseLargeT	correct	n/a	0.57031	no	n/a	n/a
172.921875	n/a	44268	largeHSmallT	correct	incongruent	0.46094	no	H	T
173.3828125	n/a	44386	responseLargeH	correct	n/a	0.46094	no	n/a	n/a
174.453125	n/a	44660	largeHSmallH	correct	congruent	0.46094	no	H	H
174.9140625	n/a	44778	responseLargeH	correct	n/a	0.46094	no	n/a	n/a
175.9882812	n/a	45053	largeHSmallH	correct	congruent	0.45703	no	H	H
176.4453125	n/a	45170	responseLargeH	correct	n/a	0.45703	no	n/a	n/a
177.5078125	n/a	45442	largeHSmallT	correct	incongruent	0.40234	no	H	T
177.9101562	n/a	45545	responseLargeH	correct	n/a	0.40234	no	n/a	n/a
178.9882812	n/a	45821	largeTSmallH	correct	incongruent	0.51953	no	T	H
179.5078125	n/a	45954	responseLargeT	correct	n/a	0.51953	no	n/a	n/a
180.5742188	n/a	46227	largeHSmallT	correct	incongruent	0.39844	no	H	T
180.9726562	n/a	46329	responseLargeH	correct	n/a	0.39844	no	n/a	n/a
182.0429688	n/a	46603	largeHSmallH	correct	congruent	0.48047	no	H	H
182.5234375	n/a	46726	responseLargeH	correct	n/a	0.48047	no	n/a	n/a
183.5859375	n/a	46998	largeHSmallH	correct	congruent	0.53516	no	H	H
184.1210938	n/a	47135	responseLargeH	correct	n/a	0.53516	no	n/a	n/a
185.1875	n/a	47408	largeHSmallT	correct	incongruent	0.41016	no	H	T
185.5976562	n/a	47513	responseLargeH	correct	n/a	0.41016	no	n/a	n/a
186.6679688	n/a	47787	largeHSmallH	correct	congruent	0.70703	no	H	H
187.375	n/a	47968	responseLargeH	correct	n/a	0.70703	no	n/a	n/a
188.4257812	n/a	48237	largeHSmallH	correct	congruent	0.76562	no	H	H
189.1914062	n/a	48433	responseLargeH	correct	n/a	0.76562	no	n/a	n/a
190.2539062	n/a	48705	largeHSmallH	correct	congruent	0.42188	no	H	H
190.6757812	n/a	48813	responseLargeH	correct	n/a	0.42188	no	n/a	n/a
191.7460938	n/a	49087	largeHSmallT	correct	incongruent	0.38672	no	H	T
192.1328125	n/a	49186	responseLargeH	correct	n/a	0.38672	no	n/a	n/a
193.1875	n/a	49456	largeHSmallH	correct	congruent	0.42188	no	H	H
193.609375	n/a	49564	responseLargeH	correct	n/a	0.42188	no	n/a	n/a
194.6796875	n/a	49838	largeTSmallT	correct	congruent	0.48438	no	T	T
195.1640625	n/a	49962	responseLargeT	correct	n/a	0.48438	no	n/a	n/a
196.2421875	n/a	50238	largeHSmallT	correct	incongruent	0.38672	no	H	T
196.6289062	n/a	50337	responseLargeH	correct	n/a	0.38672	no	n/a	n/a
197.7070312	n/a	50613	largeHSmallH	correct	congruent	0.54297	no	H	H
198.25	n/a	50752	responseLargeH	correct	n/a	0.54297	no	n/a	n/a
199.3203125	n/a	51026	largeHSmallH	correct	congruent	0.51953	no	H	H
199.8398438	n/a	51159	responseLargeH	correct	n/a	0.51953	no	n/a	n/a
200.8945312	n/a	51429	largeHSmallT	error	incongruent	0.66016	no	H	T
201.5546875	n/a	51598	responseLargeT	error	n/a	0.66016	no	n/a	n/a
202.6132812	n/a	51869	largeTSmallH	correct	incongruent	0.79297	no	T	H
203.40625	n/a	52072	responseLargeT	correct	n/a	0.79297	no	n/a	n/a
204.46875	n/a	52344	largeHSmallT	correct	incongruent	0.63672	no	H	T
205.1054688	n/a	52507	responseLargeH	correct	n/a	0.63672	no	n/a	n/a
206.171875	n/a	52780	largeTSmallT	correct	congruent	0.53516	no	T	T
206.7070312	n/a	52917	responseLargeT	correct	n/a	0.53516	no	n/a	n/a
207.7734375	n/a	53190	largeHSmallT	correct	incongruent	0.41016	no	H	T
208.1835938	n/a	53295	responseLargeH	correct	n/a	0.41016	no	n/a	n/a
209.2421875	n/a	53566	largeTSmallT	correct	congruent	0.66016	no	T	T
209.9023438	n/a	53735	responseLargeT	correct	n/a	0.66016	no	n/a	n/a
210.9726562	n/a	54009	largeTSmallH	correct	incongruent	0.5	no	T	H
211.4726562	n/a	54137	responseLargeT	correct	n/a	0.5	no	n/a	n/a
212.5351562	n/a	54409	largeTSmallT	correct	congruent	0.52734	no	T	T
213.0625	n/a	54544	responseLargeT	correct	n/a	0.52734	no	n/a	n/a
214.1328125	n/a	54818	largeHSmallT	correct	incongruent	0.66016	no	H	T
214.7929688	n/a	54987	responseLargeH	correct	n/a	0.66016	no	n/a	n/a
215.8554688	n/a	55259	largeHSmallT	correct	incongruent	0.52734	no	H	T
216.3828125	n/a	55394	responseLargeH	correct	n/a	0.52734	no	n/a	n/a
217.453125	n/a	55668	largeTSmallH	correct	incongruent	0.44922	no	T	H
217.9023438	n/a	55783	responseLargeT	correct	n/a	0.44922	no	n/a	n/a
218.9609375	n/a	56054	largeHSmallH	correct	congruent	0.37891	no	H	H
219.3398438	n/a	56151	responseLargeH	correct	n/a	0.37891	no	n/a	n/a
220.4140625	n/a	56426	largeHSmallT	correct	incongruent	0.46484	no	H	T
220.8789062	n/a	56545	responseLargeH	correct	n/a	0.46484	no	n/a	n/a
221.9453125	n/a	56818	largeTSmallT	correct	congruent	0.47266	no	T	T
222.4179688	n/a	56939	responseLargeT	correct	n/a	0.47266	no	n/a	n/a
223.4921875	n/a	57214	largeHSmallH	correct	congruent	0.48438	no	H	H
223.9765625	n/a	57338	responseLargeH	correct	n/a	0.48438	no	n/a	n/a
225.0546875	n/a	57614	largeTSmallH	correct	incongruent	0.44141	no	T	H
225.4960938	n/a	57727	responseLargeT	correct	n/a	0.44141	no	n/a	n/a
226.5585938	n/a	57999	largeHSmallH	correct	congruent	0.35156	no	H	H
226.9101562	n/a	58089	responseLargeH	correct	n/a	0.35156	no	n/a	n/a
227.9882812	n/a	58365	largeTSmallH	correct	incongruent	0.44141	no	T	H
228.4296875	n/a	58478	responseLargeT	correct	n/a	0.44141	no	n/a	n/a
229.4921875	n/a	58750	largeHSmallT	correct	incongruent	0.33594	no	H	T
229.828125	n/a	58836	responseLargeH	correct	n/a	0.33594	no	n/a	n/a
230.8945312	n/a	59109	largeTSmallH	correct	incongruent	0.32812	no	T	H
231.2226562	n/a	59193	responseLargeT	correct	n/a	0.32812	no	n/a	n/a
232.28125	n/a	59464	largeTSmallH	correct	incongruent	0.54297	no	T	H
232.8242188	n/a	59603	responseLargeT	correct	n/a	0.54297	no	n/a	n/a
233.8945312	n/a	59877	largeTSmallH	correct	incongruent	0.44531	no	T	H
234.3398438	n/a	59991	responseLargeT	correct	n/a	0.44531	no	n/a	n/a
235.4140625	n/a	60266	largeHSmallT	correct	incongruent	0.44531	no	H	T
235.859375	n/a	60380	responseLargeH	correct	n/a	0.44531	no	n/a	n/a
236.9179688	n/a	60651	largeTSmallT	correct	congruent	0.66406	no	T	T
237.5820312	n/a	60821	responseLargeT	correct	n/a	0.66406	no	n/a	n/a
238.6523438	n/a	61095	largeTSmallH	correct	incongruent	0.5625	no	T	H
239.2148438	n/a	61239	responseLargeT	correct	n/a	0.5625	no	n/a	n/a
240.2929688	n/a	61515	largeTSmallT	correct	congruent	0.36719	no	T	T
240.6601562	n/a	61609	responseLargeT	correct	n/a	0.36719	no	n/a	n/a
241.71875	n/a	61880	largeTSmallH	correct	incongruent	0.4375	no	T	H
242.15625	n/a	61992	responseLargeT	correct	n/a	0.4375	no	n/a	n/a
243.2265625	n/a	62266	largeTSmallH	correct	incongruent	0.36328	no	T	H
243.5898438	n/a	62359	responseLargeT	correct	n/a	0.36328	no	n/a	n/a
244.6523438	n/a	62631	largeHSmallT	correct	incongruent	0.49609	no	H	T
245.1484375	n/a	62758	responseLargeH	correct	n/a	0.49609	no	n/a	n/a
246.2148438	n/a	63031	largeHSmallT	correct	incongruent	0.49609	no	H	T
246.7109375	n/a	63158	responseLargeH	correct	n/a	0.49609	no	n/a	n/a
247.7734375	n/a	63430	largeTSmallH	correct	incongruent	0.48047	no	T	H
248.2539062	n/a	63553	responseLargeT	correct	n/a	0.48047	no	n/a	n/a
249.3203125	n/a	63826	largeTSmallH	correct	incongruent	0.41016	no	T	H
249.7304688	n/a	63931	responseLargeT	correct	n/a	0.41016	no	n/a	n/a
250.8007812	n/a	64205	largeTSmallT	error	congruent	0.38281	no	T	T
251.1835938	n/a	64303	responseLargeH	error	n/a	0.38281	no	n/a	n/a
252.2539062	n/a	64577	largeTSmallT	correct	congruent	0.67969	no	T	T
252.9335938	n/a	64751	responseLargeT	correct	n/a	0.67969	no	n/a	n/a
254	n/a	65024	largeHSmallT	correct	incongruent	0.51953	no	H	T
254.5195312	n/a	65157	responseLargeH	correct	n/a	0.51953	no	n/a	n/a
255.5976562	n/a	65433	largeHSmallH	correct	congruent	0.57031	no	H	H
256.1679688	n/a	65579	responseLargeH	correct	n/a	0.57031	no	n/a	n/a
257.2265625	n/a	65850	largeHSmallT	correct	incongruent	0.53516	no	H	T
257.7617188	n/a	65987	responseLargeH	correct	n/a	0.53516	no	n/a	n/a
258.8242188	n/a	66259	largeTSmallH	correct	incongruent	0.56641	no	T	H
259.390625	n/a	66404	responseLargeT	correct	n/a	0.56641	no	n/a	n/a
260.4648438	n/a	66679	largeTSmallH	correct	incongruent	0.55469	no	T	H
261.0195312	n/a	66821	responseLargeT	correct	n/a	0.55469	no	n/a	n/a
262.078125	n/a	67092	largeHSmallT	correct	incongruent	0.57812	no	H	T
262.65625	n/a	67240	responseLargeH	correct	n/a	0.57812	no	n/a	n/a
263.71875	n/a	67512	largeTSmallT	correct	congruent	0.51562	no	T	T
264.234375	n/a	67644	responseLargeT	correct	n/a	0.51562	no	n/a	n/a
265.2929688	n/a	67915	largeTSmallH	correct	incongruent	0.53906	no	T	H
265.8320312	n/a	68053	responseLargeT	correct	n/a	0.53906	no	n/a	n/a
266.90625	n/a	68328	largeTSmallT	correct	congruent	0.44531	no	T	T
267.3515625	n/a	68442	responseLargeT	correct	n/a	0.44531	no	n/a	n/a
268.4140625	n/a	68714	largeTSmallT	correct	congruent	0.42188	no	T	T
268.8359375	n/a	68822	responseLargeT	correct	n/a	0.42188	no	n/a	n/a
269.8945312	n/a	69093	largeHSmallH	correct	congruent	0.67578	no	H	H
270.5703125	n/a	69266	responseLargeH	correct	n/a	0.67578	no	n/a	n/a
271.640625	n/a	69540	largeTSmallT	correct	congruent	0.48047	no	T	T
272.1210938	n/a	69663	responseLargeT	correct	n/a	0.48047	no	n/a	n/a
273.1875	n/a	69936	largeTSmallH	correct	incongruent	0.625	no	T	H
273.8125	n/a	70096	responseLargeT	correct	n/a	0.625	no	n/a	n/a
274.8789062	n/a	70369	largeTSmallT	correct	congruent	0.57031	no	T	T
275.4492188	n/a	70515	responseLargeT	correct	n/a	0.57031	no	n/a	n/a
276.5195312	n/a	70789	largeTSmallT	correct	congruent	0.59375	no	T	T
277.1132812	n/a	70941	responseLargeT	correct	n/a	0.59375	no	n/a	n/a
278.1875	n/a	71216	largeHSmallT	correct	incongruent	0.65625	no	H	T
278.84375	n/a	71384	responseLargeH	correct	n/a	0.65625	no	n/a	n/a
279.9179688	n/a	71659	largeTSmallH	correct	incongruent	0.60156	no	T	H
280.5195312	n/a	71813	responseLargeT	correct	n/a	0.60156	no	n/a	n/a
281.5859375	n/a	72086	largeHSmallT	correct	incongruent	0.58203	no	H	T
282.1679688	n/a	72235	responseLargeH	correct	n/a	0.58203	no	n/a	n/a
283.2382812	n/a	72509	largeTSmallH	correct	incongruent	0.52344	no	T	H
283.7617188	n/a	72643	responseLargeT	correct	n/a	0.52344	no	n/a	n/a
284.8242188	n/a	72915	largeHSmallT	correct	incongruent	0.48047	no	H	T
285.3046875	n/a	73038	responseLargeH	correct	n/a	0.48047	no	n/a	n/a
286.3710938	n/a	73311	largeTSmallH	correct	incongruent	0.48047	no	T	H
286.8515625	n/a	73434	responseLargeT	correct	n/a	0.48047	no	n/a	n/a
287.9179688	n/a	73707	largeHSmallT	correct	incongruent	0.63672	no	H	T
288.5546875	n/a	73870	responseLargeH	correct	n/a	0.63672	no	n/a	n/a
289.6132812	n/a	74141	largeTSmallH	correct	incongruent	0.50781	no	T	H
290.1210938	n/a	74271	responseLargeT	correct	n/a	0.50781	no	n/a	n/a
291.1992188	n/a	74547	largeTSmallT	correct	congruent	0.54688	no	T	T
291.7460938	n/a	74687	responseLargeT	correct	n/a	0.54688	no	n/a	n/a
292.8125	n/a	74960	largeHSmallT	correct	incongruent	0.44531	no	H	T
293.2578125	n/a	75074	responseLargeH	correct	n/a	0.44531	no	n/a	n/a
294.3320312	n/a	75349	largeTSmallH	correct	incongruent	0.76562	no	T	H
295.0976562	n/a	75545	responseLargeT	correct	n/a	0.76562	no	n/a	n/a
296.171875	n/a	75820	largeTSmallH	correct	incongruent	0.4375	no	T	H
296.609375	n/a	75932	responseLargeT	correct	n/a	0.4375	no	n/a	n/a
297.6796875	n/a	76206	largeTSmallH	correct	incongruent	0.39844	no	T	H
298.078125	n/a	76308	responseLargeT	correct	n/a	0.39844	no	n/a	n/a
299.1445312	n/a	76581	largeTSmallT	correct	congruent	0.37109	no	T	T
299.515625	n/a	76676	responseLargeT	correct	n/a	0.37109	no	n/a	n/a
300.5859375	n/a	76950	largeTSmallH	correct	incongruent	0.4375	no	T	H
301.0234375	n/a	77062	responseLargeT	correct	n/a	0.4375	no	n/a	n/a
302.1054688	n/a	77339	largeTSmallT	correct	congruent	0.34375	no	T	T
302.4492188	n/a	77427	responseLargeT	correct	n/a	0.34375	no	n/a	n/a
303.5195312	n/a	77701	largeTSmallT	correct	congruent	0.39844	no	T	T
303.9179688	n/a	77803	responseLargeT	correct	n/a	0.39844	no	n/a	n/a
304.984375	n/a	78076	largeHSmallT	correct	incongruent	0.37891	no	H	T
305.3632812	n/a	78173	responseLargeH	correct	n/a	0.37891	no	n/a	n/a
306.4375	n/a	78448	largeHSmallT	correct	incongruent	0.42969	no	H	T
306.8671875	n/a	78558	responseLargeH	correct	n/a	0.42969	no	n/a	n/a
307.9296875	n/a	78830	largeHSmallH	correct	congruent	0.45312	no	H	H
308.3828125	n/a	78946	responseLargeH	correct	n/a	0.45312	no	n/a	n/a
309.4375	n/a	79216	largeHSmallH	correct	congruent	0.38672	no	H	H
309.8242188	n/a	79315	responseLargeH	correct	n/a	0.38672	no	n/a	n/a
310.890625	n/a	79588	largeTSmallH	correct	incongruent	0.66797	no	T	H
311.5585938	n/a	79759	responseLargeT	correct	n/a	0.66797	no	n/a	n/a
312.625	n/a	80032	largeTSmallH	correct	incongruent	0.47656	no	T	H
313.1015625	n/a	80154	responseLargeT	correct	n/a	0.47656	no	n/a	n/a
314.171875	n/a	80428	largeHSmallT	correct	incongruent	0.42578	no	H	T
314.5976562	n/a	80537	responseLargeH	correct	n/a	0.42578	no	n/a	n/a
315.6640625	n/a	80810	largeTSmallT	correct	congruent	0.44141	no	T	T
316.1054688	n/a	80923	responseLargeT	correct	n/a	0.44141	no	n/a	n/a
317.171875	n/a	81196	largeHSmallT	correct	incongruent	0.37109	no	H	T
317.5429688	n/a	81291	responseLargeH	correct	n/a	0.37109	no	n/a	n/a
318.625	n/a	81568	largeHSmallH	correct	congruent	0.48438	no	H	H
319.109375	n/a	81692	responseLargeH	correct	n/a	0.48438	no	n/a	n/a
320.171875	n/a	81964	largeHSmallH	correct	congruent	0.43359	no	H	H
320.6054688	n/a	82075	responseLargeH	correct	n/a	0.43359	no	n/a	n/a
321.6796875	n/a	82350	largeTSmallT	correct	congruent	0.47656	no	T	T
322.15625	n/a	82472	responseLargeT	correct	n/a	0.47656	no	n/a	n/a
323.2109375	n/a	82742	largeTSmallT	correct	congruent	0.48047	no	T	T
323.6914062	n/a	82865	responseLargeT	correct	n/a	0.48047	no	n/a	n/a
324.7695312	n/a	83141	largeTSmallT	correct	congruent	0.55469	no	T	T
325.3242188	n/a	83283	responseLargeT	correct	n/a	0.55469	no	n/a	n/a
326.3828125	n/a	83554	largeHSmallT	correct	incongruent	0.45312	no	H	T
326.8359375	n/a	83670	responseLargeH	correct	n/a	0.45312	no	n/a	n/a
327.890625	n/a	83940	largeTSmallH	correct	incongruent	0.54688	no	T	H
328.4375	n/a	84080	responseLargeT	correct	n/a	0.54688	no	n/a	n/a
329.5039062	n/a	84353	largeHSmallH	correct	congruent	0.49219	no	H	H
329.9960938	n/a	84479	responseLargeH	correct	n/a	0.49219	no	n/a	n/a
331.0625	n/a	84752	largeHSmallT	correct	incongruent	0.48047	no	H	T
331.5429688	n/a	84875	responseLargeH	correct	n/a	0.48047	no	n/a	n/a
332.609375	n/a	85148	largeTSmallT	correct	congruent	0.44531	no	T	T
333.0546875	n/a	85262	responseLargeT	correct	n/a	0.44531	no	n/a	n/a
334.1171875	n/a	85534	largeHSmallT	correct	incongruent	0.79297	no	H	T
334.9101562	n/a	85737	responseLargeH	correct	n/a	0.79297	no	n/a	n/a
335.984375	n/a	86012	largeTSmallT	correct	congruent	0.55469	no	T	T
336.5390625	n/a	86154	responseLargeT	correct	n/a	0.55469	no	n/a	n/a
337.5976562	n/a	86425	largeTSmallH	correct	incongruent	0.76172	no	T	H
338.359375	n/a	86620	responseLargeT	correct	n/a	0.76172	no	n/a	n/a
339.4257812	n/a	86893	largeTSmallT	correct	congruent	0.47656	no	T	T
339.9023438	n/a	87015	responseLargeT	correct	n/a	0.47656	no	n/a	n/a
340.9726562	n/a	87289	largeTSmallH	correct	incongruent	0.36719	no	T	H
341.3398438	n/a	87383	responseLargeT	correct	n/a	0.36719	no	n/a	n/a
342.4101562	n/a	87657	largeHSmallT	correct	incongruent	0.48047	no	H	T
342.890625	n/a	87780	responseLargeH	correct	n/a	0.48047	no	n/a	n/a
343.9570312	n/a	88053	largeHSmallH	correct	congruent	0.57422	no	H	H
344.53125	n/a	88200	responseLargeH	correct	n/a	0.57422	no	n/a	n/a
351.8359375	n/a	90070	largeHSmallH	correct	congruent	2.1602	yes	H	H
353.9960938	n/a	90623	responseSmallH	correct	n/a	2.1602	yes	n/a	n/a
355.0625	n/a	90896	largeTSmallT	correct	congruent	0.85156	no	T	T
355.9140625	n/a	91114	responseSmallT	correct	n/a	0.85156	no	n/a	n/a
356.984375	n/a	91388	largeTSmallT	correct	congruent	0.55078	no	T	T
357.5351562	n/a	91529	responseSmallT	correct	n/a	0.55078	no	n/a	n/a
358.5976562	n/a	91801	largeTSmallT	correct	congruent	0.40625	no	T	T
359.0039062	n/a	91905	responseSmallT	correct	n/a	0.40625	no	n/a	n/a
360.0625	n/a	92176	largeHSmallH	correct	congruent	0.57031	no	H	H
360.6328125	n/a	92322	responseSmallH	correct	n/a	0.57031	no	n/a	n/a
361.703125	n/a	92596	largeTSmallT	correct	congruent	0.37891	no	T	T
362.0820312	n/a	92693	responseSmallT	correct	n/a	0.37891	no	n/a	n/a
363.15625	n/a	92968	largeHSmallH	correct	congruent	0.67578	no	H	H
363.8320312	n/a	93141	responseSmallH	correct	n/a	0.67578	no	n/a	n/a
364.9023438	n/a	93415	largeTSmallT	correct	congruent	0.44531	no	T	T
365.3476562	n/a	93529	responseSmallT	correct	n/a	0.44531	no	n/a	n/a
366.4101562	n/a	93801	largeHSmallH	correct	congruent	0.46875	no	H	H
366.8789062	n/a	93921	responseSmallH	correct	n/a	0.46875	no	n/a	n/a
367.9453125	n/a	94194	largeTSmallT	error	congruent	0.46875	no	T	T
368.4140625	n/a	94314	responseSmallH	error	n/a	0.46875	no	n/a	n/a
369.4765625	n/a	94586	largeTSmallH	correct	incongruent	0.80078	no	T	H
370.2773438	n/a	94791	responseSmallH	correct	n/a	0.80078	no	n/a	n/a
371.34375	n/a	95064	largeHSmallT	correct	incongruent	0.48828	no	H	T
371.8320312	n/a	95189	responseSmallT	correct	n/a	0.48828	no	n/a	n/a
372.9023438	n/a	95463	largeHSmallH	correct	congruent	0.53125	no	H	H
373.4335938	n/a	95599	responseSmallH	correct	n/a	0.53125	no	n/a	n/a
374.5039062	n/a	95873	largeTSmallH	correct	incongruent	0.80469	no	T	H
375.3085938	n/a	96079	responseSmallH	correct	n/a	0.80469	no	n/a	n/a
376.3710938	n/a	96351	largeTSmallT	correct	congruent	0.625	no	T	T
376.9960938	n/a	96511	responseSmallT	correct	n/a	0.625	no	n/a	n/a
378.0625	n/a	96784	largeTSmallT	correct	congruent	1.0469	no	T	T
379.109375	n/a	97052	responseSmallT	correct	n/a	1.0469	no	n/a	n/a
380.1679688	n/a	97323	largeHSmallH	correct	congruent	1.4414	no	H	H
381.609375	n/a	97692	responseSmallH	correct	n/a	1.4414	no	n/a	n/a
382.6757812	n/a	97965	largeHSmallT	correct	incongruent	0.85938	no	H	T
383.5351562	n/a	98185	responseSmallT	correct	n/a	0.85938	no	n/a	n/a
384.609375	n/a	98460	largeTSmallT	correct	congruent	0.62891	no	T	T
385.2382812	n/a	98621	responseSmallT	correct	n/a	0.62891	no	n/a	n/a
386.3046875	n/a	98894	largeTSmallH	correct	incongruent	0.50391	no	T	H
386.8085938	n/a	99023	responseSmallH	correct	n/a	0.50391	no	n/a	n/a
387.875	n/a	99296	largeHSmallT	correct	incongruent	0.58203	no	H	T
388.4570312	n/a	99445	responseSmallT	correct	n/a	0.58203	no	n/a	n/a
389.515625	n/a	99716	largeHSmallH	correct	congruent	0.4375	no	H	H
389.953125	n/a	99828	responseSmallH	correct	n/a	0.4375	no	n/a	n/a
391.0234375	n/a	100102	largeTSmallH	error	incongruent	0.46094	no	T	H
391.484375	n/a	100220	responseSmallT	error	n/a	0.46094	no	n/a	n/a
392.5429688	n/a	100491	largeHSmallT	correct	incongruent	0.62891	no	H	T
393.171875	n/a	100652	responseSmallT	correct	n/a	0.62891	no	n/a	n/a
394.25	n/a	100928	largeTSmallT	correct	congruent	0.50781	no	T	T
394.7578125	n/a	101058	responseSmallT	correct	n/a	0.50781	no	n/a	n/a
395.8242188	n/a	101331	largeHSmallH	correct	congruent	0.4375	no	H	H
396.2617188	n/a	101443	responseSmallH	correct	n/a	0.4375	no	n/a	n/a
397.328125	n/a	101716	largeHSmallT	correct	incongruent	0.53906	no	H	T
397.8671875	n/a	101854	responseSmallT	correct	n/a	0.53906	no	n/a	n/a
398.9414062	n/a	102129	largeHSmallH	correct	congruent	0.44531	no	H	H
399.3867188	n/a	102243	responseSmallH	correct	n/a	0.44531	no	n/a	n/a
400.4609375	n/a	102518	largeTSmallT	correct	congruent	0.66016	no	T	T
401.1210938	n/a	102687	responseSmallT	correct	n/a	0.66016	no	n/a	n/a
402.1835938	n/a	102959	largeHSmallT	correct	incongruent	0.56641	no	H	T
402.75	n/a	103104	responseSmallT	correct	n/a	0.56641	no	n/a	n/a
403.8242188	n/a	103379	largeTSmallT	correct	congruent	0.45703	no	T	T
404.28125	n/a	103496	responseSmallT	correct	n/a	0.45703	no	n/a	n/a
405.3554688	n/a	103771	largeTSmallH	correct	incongruent	0.52734	no	T	H
405.8828125	n/a	103906	responseSmallH	correct	n/a	0.52734	no	n/a	n/a
406.9414062	n/a	104177	largeTSmallT	correct	congruent	0.65234	no	T	T
407.59375	n/a	104344	responseSmallT	correct	n/a	0.65234	no	n/a	n/a
408.6640625	n/a	104618	largeTSmallH	correct	incongruent	0.42969	no	T	H
409.09375	n/a	104728	responseSmallH	correct	n/a	0.42969	no	n/a	n/a
410.15625	n/a	105000	largeHSmallT	correct	incongruent	0.42188	no	H	T
410.578125	n/a	105108	responseSmallT	correct	n/a	0.42188	no	n/a	n/a
411.6367188	n/a	105379	largeTSmallT	correct	congruent	0.46875	no	T	T
412.1054688	n/a	105499	responseSmallT	correct	n/a	0.46875	no	n/a	n/a
413.1679688	n/a	105771	largeHSmallH	correct	congruent	0.46094	no	H	H
413.6289062	n/a	105889	responseSmallH	correct	n/a	0.46094	no	n/a	n/a
414.703125	n/a	106164	largeHSmallH	correct	congruent	0.59375	no	H	H
415.296875	n/a	106316	responseSmallH	correct	n/a	0.59375	no	n/a	n/a
416.3671875	n/a	106590	largeTSmallT	correct	congruent	0.41406	no	T	T
416.78125	n/a	106696	responseSmallT	correct	n/a	0.41406	no	n/a	n/a
417.8476562	n/a	106969	largeTSmallT	correct	congruent	0.51953	no	T	T
418.3671875	n/a	107102	responseSmallT	correct	n/a	0.51953	no	n/a	n/a
419.4375	n/a	107376	largeTSmallT	correct	congruent	0.74609	no	T	T
420.1835938	n/a	107567	responseSmallT	correct	n/a	0.74609	no	n/a	n/a
421.25	n/a	107840	largeHSmallH	correct	congruent	0.47656	no	H	H
421.7265625	n/a	107962	responseSmallH	correct	n/a	0.47656	no	n/a	n/a
422.796875	n/a	108236	largeHSmallT	correct	incongruent	0.43359	no	H	T
423.2304688	n/a	108347	responseSmallT	correct	n/a	0.43359	no	n/a	n/a
424.2890625	n/a	108618	largeTSmallH	correct	incongruent	0.48438	no	T	H
424.7734375	n/a	108742	responseSmallH	correct	n/a	0.48438	no	n/a	n/a
425.8359375	n/a	109014	largeHSmallT	correct	incongruent	0.50781	no	H	T
426.34375	n/a	109144	responseSmallT	correct	n/a	0.50781	no	n/a	n/a
427.4101562	n/a	109417	largeHSmallT	correct	incongruent	0.51172	no	H	T
427.921875	n/a	109548	responseSmallT	correct	n/a	0.51172	no	n/a	n/a
428.9804688	n/a	109819	largeHSmallT	correct	incongruent	0.47266	no	H	T
429.453125	n/a	109940	responseSmallT	correct	n/a	0.47266	no	n/a	n/a
430.515625	n/a	110212	largeTSmallT	correct	congruent	0.44531	no	T	T
430.9609375	n/a	110326	responseSmallT	correct	n/a	0.44531	no	n/a	n/a
432.0351562	n/a	110601	largeTSmallT	correct	congruent	0.41016	no	T	T
432.4453125	n/a	110706	responseSmallT	correct	n/a	0.41016	no	n/a	n/a
433.515625	n/a	110980	largeHSmallT	correct	incongruent	0.44531	no	H	T
433.9609375	n/a	111094	responseSmallT	correct	n/a	0.44531	no	n/a	n/a
435.0234375	n/a	111366	largeHSmallT	correct	incongruent	0.41016	no	H	T
435.4335938	n/a	111471	responseSmallT	correct	n/a	0.41016	no	n/a	n/a
436.5	n/a	111744	largeHSmallH	correct	congruent	0.41016	no	H	H
436.9101562	n/a	111849	responseSmallH	correct	n/a	0.41016	no	n/a	n/a
437.96875	n/a	112120	largeTSmallH	correct	incongruent	0.40625	no	T	H
438.375	n/a	112224	responseSmallH	correct	n/a	0.40625	no	n/a	n/a
439.4335938	n/a	112495	largeHSmallH	correct	congruent	0.55859	no	H	H
439.9921875	n/a	112638	responseSmallH	correct	n/a	0.55859	no	n/a	n/a
441.0625	n/a	112912	largeHSmallT	correct	incongruent	0.51953	no	H	T
441.5820312	n/a	113045	responseSmallT	correct	n/a	0.51953	no	n/a	n/a
442.6484375	n/a	113318	largeTSmallH	correct	incongruent	0.54297	no	T	H
443.1914062	n/a	113457	responseSmallH	correct	n/a	0.54297	no	n/a	n/a
444.2617188	n/a	113731	largeHSmallH	correct	congruent	0.60156	no	H	H
444.8632812	n/a	113885	responseSmallH	correct	n/a	0.60156	no	n/a	n/a
445.9296875	n/a	114158	largeTSmallH	correct	incongruent	0.36328	no	T	H
446.2929688	n/a	114251	responseSmallH	correct	n/a	0.36328	no	n/a	n/a
447.3671875	n/a	114526	largeTSmallH	correct	incongruent	0.45703	no	T	H
447.8242188	n/a	114643	responseSmallH	correct	n/a	0.45703	no	n/a	n/a
448.8867188	n/a	114915	largeHSmallH	correct	congruent	0.39844	no	H	H
449.2851562	n/a	115017	responseSmallH	correct	n/a	0.39844	no	n/a	n/a
450.3554688	n/a	115291	largeTSmallT	error	congruent	0.46094	no	T	T
450.8164062	n/a	115409	responseSmallH	error	n/a	0.46094	no	n/a	n/a
451.8867188	n/a	115683	largeHSmallT	correct	incongruent	0.55859	no	H	T
452.4453125	n/a	115826	responseSmallT	correct	n/a	0.55859	no	n/a	n/a
453.515625	n/a	116100	largeTSmallH	correct	incongruent	0.47656	no	T	H
453.9921875	n/a	116222	responseSmallH	correct	n/a	0.47656	no	n/a	n/a
455.046875	n/a	116492	largeHSmallT	correct	incongruent	0.53906	no	H	T
455.5859375	n/a	116630	responseSmallT	correct	n/a	0.53906	no	n/a	n/a
456.6601562	n/a	116905	largeHSmallH	correct	congruent	0.48828	no	H	H
457.1484375	n/a	117030	responseSmallH	correct	n/a	0.48828	no	n/a	n/a
458.2226562	n/a	117305	largeTSmallH	correct	incongruent	0.56641	no	T	H
458.7890625	n/a	117450	responseSmallH	correct	n/a	0.56641	no	n/a	n/a
459.8632812	n/a	117725	largeHSmallT	correct	incongruent	0.45312	no	H	T
460.3164062	n/a	117841	responseSmallT	correct	n/a	0.45312	no	n/a	n/a
461.3945312	n/a	118117	largeHSmallT	correct	incongruent	0.48828	no	H	T
461.8828125	n/a	118242	responseSmallT	correct	n/a	0.48828	no	n/a	n/a
462.9414062	n/a	118513	largeTSmallH	correct	incongruent	0.46484	no	T	H
463.40625	n/a	118632	responseSmallH	correct	n/a	0.46484	no	n/a	n/a
464.4765625	n/a	118906	largeHSmallH	correct	congruent	0.44531	no	H	H
464.921875	n/a	119020	responseSmallH	correct	n/a	0.44531	no	n/a	n/a
465.9960938	n/a	119295	largeHSmallH	correct	congruent	0.48047	no	H	H
466.4765625	n/a	119418	responseSmallH	correct	n/a	0.48047	no	n/a	n/a
467.5546875	n/a	119694	largeTSmallH	correct	incongruent	0.41406	no	T	H
467.96875	n/a	119800	responseSmallH	correct	n/a	0.41406	no	n/a	n/a
469.0351562	n/a	120073	largeTSmallH	correct	incongruent	1.0156	no	T	H
470.0507812	n/a	120333	responseSmallH	correct	n/a	1.0156	no	n/a	n/a
471.1289062	n/a	120609	largeHSmallH	correct	congruent	0.48047	no	H	H
471.609375	n/a	120732	responseSmallH	correct	n/a	0.48047	no	n/a	n/a
472.6875	n/a	121008	largeHSmallH	correct	congruent	0.40234	no	H	H
473.0898438	n/a	121111	responseSmallH	correct	n/a	0.40234	no	n/a	n/a
474.140625	n/a	121380	largeHSmallH	correct	congruent	0.4375	no	H	H
474.578125	n/a	121492	responseSmallH	correct	n/a	0.4375	no	n/a	n/a
475.6484375	n/a	121766	largeTSmallH	correct	incongruent	0.38672	no	T	H
476.0351562	n/a	121865	responseSmallH	correct	n/a	0.38672	no	n/a	n/a
477.1015625	n/a	122138	largeHSmallH	correct	congruent	0.42188	no	H	H
477.5234375	n/a	122246	responseSmallH	correct	n/a	0.42188	no	n/a	n/a
478.59375	n/a	122520	largeTSmallT	error	congruent	0.41797	no	T	T
479.0117188	n/a	122627	responseSmallH	error	n/a	0.41797	no	n/a	n/a
480.0742188	n/a	122899	largeHSmallH	correct	congruent	0.47656	no	H	H
480.5507812	n/a	123021	responseSmallH	correct	n/a	0.47656	no	n/a	n/a
481.6210938	n/a	123295	largeTSmallT	correct	congruent	0.69531	no	T	T
482.3164062	n/a	123473	responseSmallT	correct	n/a	0.69531	no	n/a	n/a
483.3789062	n/a	123745	largeHSmallH	correct	congruent	0.58594	no	H	H
483.9648438	n/a	123895	responseSmallH	correct	n/a	0.58594	no	n/a	n/a
485.0351562	n/a	124169	largeTSmallT	correct	congruent	0.50391	no	T	T
485.5390625	n/a	124298	responseSmallT	correct	n/a	0.50391	no	n/a	n/a
486.59375	n/a	124568	largeHSmallT	correct	incongruent	0.53906	no	H	T
487.1328125	n/a	124706	responseSmallT	correct	n/a	0.53906	no	n/a	n/a
488.2070312	n/a	124981	largeTSmallT	correct	congruent	0.48828	no	T	T
488.6953125	n/a	125106	responseSmallT	correct	n/a	0.48828	no	n/a	n/a
489.765625	n/a	125380	largeHSmallH	correct	congruent	0.48047	no	H	H
490.2460938	n/a	125503	responseSmallH	correct	n/a	0.48047	no	n/a	n/a
491.3125	n/a	125776	largeTSmallT	correct	congruent	0.54297	no	T	T
491.8554688	n/a	125915	responseSmallT	correct	n/a	0.54297	no	n/a	n/a
492.9257812	n/a	126189	largeHSmallT	correct	incongruent	0.78125	no	H	T
493.7070312	n/a	126389	responseSmallT	correct	n/a	0.78125	no	n/a	n/a
494.78125	n/a	126664	largeHSmallT	correct	incongruent	0.84766	no	H	T
495.6289062	n/a	126881	responseSmallT	correct	n/a	0.84766	no	n/a	n/a
496.6875	n/a	127152	largeHSmallT	correct	incongruent	0.48438	no	H	T
497.171875	n/a	127276	responseSmallT	correct	n/a	0.48438	no	n/a	n/a
498.234375	n/a	127548	largeHSmallT	correct	incongruent	0.50781	no	H	T
498.7421875	n/a	127678	responseSmallT	correct	n/a	0.50781	no	n/a	n/a
499.8085938	n/a	127951	largeHSmallT	correct	incongruent	0.41406	no	H	T
500.2226562	n/a	128057	responseSmallT	correct	n/a	0.41406	no	n/a	n/a
501.2851562	n/a	128329	largeHSmallH	correct	congruent	0.54297	no	H	H
501.828125	n/a	128468	responseSmallH	correct	n/a	0.54297	no	n/a	n/a
502.9023438	n/a	128743	largeHSmallH	correct	congruent	0.45703	no	H	H
503.359375	n/a	128860	responseSmallH	correct	n/a	0.45703	no	n/a	n/a
504.4335938	n/a	129135	largeTSmallT	correct	congruent	0.59375	no	T	T
505.0273438	n/a	129287	responseSmallT	correct	n/a	0.59375	no	n/a	n/a
506.1015625	n/a	129562	largeHSmallT	correct	incongruent	0.57812	no	H	T
506.6796875	n/a	129710	responseSmallT	correct	n/a	0.57812	no	n/a	n/a
507.7539062	n/a	129985	largeTSmallH	correct	incongruent	0.58594	no	T	H
508.3398438	n/a	130135	responseSmallH	correct	n/a	0.58594	no	n/a	n/a
509.40625	n/a	130408	largeTSmallH	correct	incongruent	0.86719	no	T	H
510.2734375	n/a	130630	responseSmallH	correct	n/a	0.86719	no	n/a	n/a
511.3398438	n/a	130903	largeTSmallH	correct	incongruent	0.61719	no	T	H
511.9570312	n/a	131061	responseSmallH	correct	n/a	0.61719	no	n/a	n/a
513.0195312	n/a	131333	largeHSmallT	correct	incongruent	0.55469	no	H	T
513.5742188	n/a	131475	responseSmallT	correct	n/a	0.55469	no	n/a	n/a
514.6484375	n/a	131750	largeTSmallT	correct	congruent	0.48047	no	T	T
515.1289062	n/a	131873	responseSmallT	correct	n/a	0.48047	no	n/a	n/a
516.1953125	n/a	132146	largeHSmallT	correct	incongruent	0.52344	no	H	T
516.71875	n/a	132280	responseSmallT	correct	n/a	0.52344	no	n/a	n/a
517.78125	n/a	132552	largeHSmallT	correct	incongruent	0.41016	no	H	T
518.1914062	n/a	132657	responseSmallT	correct	n/a	0.41016	no	n/a	n/a
519.2734375	n/a	132934	largeTSmallT	correct	congruent	0.42578	no	T	T
519.6992188	n/a	133043	responseSmallT	correct	n/a	0.42578	no	n/a	n/a
520.765625	n/a	133316	largeHSmallT	correct	incongruent	0.48438	no	H	T
521.25	n/a	133440	responseSmallT	correct	n/a	0.48438	no	n/a	n/a
522.328125	n/a	133716	largeHSmallH	correct	congruent	0.46875	no	H	H
522.796875	n/a	133836	responseSmallH	correct	n/a	0.46875	no	n/a	n/a
523.875	n/a	134112	largeTSmallH	correct	incongruent	0.74219	no	T	H
524.6171875	n/a	134302	responseSmallH	correct	n/a	0.74219	no	n/a	n/a
525.671875	n/a	134572	largeHSmallH	correct	congruent	0.86328	no	H	H
526.5351562	n/a	134793	responseSmallH	correct	n/a	0.86328	no	n/a	n/a
527.6054688	n/a	135067	largeHSmallH	correct	congruent	0.44531	no	H	H
528.0507812	n/a	135181	responseSmallH	correct	n/a	0.44531	no	n/a	n/a
529.125	n/a	135456	largeHSmallT	correct	incongruent	0.52734	no	H	T
529.6523438	n/a	135591	responseSmallT	correct	n/a	0.52734	no	n/a	n/a
530.7148438	n/a	135863	largeTSmallT	correct	congruent	0.63672	no	T	T
531.3515625	n/a	136026	responseSmallT	correct	n/a	0.63672	no	n/a	n/a
532.421875	n/a	136300	largeTSmallH	correct	incongruent	0.52734	no	T	H
532.9492188	n/a	136435	responseSmallH	correct	n/a	0.52734	no	n/a	n/a
534.0195312	n/a	136709	largeHSmallT	correct	incongruent	0.53516	no	H	T
534.5546875	n/a	136846	responseSmallT	correct	n/a	0.53516	no	n/a	n/a
535.6210938	n/a	137119	largeTSmallT	correct	congruent	0.53125	no	T	T
536.1523438	n/a	137255	responseSmallT	correct	n/a	0.53125	no	n/a	n/a
537.21875	n/a	137528	largeHSmallT	correct	incongruent	0.50781	no	H	T
537.7265625	n/a	137658	responseSmallT	correct	n/a	0.50781	no	n/a	n/a
538.7929688	n/a	137931	largeTSmallH	correct	incongruent	0.42188	no	T	H
539.2148438	n/a	138039	responseSmallH	correct	n/a	0.42188	no	n/a	n/a
540.2734375	n/a	138310	largeTSmallH	correct	incongruent	0.57031	no	T	H
540.84375	n/a	138456	responseSmallH	correct	n/a	0.57031	no	n/a	n/a
541.9140625	n/a	138730	largeHSmallH	correct	congruent	0.53516	no	H	H
542.4492188	n/a	138867	responseSmallH	correct	n/a	0.53516	no	n/a	n/a
543.5273438	n/a	139143	largeTSmallH	correct	incongruent	0.46484	no	T	H
543.9921875	n/a	139262	responseSmallH	correct	n/a	0.46484	no	n/a	n/a
545.0585938	n/a	139535	largeTSmallT	correct	congruent	0.34375	no	T	T
545.4023438	n/a	139623	responseSmallT	correct	n/a	0.34375	no	n/a	n/a
546.4726562	n/a	139897	largeHSmallT	correct	incongruent	0.52734	no	H	T
547	n/a	140032	responseSmallT	correct	n/a	0.52734	no	n/a	n/a
548.0585938	n/a	140303	largeTSmallH	correct	incongruent	0.45312	no	T	H
548.5117188	n/a	140419	responseSmallH	correct	n/a	0.45312	no	n/a	n/a
549.578125	n/a	140692	largeTSmallH	correct	incongruent	0.63281	no	T	H
550.2109375	n/a	140854	responseSmallH	correct	n/a	0.63281	no	n/a	n/a
551.2734375	n/a	141126	largeTSmallT	correct	congruent	0.66406	no	T	T
551.9375	n/a	141296	responseSmallT	correct	n/a	0.66406	no	n/a	n/a
553.0078125	n/a	141570	largeHSmallH	correct	congruent	0.77344	no	H	H
553.78125	n/a	141768	responseSmallH	correct	n/a	0.77344	no	n/a	n/a
554.8476562	n/a	142041	largeTSmallH	correct	incongruent	0.625	no	T	H
555.4726562	n/a	142201	responseSmallH	correct	n/a	0.625	no	n/a	n/a
556.5390625	n/a	142474	largeTSmallH	correct	incongruent	0.60547	no	T	H
557.1445312	n/a	142629	responseSmallH	correct	n/a	0.60547	no	n/a	n/a
558.21875	n/a	142904	largeTSmallH	correct	incongruent	0.51562	no	T	H
558.734375	n/a	143036	responseSmallH	correct	n/a	0.51562	no	n/a	n/a
559.8046875	n/a	143310	largeTSmallH	correct	incongruent	0.50781	no	T	H
560.3125	n/a	143440	responseSmallH	correct	n/a	0.50781	no	n/a	n/a
561.3789062	n/a	143713	largeHSmallT	error	incongruent	0.26172	no	H	T
561.640625	n/a	143780	responseSmallH	error	n/a	0.26172	no	n/a	n/a
562.7109375	n/a	144054	largeTSmallH	n/a	incongruent	n/a	n/a	T	H
563.859375	n/a	144348	largeTSmallH	n/a	incongruent	n/a	n/a	T	H
564.9921875	n/a	144638	largeTSmallH	correct	incongruent	0.57422	no	T	H
565.5664062	n/a	144785	responseSmallH	correct	n/a	0.57422	no	n/a	n/a
566.6328125	n/a	145058	largeHSmallH	correct	congruent	0.57031	no	H	H
567.203125	n/a	145204	responseSmallH	correct	n/a	0.57031	no	n/a	n/a
568.2578125	n/a	145474	largeTSmallT	correct	congruent	0.56641	no	T	T
568.8242188	n/a	145619	responseSmallT	correct	n/a	0.56641	no	n/a	n/a
569.8867188	n/a	145891	largeHSmallT	correct	incongruent	0.63672	no	H	T
570.5234375	n/a	146054	responseSmallT	correct	n/a	0.63672	no	n/a	n/a
571.59375	n/a	146328	largeTSmallT	correct	congruent	0.625	no	T	T
572.21875	n/a	146488	responseSmallT	correct	n/a	0.625	no	n/a	n/a
573.2851562	n/a	146761	largeHSmallT	correct	incongruent	0.76953	no	H	T
574.0546875	n/a	146958	responseSmallT	correct	n/a	0.76953	no	n/a	n/a
575.125	n/a	147232	largeHSmallT	correct	incongruent	0.48047	no	H	T
575.6054688	n/a	147355	responseSmallT	correct	n/a	0.48047	no	n/a	n/a
576.671875	n/a	147628	largeTSmallH	correct	incongruent	0.55469	no	T	H
577.2265625	n/a	147770	responseSmallH	correct	n/a	0.55469	no	n/a	n/a
578.296875	n/a	148044	largeTSmallH	correct	incongruent	0.55859	no	T	H
578.8554688	n/a	148187	responseSmallH	correct	n/a	0.55859	no	n/a	n/a
579.9140625	n/a	148458	largeHSmallT	correct	incongruent	0.66016	no	H	T
580.5742188	n/a	148627	responseSmallT	correct	n/a	0.66016	no	n/a	n/a
581.6445312	n/a	148901	largeHSmallH	correct	congruent	0.57812	no	H	H
582.2226562	n/a	149049	responseSmallH	correct	n/a	0.57812	no	n/a	n/a
583.2851562	n/a	149321	largeTSmallH	correct	incongruent	0.75781	no	T	H
584.0429688	n/a	149515	responseSmallH	correct	n/a	0.75781	no	n/a	n/a
585.1132812	n/a	149789	largeTSmallT	correct	congruent	0.45312	no	T	T
585.5664062	n/a	149905	responseSmallT	correct	n/a	0.45312	no	n/a	n/a
586.6328125	n/a	150178	largeHSmallT	correct	incongruent	0.55469	no	H	T
587.1875	n/a	150320	responseSmallT	correct	n/a	0.55469	no	n/a	n/a
588.2460938	n/a	150591	largeTSmallH	correct	incongruent	0.64844	no	T	H
588.8945312	n/a	150757	responseSmallH	correct	n/a	0.64844	no	n/a	n/a
589.9648438	n/a	151031	largeTSmallH	correct	incongruent	0.59766	no	T	H
590.5625	n/a	151184	responseSmallH	correct	n/a	0.59766	no	n/a	n/a
591.6328125	n/a	151458	largeHSmallH	n/a	congruent	n/a	n/a	H	H
593.0195312	n/a	151813	largeTSmallH	correct	incongruent	0.64844	no	T	H
593.6679688	n/a	151979	responseSmallH	correct	n/a	0.64844	no	n/a	n/a
594.7382812	n/a	152253	largeTSmallH	correct	incongruent	0.44922	no	T	H
595.1875	n/a	152368	responseSmallH	correct	n/a	0.44922	no	n/a	n/a
596.2460938	n/a	152639	largeHSmallH	n/a	congruent	n/a	n/a	H	H
597.578125	n/a	152980	largeTSmallT	correct	congruent	0.60938	no	T	T
598.1875	n/a	153136	responseSmallT	correct	n/a	0.60938	no	n/a	n/a
599.2578125	n/a	153410	largeTSmallH	correct	incongruent	0.36328	no	T	H
599.6210938	n/a	153503	responseSmallH	correct	n/a	0.36328	no	n/a	n/a
600.6835938	n/a	153775	largeHSmallH	correct	congruent	0.43359	no	H	H
601.1171875	n/a	153886	responseSmallH	correct	n/a	0.43359	no	n/a	n/a
602.1796875	n/a	154158	largeHSmallT	correct	incongruent	0.64062	no	H	T
602.8203125	n/a	154322	responseSmallT	correct	n/a	0.64062	no	n/a	n/a
603.8984375	n/a	154598	largeTSmallH	correct	incongruent	0.48047	no	T	H
604.3789062	n/a	154721	responseSmallH	correct	n/a	0.48047	no	n/a	n/a
605.4453125	n/a	154994	largeHSmallT	correct	incongruent	0.70312	no	H	T
606.1484375	n/a	155174	responseSmallT	correct	n/a	0.70312	no	n/a	n/a
607.21875	n/a	155448	largeTSmallT	correct	congruent	0.48047	no	T	T
607.6992188	n/a	155571	responseSmallT	correct	n/a	0.48047	no	n/a	n/a
608.765625	n/a	155844	largeTSmallT	correct	congruent	0.60547	no	T	T
609.3710938	n/a	155999	responseSmallT	correct	n/a	0.60547	no	n/a	n/a
610.4296875	n/a	156270	largeTSmallT	correct	congruent	0.51562	no	T	T
610.9453125	n/a	156402	responseSmallT	correct	n/a	0.51562	no	n/a	n/a
612.0039062	n/a	156673	largeHSmallT	correct	incongruent	0.5	no	H	T
612.5039062	n/a	156801	responseSmallT	correct	n/a	0.5	no	n/a	n/a
613.5664062	n/a	157073	largeTSmallH	correct	incongruent	0.44531	no	T	H
614.0117188	n/a	157187	responseSmallH	correct	n/a	0.44531	no	n/a	n/a
615.0859375	n/a	157462	largeHSmallH	correct	congruent	0.45703	no	H	H
615.5429688	n/a	157579	responseSmallH	correct	n/a	0.45703	no	n/a	n/a
616.6054688	n/a	157851	largeHSmallH	correct	congruent	0.48438	no	H	H
617.0898438	n/a	157975	responseSmallH	correct	n/a	0.48438	no	n/a	n/a
618.1523438	n/a	158247	largeTSmallH	correct	incongruent	0.46875	no	T	H
618.6210938	n/a	158367	responseSmallH	correct	n/a	0.46875	no	n/a	n/a
619.6835938	n/a	158639	largeHSmallT	correct	incongruent	0.62891	no	H	T
620.3125	n/a	158800	responseSmallT	correct	n/a	0.62891	no	n/a	n/a
621.3789062	n/a	159073	largeHSmallH	correct	congruent	0.4375	no	H	H
621.8164062	n/a	159185	responseSmallH	correct	n/a	0.4375	no	n/a	n/a
622.8828125	n/a	159458	largeHSmallH	correct	congruent	0.52344	no	H	H
623.40625	n/a	159592	responseSmallH	correct	n/a	0.52344	no	n/a	n/a
624.4726562	n/a	159865	largeHSmallH	correct	congruent	0.40625	no	H	H
624.8789062	n/a	159969	responseSmallH	correct	n/a	0.40625	no	n/a	n/a
625.9375	n/a	160240	largeHSmallH	correct	congruent	0.33984	no	H	H
626.2773438	n/a	160327	responseSmallH	correct	n/a	0.33984	no	n/a	n/a
627.3359375	n/a	160598	largeTSmallH	correct	incongruent	0.37109	no	T	H
627.7070312	n/a	160693	responseSmallH	correct	n/a	0.37109	no	n/a	n/a
628.7773438	n/a	160967	largeHSmallT	correct	incongruent	0.67578	no	H	T
629.453125	n/a	161140	responseSmallT	correct	n/a	0.67578	no	n/a	n/a
630.5234375	n/a	161414	largeTSmallH	correct	incongruent	0.625	no	T	H
631.1484375	n/a	161574	responseSmallH	correct	n/a	0.625	no	n/a	n/a
632.203125	n/a	161844	largeHSmallH	correct	congruent	0.48828	no	H	H
632.6914062	n/a	161969	responseSmallH	correct	n/a	0.48828	no	n/a	n/a
633.75	n/a	162240	largeHSmallT	correct	incongruent	0.53125	no	H	T
634.28125	n/a	162376	responseSmallT	correct	n/a	0.53125	no	n/a	n/a
635.3515625	n/a	162650	largeTSmallT	correct	congruent	0.61328	no	T	T
635.9648438	n/a	162807	responseSmallT	correct	n/a	0.61328	no	n/a	n/a
637.03125	n/a	163080	largeTSmallH	correct	incongruent	0.60547	no	T	H
637.6367188	n/a	163235	responseSmallH	correct	n/a	0.60547	no	n/a	n/a
638.6992188	n/a	163507	largeTSmallT	correct	congruent	0.49609	no	T	T
639.1953125	n/a	163634	responseSmallT	correct	n/a	0.49609	no	n/a	n/a
640.2578125	n/a	163906	largeTSmallT	correct	congruent	0.53125	no	T	T
640.7890625	n/a	164042	responseSmallT	correct	n/a	0.53125	no	n/a	n/a
641.84375	n/a	164312	largeTSmallT	correct	congruent	0.5625	no	T	T
642.40625	n/a	164456	responseSmallT	correct	n/a	0.5625	no	n/a	n/a
643.46875	n/a	164728	largeHSmallH	correct	congruent	0.51953	no	H	H
643.9882812	n/a	164861	responseSmallH	correct	n/a	0.51953	no	n/a	n/a
645.0429688	n/a	165131	largeHSmallH	correct	congruent	0.46484	no	H	H
645.5078125	n/a	165250	responseSmallH	correct	n/a	0.46484	no	n/a	n/a
646.578125	n/a	165524	largeTSmallH	correct	incongruent	0.35547	no	T	H
646.9335938	n/a	165615	responseSmallH	correct	n/a	0.35547	no	n/a	n/a
647.9921875	n/a	165886	largeHSmallH	correct	congruent	0.41016	no	H	H
648.4023438	n/a	165991	responseSmallH	correct	n/a	0.41016	no	n/a	n/a
649.46875	n/a	166264	largeTSmallT	correct	congruent	0.52734	no	T	T
649.9960938	n/a	166399	responseSmallT	correct	n/a	0.52734	no	n/a	n/a
651.0703125	n/a	166674	largeHSmallH	correct	congruent	0.43359	no	H	H
651.5039062	n/a	166785	responseSmallH	correct	n/a	0.43359	no	n/a	n/a
652.5625	n/a	167056	largeTSmallT	correct	congruent	0.49219	no	T	T
653.0546875	n/a	167182	responseSmallT	correct	n/a	0.49219	no	n/a	n/a
654.125	n/a	167456	largeHSmallT	correct	incongruent	0.70312	no	H	T
654.828125	n/a	167636	responseSmallT	correct	n/a	0.70312	no	n/a	n/a
655.8984375	n/a	167910	largeTSmallT	correct	congruent	0.55859	no	T	T
656.4570312	n/a	168053	responseSmallT	correct	n/a	0.55859	no	n/a	n/a
657.5234375	n/a	168326	largeHSmallH	correct	congruent	0.45703	no	H	H
657.9804688	n/a	168443	responseSmallH	correct	n/a	0.45703	no	n/a	n/a
659.0429688	n/a	168715	largeTSmallT	correct	congruent	0.59766	no	T	T
659.640625	n/a	168868	responseSmallT	correct	n/a	0.59766	no	n/a	n/a
660.7109375	n/a	169142	largeTSmallT	correct	congruent	0.50781	no	T	T
661.21875	n/a	169272	responseSmallT	correct	n/a	0.50781	no	n/a	n/a
662.2851562	n/a	169545	largeHSmallT	correct	incongruent	0.48047	no	H	T
662.765625	n/a	169668	responseSmallT	correct	n/a	0.48047	no	n/a	n/a
663.8320312	n/a	169941	largeHSmallT	correct	incongruent	0.49609	no	H	T
664.328125	n/a	170068	responseSmallT	correct	n/a	0.49609	no	n/a	n/a
665.390625	n/a	170340	largeTSmallT	correct	congruent	0.55859	no	T	T
665.9492188	n/a	170483	responseSmallT	correct	n/a	0.55859	no	n/a	n/a
667.015625	n/a	170756	largeTSmallT	correct	congruent	0.54297	no	T	T
667.5585938	n/a	170895	responseSmallT	correct	n/a	0.54297	no	n/a	n/a
668.6445312	n/a	171173	largeHSmallT	correct	incongruent	0.48438	no	H	T
669.1289062	n/a	171297	responseSmallT	correct	n/a	0.48438	no	n/a	n/a
670.203125	n/a	171572	largeTSmallH	correct	incongruent	0.66406	no	T	H
670.8671875	n/a	171742	responseSmallH	correct	n/a	0.66406	no	n/a	n/a
671.921875	n/a	172012	largeHSmallT	correct	incongruent	0.85156	no	H	T
672.7734375	n/a	172230	responseSmallT	correct	n/a	0.85156	no	n/a	n/a
686.3476562	n/a	175705	largeHSmallH	correct	congruent	2.0234	yes	H	H
688.3710938	n/a	176223	responseLargeH	correct	n/a	2.0234	yes	n/a	n/a
689.4296875	n/a	176494	largeTSmallT	correct	congruent	0.61328	no	T	T
690.0429688	n/a	176651	responseLargeT	correct	n/a	0.61328	no	n/a	n/a
691.109375	n/a	176924	largeTSmallT	correct	congruent	0.57031	no	T	T
691.6796875	n/a	177070	responseLargeT	correct	n/a	0.57031	no	n/a	n/a
692.75	n/a	177344	largeHSmallH	correct	congruent	0.44922	no	H	H
693.1992188	n/a	177459	responseLargeH	correct	n/a	0.44922	no	n/a	n/a
694.2695312	n/a	177733	largeTSmallT	correct	congruent	0.62891	no	T	T
694.8984375	n/a	177894	responseLargeT	correct	n/a	0.62891	no	n/a	n/a
695.9609375	n/a	178166	largeTSmallH	correct	incongruent	0.49609	no	T	H
696.4570312	n/a	178293	responseLargeT	correct	n/a	0.49609	no	n/a	n/a
697.5234375	n/a	178566	largeTSmallT	correct	congruent	0.41406	no	T	T
697.9375	n/a	178672	responseLargeT	correct	n/a	0.41406	no	n/a	n/a
699.0039062	n/a	178945	largeTSmallT	correct	congruent	0.38672	no	T	T
699.390625	n/a	179044	responseLargeT	correct	n/a	0.38672	no	n/a	n/a
700.4570312	n/a	179317	largeHSmallT	correct	incongruent	0.47656	no	H	T
700.9335938	n/a	179439	responseLargeH	correct	n/a	0.47656	no	n/a	n/a
702.0039062	n/a	179713	largeHSmallH	correct	congruent	0.53125	no	H	H
702.5351562	n/a	179849	responseLargeH	correct	n/a	0.53125	no	n/a	n/a
703.5898438	n/a	180119	largeTSmallT	correct	congruent	0.53516	no	T	T
704.125	n/a	180256	responseLargeT	correct	n/a	0.53516	no	n/a	n/a
705.1875	n/a	180528	largeHSmallH	correct	congruent	0.53906	no	H	H
705.7265625	n/a	180666	responseLargeH	correct	n/a	0.53906	no	n/a	n/a
706.7890625	n/a	180938	largeTSmallT	correct	congruent	0.41406	no	T	T
707.203125	n/a	181044	responseLargeT	correct	n/a	0.41406	no	n/a	n/a
708.28125	n/a	181320	largeHSmallH	correct	congruent	0.46875	no	H	H
708.75	n/a	181440	responseLargeH	correct	n/a	0.46875	no	n/a	n/a
709.8164062	n/a	181713	largeTSmallH	correct	incongruent	0.60547	no	T	H
710.421875	n/a	181868	responseLargeT	correct	n/a	0.60547	no	n/a	n/a
711.484375	n/a	182140	largeHSmallT	correct	incongruent	0.62109	no	H	T
712.1054688	n/a	182299	responseLargeH	correct	n/a	0.62109	no	n/a	n/a
713.1757812	n/a	182573	largeHSmallT	correct	incongruent	0.60156	no	H	T
713.7773438	n/a	182727	responseLargeH	correct	n/a	0.60156	no	n/a	n/a
714.84375	n/a	183000	largeHSmallT	correct	incongruent	0.39453	no	H	T
715.2382812	n/a	183101	responseLargeH	correct	n/a	0.39453	no	n/a	n/a
716.3085938	n/a	183375	largeHSmallH	correct	congruent	0.37891	no	H	H
716.6875	n/a	183472	responseLargeH	correct	n/a	0.37891	no	n/a	n/a
717.7617188	n/a	183747	largeHSmallT	correct	incongruent	0.43359	no	H	T
718.1953125	n/a	183858	responseLargeH	correct	n/a	0.43359	no	n/a	n/a
719.2539062	n/a	184129	largeTSmallH	correct	incongruent	0.5	no	T	H
719.7539062	n/a	184257	responseLargeT	correct	n/a	0.5	no	n/a	n/a
720.8164062	n/a	184529	largeTSmallT	correct	congruent	0.62109	no	T	T
721.4375	n/a	184688	responseLargeT	correct	n/a	0.62109	no	n/a	n/a
722.5078125	n/a	184962	largeTSmallT	correct	congruent	0.43359	no	T	T
722.9414062	n/a	185073	responseLargeT	correct	n/a	0.43359	no	n/a	n/a
724.015625	n/a	185348	largeHSmallH	correct	congruent	0.41406	no	H	H
724.4296875	n/a	185454	responseLargeH	correct	n/a	0.41406	no	n/a	n/a
725.4960938	n/a	185727	largeHSmallT	correct	incongruent	0.51562	no	H	T
726.0117188	n/a	185859	responseLargeH	correct	n/a	0.51562	no	n/a	n/a
727.0703125	n/a	186130	largeHSmallT	correct	incongruent	0.60547	no	H	T
727.6757812	n/a	186285	responseLargeH	correct	n/a	0.60547	no	n/a	n/a
728.75	n/a	186560	largeTSmallH	correct	incongruent	0.71484	no	T	H
729.4648438	n/a	186743	responseLargeT	correct	n/a	0.71484	no	n/a	n/a
730.5351562	n/a	187017	largeTSmallT	correct	congruent	0.46094	no	T	T
730.9960938	n/a	187135	responseLargeT	correct	n/a	0.46094	no	n/a	n/a
732.0703125	n/a	187410	largeHSmallH	correct	congruent	0.47266	no	H	H
732.5429688	n/a	187531	responseLargeH	correct	n/a	0.47266	no	n/a	n/a
733.6171875	n/a	187806	largeTSmallH	correct	incongruent	0.41406	no	T	H
734.03125	n/a	187912	responseLargeT	correct	n/a	0.41406	no	n/a	n/a
735.09375	n/a	188184	largeTSmallH	correct	incongruent	0.51172	no	T	H
735.6054688	n/a	188315	responseLargeT	correct	n/a	0.51172	no	n/a	n/a
736.6679688	n/a	188587	largeTSmallT	correct	congruent	0.4375	no	T	T
737.1054688	n/a	188699	responseLargeT	correct	n/a	0.4375	no	n/a	n/a
738.1601562	n/a	188969	largeHSmallT	correct	incongruent	0.53125	no	H	T
738.6914062	n/a	189105	responseLargeH	correct	n/a	0.53125	no	n/a	n/a
739.7617188	n/a	189379	largeTSmallT	correct	congruent	0.76172	no	T	T
740.5234375	n/a	189574	responseLargeT	correct	n/a	0.76172	no	n/a	n/a
741.6015625	n/a	189850	largeTSmallH	correct	incongruent	0.51953	no	T	H
742.1210938	n/a	189983	responseLargeT	correct	n/a	0.51953	no	n/a	n/a
743.1875	n/a	190256	largeHSmallT	correct	incongruent	0.59766	no	H	T
743.7851562	n/a	190409	responseLargeH	correct	n/a	0.59766	no	n/a	n/a
744.8554688	n/a	190683	largeHSmallH	correct	congruent	1.0391	no	H	H
745.8945312	n/a	190949	responseLargeH	correct	n/a	1.0391	no	n/a	n/a
746.9609375	n/a	191222	largeHSmallH	correct	congruent	0.71094	no	H	H
747.671875	n/a	191404	responseLargeH	correct	n/a	0.71094	no	n/a	n/a
748.75	n/a	191680	largeTSmallT	correct	congruent	0.41797	no	T	T
749.1679688	n/a	191787	responseLargeT	correct	n/a	0.41797	no	n/a	n/a
750.2421875	n/a	192062	largeTSmallH	correct	incongruent	0.57031	no	T	H
750.8125	n/a	192208	responseLargeT	correct	n/a	0.57031	no	n/a	n/a
751.8828125	n/a	192482	largeHSmallH	correct	congruent	0.41016	no	H	H
752.2929688	n/a	192587	responseLargeH	correct	n/a	0.41016	no	n/a	n/a
753.3632812	n/a	192861	largeHSmallH	correct	congruent	0.49219	no	H	H
753.8554688	n/a	192987	responseLargeH	correct	n/a	0.49219	no	n/a	n/a
754.921875	n/a	193260	largeTSmallH	correct	incongruent	0.54688	no	T	H
755.46875	n/a	193400	responseLargeT	correct	n/a	0.54688	no	n/a	n/a
756.546875	n/a	193676	largeTSmallH	correct	incongruent	0.55078	no	T	H
757.0976562	n/a	193817	responseLargeT	correct	n/a	0.55078	no	n/a	n/a
758.1601562	n/a	194089	largeHSmallH	correct	congruent	0.39453	no	H	H
758.5546875	n/a	194190	responseLargeH	correct	n/a	0.39453	no	n/a	n/a
759.6132812	n/a	194461	largeTSmallT	correct	congruent	0.58594	no	T	T
760.1992188	n/a	194611	responseLargeT	correct	n/a	0.58594	no	n/a	n/a
761.2695312	n/a	194885	largeTSmallT	correct	congruent	0.47656	no	T	T
761.7460938	n/a	195007	responseLargeT	correct	n/a	0.47656	no	n/a	n/a
762.8164062	n/a	195281	largeHSmallH	correct	congruent	0.45312	no	H	H
763.2695312	n/a	195397	responseLargeH	correct	n/a	0.45312	no	n/a	n/a
764.3476562	n/a	195673	largeTSmallH	correct	incongruent	0.57422	no	T	H
764.921875	n/a	195820	responseLargeT	correct	n/a	0.57422	no	n/a	n/a
766	n/a	196096	largeHSmallH	correct	congruent	0.44531	no	H	H
766.4453125	n/a	196210	responseLargeH	correct	n/a	0.44531	no	n/a	n/a
767.5078125	n/a	196482	largeHSmallH	correct	congruent	0.52344	no	H	H
768.03125	n/a	196616	responseLargeH	correct	n/a	0.52344	no	n/a	n/a
769.109375	n/a	196892	largeHSmallT	correct	incongruent	0.59375	no	H	T
769.703125	n/a	197044	responseLargeH	correct	n/a	0.59375	no	n/a	n/a
770.7734375	n/a	197318	largeHSmallH	correct	congruent	0.49219	no	H	H
771.265625	n/a	197444	responseLargeH	correct	n/a	0.49219	no	n/a	n/a
772.3359375	n/a	197718	largeTSmallT	correct	congruent	0.46875	no	T	T
772.8046875	n/a	197838	responseLargeT	correct	n/a	0.46875	no	n/a	n/a
773.8671875	n/a	198110	largeTSmallT	correct	congruent	0.62109	no	T	T
774.4882812	n/a	198269	responseLargeT	correct	n/a	0.62109	no	n/a	n/a
775.5625	n/a	198544	largeHSmallH	correct	congruent	0.57031	no	H	H
776.1328125	n/a	198690	responseLargeH	correct	n/a	0.57031	no	n/a	n/a
777.1992188	n/a	198963	largeHSmallT	correct	incongruent	0.55469	no	H	T
777.7539062	n/a	199105	responseLargeH	correct	n/a	0.55469	no	n/a	n/a
778.8125	n/a	199376	largeTSmallT	correct	congruent	0.42969	no	T	T
779.2421875	n/a	199486	responseLargeT	correct	n/a	0.42969	no	n/a	n/a
780.3203125	n/a	199762	largeTSmallH	correct	incongruent	0.46875	no	T	H
780.7890625	n/a	199882	responseLargeT	correct	n/a	0.46875	no	n/a	n/a
781.8554688	n/a	200155	largeHSmallH	correct	congruent	0.50391	no	H	H
782.359375	n/a	200284	responseLargeH	correct	n/a	0.50391	no	n/a	n/a
783.4257812	n/a	200557	largeHSmallT	correct	incongruent	0.5	no	H	T
783.9257812	n/a	200685	responseLargeH	correct	n/a	0.5	no	n/a	n/a
785	n/a	200960	largeTSmallH	correct	incongruent	0.40625	no	T	H
785.40625	n/a	201064	responseLargeT	correct	n/a	0.40625	no	n/a	n/a
786.4804688	n/a	201339	largeTSmallT	correct	congruent	0.51953	no	T	T
787	n/a	201472	responseLargeT	correct	n/a	0.51953	no	n/a	n/a
788.0664062	n/a	201745	largeTSmallH	correct	incongruent	0.55859	no	T	H
788.625	n/a	201888	responseLargeT	correct	n/a	0.55859	no	n/a	n/a
789.6953125	n/a	202162	largeTSmallT	correct	congruent	0.54297	no	T	T
790.2382812	n/a	202301	responseLargeT	correct	n/a	0.54297	no	n/a	n/a
791.2929688	n/a	202571	largeHSmallT	correct	incongruent	0.45312	no	H	T
791.7460938	n/a	202687	responseLargeH	correct	n/a	0.45312	no	n/a	n/a
792.8125	n/a	202960	largeTSmallH	correct	incongruent	0.65625	no	T	H
793.46875	n/a	203128	responseLargeT	correct	n/a	0.65625	no	n/a	n/a
794.546875	n/a	203404	largeHSmallH	correct	congruent	0.49609	no	H	H
795.0429688	n/a	203531	responseLargeH	correct	n/a	0.49609	no	n/a	n/a
796.1054688	n/a	203803	largeTSmallT	correct	congruent	0.62891	no	T	T
796.734375	n/a	203964	responseLargeT	correct	n/a	0.62891	no	n/a	n/a
797.8007812	n/a	204237	largeHSmallT	correct	incongruent	0.74219	no	H	T
798.5429688	n/a	204427	responseLargeH	correct	n/a	0.74219	no	n/a	n/a
799.6132812	n/a	204701	largeHSmallH	correct	congruent	0.71875	no	H	H
800.3320312	n/a	204885	responseLargeH	correct	n/a	0.71875	no	n/a	n/a
801.3867188	n/a	205155	largeTSmallT	correct	congruent	0.38672	no	T	T
801.7734375	n/a	205254	responseLargeT	correct	n/a	0.38672	no	n/a	n/a
802.8398438	n/a	205527	largeHSmallH	correct	congruent	0.39844	no	H	H
803.2382812	n/a	205629	responseLargeH	correct	n/a	0.39844	no	n/a	n/a
804.3085938	n/a	205903	largeTSmallH	correct	incongruent	0.52344	no	T	H
804.8320312	n/a	206037	responseLargeT	correct	n/a	0.52344	no	n/a	n/a
805.8945312	n/a	206309	largeHSmallT	correct	incongruent	0.42188	no	H	T
806.3164062	n/a	206417	responseLargeH	correct	n/a	0.42188	no	n/a	n/a
807.3867188	n/a	206691	largeHSmallH	correct	congruent	0.60938	no	H	H
807.9960938	n/a	206847	responseLargeH	correct	n/a	0.60938	no	n/a	n/a
809.0664062	n/a	207121	largeTSmallH	correct	incongruent	0.66406	no	T	H
809.7304688	n/a	207291	responseLargeT	correct	n/a	0.66406	no	n/a	n/a
810.8007812	n/a	207565	largeTSmallT	correct	congruent	0.66797	no	T	T
811.46875	n/a	207736	responseLargeT	correct	n/a	0.66797	no	n/a	n/a
812.5351562	n/a	208009	largeTSmallT	correct	congruent	0.70312	no	T	T
813.2382812	n/a	208189	responseLargeT	correct	n/a	0.70312	no	n/a	n/a
814.3085938	n/a	208463	largeTSmallH	correct	incongruent	0.67188	no	T	H
814.9804688	n/a	208635	responseLargeT	correct	n/a	0.67188	no	n/a	n/a
816.0390625	n/a	208906	largeHSmallT	correct	incongruent	0.51172	no	H	T
816.5507812	n/a	209037	responseLargeH	correct	n/a	0.51172	no	n/a	n/a
817.6132812	n/a	209309	largeHSmallH	correct	congruent	0.61328	no	H	H
818.2265625	n/a	209466	responseLargeH	correct	n/a	0.61328	no	n/a	n/a
819.3085938	n/a	209743	largeTSmallH	correct	incongruent	0.375	no	T	H
819.6835938	n/a	209839	responseLargeT	correct	n/a	0.375	no	n/a	n/a
820.7460938	n/a	210111	largeTSmallT	correct	congruent	0.50781	no	T	T
821.2539062	n/a	210241	responseLargeT	correct	n/a	0.50781	no	n/a	n/a
822.3085938	n/a	210511	largeTSmallH	correct	incongruent	0.62109	no	T	H
822.9296875	n/a	210670	responseLargeT	correct	n/a	0.62109	no	n/a	n/a
824	n/a	210944	largeHSmallH	correct	congruent	0.64453	no	H	H
824.6445312	n/a	211109	responseLargeH	correct	n/a	0.64453	no	n/a	n/a
825.7070312	n/a	211381	largeHSmallT	correct	incongruent	0.625	no	H	T
826.3320312	n/a	211541	responseLargeH	correct	n/a	0.625	no	n/a	n/a
827.3984375	n/a	211814	largeTSmallH	correct	incongruent	0.66406	no	T	H
828.0625	n/a	211984	responseLargeT	correct	n/a	0.66406	no	n/a	n/a
829.1328125	n/a	212258	largeHSmallT	correct	incongruent	0.55859	no	H	T
829.6914062	n/a	212401	responseLargeH	correct	n/a	0.55859	no	n/a	n/a
830.7460938	n/a	212671	largeHSmallT	correct	incongruent	0.53906	no	H	T
831.2851562	n/a	212809	responseLargeH	correct	n/a	0.53906	no	n/a	n/a
832.359375	n/a	213084	largeHSmallT	correct	incongruent	0.67188	no	H	T
833.03125	n/a	213256	responseLargeH	correct	n/a	0.67188	no	n/a	n/a
834.1054688	n/a	213531	largeTSmallH	correct	incongruent	0.56641	no	T	H
834.671875	n/a	213676	responseLargeT	correct	n/a	0.56641	no	n/a	n/a
835.7460938	n/a	213951	largeTSmallH	correct	incongruent	0.62109	no	T	H
836.3671875	n/a	214110	responseLargeT	correct	n/a	0.62109	no	n/a	n/a
837.4257812	n/a	214381	largeHSmallT	error	incongruent	0.37891	no	H	T
837.8046875	n/a	214478	responseLargeT	error	n/a	0.37891	no	n/a	n/a
838.8789062	n/a	214753	largeHSmallT	correct	incongruent	0.56641	no	H	T
839.4453125	n/a	214898	responseLargeH	correct	n/a	0.56641	no	n/a	n/a
840.5195312	n/a	215173	largeTSmallH	correct	incongruent	0.60156	no	T	H
841.1210938	n/a	215327	responseLargeT	correct	n/a	0.60156	no	n/a	n/a
842.1875	n/a	215600	largeTSmallT	correct	congruent	0.41797	no	T	T
842.6054688	n/a	215707	responseLargeT	correct	n/a	0.41797	no	n/a	n/a
843.6679688	n/a	215979	largeHSmallH	correct	congruent	0.4375	no	H	H
844.1054688	n/a	216091	responseLargeH	correct	n/a	0.4375	no	n/a	n/a
845.1601562	n/a	216361	largeTSmallT	correct	congruent	0.50781	no	T	T
845.6679688	n/a	216491	responseLargeT	correct	n/a	0.50781	no	n/a	n/a
846.7460938	n/a	216767	largeTSmallH	correct	incongruent	0.49609	no	T	H
847.2421875	n/a	216894	responseLargeT	correct	n/a	0.49609	no	n/a	n/a
848.3046875	n/a	217166	largeHSmallT	correct	incongruent	0.48828	no	H	T
848.7929688	n/a	217291	responseLargeH	correct	n/a	0.48828	no	n/a	n/a
849.8671875	n/a	217566	largeHSmallH	correct	congruent	0.55469	no	H	H
850.421875	n/a	217708	responseLargeH	correct	n/a	0.55469	no	n/a	n/a
851.4804688	n/a	217979	largeHSmallT	correct	incongruent	0.76953	no	H	T
852.25	n/a	218176	responseLargeH	correct	n/a	0.76953	no	n/a	n/a
853.3203125	n/a	218450	largeTSmallT	correct	congruent	0.44531	no	T	T
853.765625	n/a	218564	responseLargeT	correct	n/a	0.44531	no	n/a	n/a
854.8398438	n/a	218839	largeTSmallH	correct	incongruent	0.79688	no	T	H
855.6367188	n/a	219043	responseLargeT	correct	n/a	0.79688	no	n/a	n/a
856.7070312	n/a	219317	largeTSmallH	correct	incongruent	0.54297	no	T	H
857.25	n/a	219456	responseLargeT	correct	n/a	0.54297	no	n/a	n/a
858.3203125	n/a	219730	largeTSmallH	correct	incongruent	0.59375	no	T	H
858.9140625	n/a	219882	responseLargeT	correct	n/a	0.59375	no	n/a	n/a
859.984375	n/a	220156	largeTSmallH	correct	incongruent	0.39062	no	T	H
860.375	n/a	220256	responseLargeT	correct	n/a	0.39062	no	n/a	n/a
861.4375	n/a	220528	largeHSmallH	correct	congruent	0.64062	no	H	H
862.078125	n/a	220692	responseLargeH	correct	n/a	0.64062	no	n/a	n/a
863.1445312	n/a	220965	largeHSmallH	correct	congruent	0.79297	no	H	H
863.9375	n/a	221168	responseLargeH	correct	n/a	0.79297	no	n/a	n/a
865.0117188	n/a	221443	largeTSmallH	correct	incongruent	0.70703	no	T	H
865.71875	n/a	221624	responseLargeT	correct	n/a	0.70703	no	n/a	n/a
866.7851562	n/a	221897	largeTSmallT	correct	congruent	0.57031	no	T	T
867.3554688	n/a	222043	responseLargeT	correct	n/a	0.57031	no	n/a	n/a
868.4257812	n/a	222317	largeTSmallT	correct	congruent	0.52734	no	T	T
868.953125	n/a	222452	responseLargeT	correct	n/a	0.52734	no	n/a	n/a
