onset	duration	sample	value	stimulus	response_type	response_time
14.5703125	n/a	3730	D	nontarget	n/a	n/a
16.21484375	n/a	4151	A	nontarget	n/a	n/a
17.7890625	n/a	4554	C	nontarget	n/a	n/a
19.35546875	n/a	4955	A	nontarget	n/a	n/a
20.9140625	n/a	5354	B	nontarget	n/a	n/a
22.4765625	n/a	5754	D	nontarget	n/a	n/a
24.03515625	n/a	6153	A	target	hit	625
24.66015625	n/a	6313	rt	n/a	hit	625
25.59765625	n/a	6553	A	nontarget	n/a	n/a
27.16796875	n/a	6955	B	nontarget	n/a	n/a
28.7421875	n/a	7358	A	target	miss	n/a
30.30078125	n/a	7757	B	nontarget	miss	n/a
31.875	n/a	8160	B	target	miss	n/a
33.44921875	n/a	8563	D	nontarget	miss	n/a
35.0234375	n/a	8966	A	nontarget	n/a	n/a
36.59375	n/a	9368	B	target	miss	n/a
38.16796875	n/a	9771	C	nontarget	miss	n/a
39.7265625	n/a	10170	A	target	miss	n/a
41.2890625	n/a	10570	B	target	miss	n/a
42.84765625	n/a	10969	B	nontarget	miss	n/a
44.41015625	n/a	11369	B	nontarget	n/a	n/a
45.98046875	n/a	11771	D	nontarget	n/a	n/a
47.54296875	n/a	12171	B	target	hit	449.2188
47.9921875	n/a	12286	rt	n/a	hit	449.2188
49.1015625	n/a	12570	B	target	miss	n/a
50.66015625	n/a	12969	B	nontarget	miss	n/a
52.22265625	n/a	13369	B	target	hit	464.8438
52.6875	n/a	13488	rt	n/a	hit	464.8438
53.78125	n/a	13768	C	nontarget	n/a	n/a
55.33984375	n/a	14167	B	target	miss	n/a
56.9140625	n/a	14570	A	nontarget	miss	n/a
58.48828125	n/a	14973	A	nontarget	n/a	n/a
60.0625	n/a	15376	D	nontarget	n/a	n/a
61.6328125	n/a	15778	A	target	hit	863.2812
62.49609375	n/a	15999	rt	n/a	hit	863.2812
63.20703125	n/a	16181	C	nontarget	n/a	n/a
64.76953125	n/a	16581	C	nontarget	n/a	n/a
66.33984375	n/a	16983	A	target	hit	421.875
66.76171875	n/a	17091	rt	n/a	hit	421.875
67.90234375	n/a	17383	A	nontarget	n/a	n/a
69.4609375	n/a	17782	D	nontarget	n/a	n/a
71.01953125	n/a	18181	B	nontarget	n/a	n/a
72.58203125	n/a	18581	A	target	hit	449.2188
73.03125	n/a	18696	rt	n/a	hit	449.2188
74.140625	n/a	18980	C	nontarget	n/a	n/a
75.69921875	n/a	19379	A	nontarget	n/a	n/a
77.26171875	n/a	19779	C	nontarget	n/a	n/a
78.8203125	n/a	20178	B	nontarget	n/a	n/a
80.37890625	n/a	20577	B	nontarget	n/a	n/a
81.94140625	n/a	20977	D	nontarget	n/a	n/a
83.5	n/a	21376	C	nontarget	n/a	n/a
85.0625	n/a	21776	D	nontarget	n/a	n/a
86.62109375	n/a	22175	C	nontarget	n/a	n/a
88.1796875	n/a	22574	B	nontarget	n/a	n/a
89.73828125	n/a	22973	A	nontarget	n/a	n/a
91.30078125	n/a	23373	C	target	miss	n/a
92.859375	n/a	23772	B	target	hit	476.5625
93.3359375	n/a	23894	rt	n/a	hit	476.5625
94.421875	n/a	24172	D	nontarget	n/a	n/a
95.98046875	n/a	24571	B	nontarget	n/a	n/a
97.5390625	n/a	24970	A	nontarget	n/a	n/a
99.1015625	n/a	25370	A	nontarget	n/a	n/a
100.6601562	n/a	25769	C	nontarget	n/a	n/a
102.2226562	n/a	26169	D	nontarget	n/a	n/a
103.78125	n/a	26568	B	nontarget	n/a	n/a
105.3398438	n/a	26967	D	nontarget	n/a	n/a
106.9023438	n/a	27367	B	nontarget	false_alarm	718.75
107.6210938	n/a	27551	rt	n/a	false_alarm	718.75
108.4609375	n/a	27766	A	nontarget	n/a	n/a
110.0195312	n/a	28165	C	nontarget	n/a	n/a
111.59375	n/a	28568	D	nontarget	n/a	n/a
113.1679688	n/a	28971	A	target	miss	n/a
114.7382812	n/a	29373	B	nontarget	miss	n/a
116.3125	n/a	29776	A	nontarget	n/a	n/a
117.8867188	n/a	30179	A	target	miss	n/a
119.4609375	n/a	30582	D	nontarget	miss	n/a
121.0195312	n/a	30981	B	nontarget	false_alarm	652.3438
121.671875	n/a	31148	rt	n/a	false_alarm	652.3438
122.578125	n/a	31380	A	target	miss	n/a
124.140625	n/a	31780	A	nontarget	miss	n/a
125.6992188	n/a	32179	D	nontarget	n/a	n/a
127.2578125	n/a	32578	B	nontarget	n/a	n/a
128.8203125	n/a	32978	C	nontarget	n/a	n/a
130.3789062	n/a	33377	A	nontarget	n/a	n/a
131.9375	n/a	33776	A	nontarget	n/a	n/a
133.5	n/a	34176	B	nontarget	n/a	n/a
135.0585938	n/a	34575	C	nontarget	n/a	n/a
136.6210938	n/a	34975	D	nontarget	n/a	n/a
138.1796875	n/a	35374	B	target	miss	n/a
139.7382812	n/a	35773	B	nontarget	miss	n/a
141.3007812	n/a	36173	D	target	miss	n/a
142.859375	n/a	36572	B	target	miss	n/a
144.4179688	n/a	36971	A	nontarget	miss	n/a
145.9804688	n/a	37371	D	target	miss	n/a
147.5390625	n/a	37770	C	nontarget	miss	n/a
149.0976562	n/a	38169	C	nontarget	n/a	n/a
150.6601562	n/a	38569	D	target	miss	n/a
152.21875	n/a	38968	C	target	miss	n/a
153.78125	n/a	39368	B	nontarget	miss	n/a
155.3398438	n/a	39767	B	nontarget	n/a	n/a
156.8984375	n/a	40166	A	nontarget	n/a	n/a
158.4570312	n/a	40565	A	nontarget	n/a	n/a
160.0195312	n/a	40965	C	nontarget	n/a	n/a
161.578125	n/a	41364	C	nontarget	false_alarm	929.6875
162.5078125	n/a	41602	rt	n/a	false_alarm	929.6875
163.140625	n/a	41764	D	nontarget	n/a	n/a
164.6992188	n/a	42163	D	nontarget	n/a	n/a
166.2578125	n/a	42562	D	nontarget	n/a	n/a
167.8203125	n/a	42962	C	nontarget	n/a	n/a
169.3789062	n/a	43361	C	nontarget	n/a	n/a
170.9375	n/a	43760	A	nontarget	n/a	n/a
172.5	n/a	44160	A	nontarget	n/a	n/a
174.0585938	n/a	44559	B	nontarget	n/a	n/a
175.6171875	n/a	44958	C	nontarget	n/a	n/a
177.1796875	n/a	45358	B	nontarget	n/a	n/a
178.7382812	n/a	45757	A	nontarget	n/a	n/a
180.296875	n/a	46156	A	nontarget	n/a	n/a
181.859375	n/a	46556	B	target	hit	421.875
182.28125	n/a	46664	rt	n/a	hit	421.875
183.4179688	n/a	46955	C	nontarget	n/a	n/a
184.9765625	n/a	47354	B	nontarget	n/a	n/a
186.5390625	n/a	47754	C	nontarget	n/a	n/a
188.0976562	n/a	48153	D	nontarget	n/a	n/a
189.65625	n/a	48552	B	target	miss	n/a
191.21875	n/a	48952	B	nontarget	miss	n/a
192.7773438	n/a	49351	B	nontarget	false_alarm	1031.25
193.8085938	n/a	49615	rt	n/a	false_alarm	1031.25
194.3359375	n/a	49750	C	nontarget	n/a	n/a
195.8984375	n/a	50150	D	nontarget	n/a	n/a
197.4570312	n/a	50549	C	nontarget	n/a	n/a
199.0195312	n/a	50949	D	nontarget	false_alarm	1335.9375
200.3554688	n/a	51291	rt	n/a	false_alarm	1335.9375
200.578125	n/a	51348	B	nontarget	n/a	n/a
202.1367188	n/a	51747	A	nontarget	n/a	n/a
203.6992188	n/a	52147	C	nontarget	n/a	n/a
205.2578125	n/a	52546	A	nontarget	n/a	n/a
206.8164062	n/a	52945	D	nontarget	n/a	n/a
208.3789062	n/a	53345	C	target	miss	n/a
209.9375	n/a	53744	C	nontarget	miss	n/a
211.4960938	n/a	54143	D	target	miss	n/a
213.0585938	n/a	54543	D	nontarget	false_alarm	1179.6875
214.2382812	n/a	54845	rt	n/a	false_alarm	1179.6875
214.6171875	n/a	54942	D	nontarget	false_alarm	898.4375
215.515625	n/a	55172	rt	n/a	false_alarm	898.4375
216.1757812	n/a	55341	B	nontarget	n/a	n/a
217.7382812	n/a	55741	A	nontarget	n/a	n/a
219.296875	n/a	56140	A	nontarget	n/a	n/a
220.859375	n/a	56540	C	nontarget	n/a	n/a
222.4179688	n/a	56939	D	nontarget	n/a	n/a
223.9765625	n/a	57338	C	nontarget	n/a	n/a
225.5390625	n/a	57738	D	nontarget	n/a	n/a
227.109375	n/a	58140	C	nontarget	n/a	n/a
228.6835938	n/a	58543	D	nontarget	n/a	n/a
230.2578125	n/a	58946	A	nontarget	n/a	n/a
231.8320312	n/a	59349	A	nontarget	n/a	n/a
233.4023438	n/a	59751	B	nontarget	n/a	n/a
234.9648438	n/a	60151	A	target	hit	675.7812
235.640625	n/a	60324	rt	n/a	hit	675.7812
236.5234375	n/a	60550	B	nontarget	n/a	n/a
238.0859375	n/a	60950	A	nontarget	n/a	n/a
239.6445312	n/a	61349	A	target	hit	453.125
240.0976562	n/a	61465	rt	n/a	hit	453.125
241.203125	n/a	61748	D	nontarget	n/a	n/a
242.7773438	n/a	62151	B	nontarget	n/a	n/a
244.3359375	n/a	62550	D	nontarget	n/a	n/a
245.8984375	n/a	62950	C	nontarget	n/a	n/a
247.4570312	n/a	63349	C	nontarget	n/a	n/a
249.015625	n/a	63748	B	nontarget	n/a	n/a
250.578125	n/a	64148	B	nontarget	n/a	n/a
252.1367188	n/a	64547	C	target	hit	378.9062
252.515625	n/a	64644	rt	n/a	hit	378.9062
253.6992188	n/a	64947	B	target	miss	n/a
255.2578125	n/a	65346	C	nontarget	miss	n/a
256.8164062	n/a	65745	B	nontarget	false_alarm	398.4375
257.2148438	n/a	65847	rt	n/a	false_alarm	398.4375
258.375	n/a	66144	C	nontarget	n/a	n/a
259.9375	n/a	66544	C	target	miss	n/a
261.4960938	n/a	66943	A	nontarget	miss	n/a
263.0546875	n/a	67342	D	nontarget	n/a	n/a
264.6171875	n/a	67742	A	nontarget	n/a	n/a
266.1757812	n/a	68141	A	target	miss	n/a
267.7382812	n/a	68541	B	nontarget	miss	n/a
269.296875	n/a	68940	C	nontarget	n/a	n/a
270.8554688	n/a	69339	A	target	miss	n/a
272.4179688	n/a	69739	A	nontarget	miss	n/a
273.9765625	n/a	70138	C	target	miss	n/a
275.5351562	n/a	70537	C	nontarget	miss	n/a
277.0976562	n/a	70937	D	nontarget	n/a	n/a
278.65625	n/a	71336	A	nontarget	n/a	n/a
280.2148438	n/a	71735	C	target	miss	n/a
281.7773438	n/a	72135	D	target	miss	n/a
283.3359375	n/a	72534	B	nontarget	miss	n/a
284.8984375	n/a	72934	D	nontarget	n/a	n/a
286.46875	n/a	73336	D	target	miss	n/a
288.03125	n/a	73736	C	nontarget	miss	n/a
289.6015625	n/a	74138	B	nontarget	false_alarm	558.5938
290.1601562	n/a	74281	rt	n/a	false_alarm	558.5938
291.1757812	n/a	74541	D	target	miss	n/a
292.75	n/a	74944	B	nontarget	miss	n/a
294.3242188	n/a	75347	C	nontarget	n/a	n/a
295.8828125	n/a	75746	A	nontarget	n/a	n/a
297.4414062	n/a	76145	B	target	miss	n/a
299.0039062	n/a	76545	D	nontarget	miss	n/a
300.5625	n/a	76944	A	target	miss	n/a
302.1367188	n/a	77347	D	nontarget	false_alarm	468.75
302.6054688	n/a	77467	rt	n/a	false_alarm	468.75
303.6953125	n/a	77746	D	target	miss	n/a
305.2539062	n/a	78145	D	nontarget	miss	n/a
306.8164062	n/a	78545	D	target	hit	457.0312
307.2734375	n/a	78662	rt	n/a	hit	457.0312
308.375	n/a	78944	B	nontarget	n/a	n/a
309.9335938	n/a	79343	C	nontarget	n/a	n/a
311.4960938	n/a	79743	D	target	miss	n/a
313.0546875	n/a	80142	D	nontarget	miss	n/a
314.6171875	n/a	80542	A	nontarget	n/a	n/a
316.1757812	n/a	80941	C	nontarget	n/a	n/a
317.734375	n/a	81340	C	nontarget	n/a	n/a
319.296875	n/a	81740	D	nontarget	n/a	n/a
320.8554688	n/a	82139	D	nontarget	n/a	n/a
322.4140625	n/a	82538	C	target	miss	n/a
323.9765625	n/a	82938	D	target	miss	n/a
325.5351562	n/a	83337	B	nontarget	miss	n/a
327.09375	n/a	83736	C	target	miss	n/a
328.65625	n/a	84136	A	nontarget	miss	n/a
330.2148438	n/a	84535	D	nontarget	n/a	n/a
331.7734375	n/a	84934	B	nontarget	n/a	n/a
333.3359375	n/a	85334	A	target	miss	n/a
334.8945312	n/a	85733	B	nontarget	miss	n/a
336.453125	n/a	86132	D	nontarget	false_alarm	667.9688
337.1210938	n/a	86303	rt	n/a	false_alarm	667.9688
338.015625	n/a	86532	B	nontarget	n/a	n/a
339.5742188	n/a	86931	C	nontarget	n/a	n/a
341.1367188	n/a	87331	A	nontarget	n/a	n/a
342.6953125	n/a	87730	D	nontarget	n/a	n/a
344.2539062	n/a	88129	B	nontarget	n/a	n/a
345.8164062	n/a	88529	A	target	hit	675.7812
346.4921875	n/a	88702	rt	n/a	hit	675.7812
347.375	n/a	88928	B	nontarget	n/a	n/a
348.9335938	n/a	89327	D	nontarget	n/a	n/a
350.4960938	n/a	89727	A	target	miss	n/a
352.0546875	n/a	90126	C	nontarget	miss	n/a
353.6132812	n/a	90525	C	nontarget	n/a	n/a
355.1757812	n/a	90925	D	nontarget	n/a	n/a
356.734375	n/a	91324	A	nontarget	false_alarm	730.4688
357.4648438	n/a	91511	rt	n/a	false_alarm	730.4688
358.2929688	n/a	91723	D	nontarget	n/a	n/a
359.8554688	n/a	92123	B	nontarget	n/a	n/a
361.4140625	n/a	92522	B	nontarget	n/a	n/a
362.9726562	n/a	92921	C	nontarget	n/a	n/a
364.5351562	n/a	93321	B	target	miss	n/a
366.109375	n/a	93724	B	target	hit	457.0312
366.5664062	n/a	93841	rt	n/a	hit	457.0312
367.6796875	n/a	94126	B	nontarget	n/a	n/a
369.2539062	n/a	94529	B	target	hit	878.9062
370.1328125	n/a	94754	rt	n/a	hit	878.9062
370.828125	n/a	94932	D	nontarget	n/a	n/a
372.4023438	n/a	95335	A	nontarget	n/a	n/a
373.9609375	n/a	95734	B	target	miss	n/a
375.5195312	n/a	96133	A	nontarget	miss	n/a
377.0820312	n/a	96533	B	nontarget	n/a	n/a
378.640625	n/a	96932	D	nontarget	n/a	n/a
380.2148438	n/a	97335	A	target	hit	488.2812
380.703125	n/a	97460	rt	n/a	hit	488.2812
381.7734375	n/a	97734	A	nontarget	n/a	n/a
383.3320312	n/a	98133	A	nontarget	n/a	n/a
384.8945312	n/a	98533	B	nontarget	n/a	n/a
386.453125	n/a	98932	D	nontarget	n/a	n/a
388.015625	n/a	99332	B	nontarget	n/a	n/a
389.5742188	n/a	99731	A	nontarget	n/a	n/a
391.1328125	n/a	100130	B	nontarget	n/a	n/a
392.6953125	n/a	100530	B	target	miss	n/a
394.2539062	n/a	100929	D	nontarget	miss	n/a
395.8125	n/a	101328	C	nontarget	n/a	n/a
397.375	n/a	101728	D	nontarget	n/a	n/a
398.9335938	n/a	102127	C	nontarget	false_alarm	214.8438
399.1484375	n/a	102182	rt	n/a	false_alarm	214.8438
400.4921875	n/a	102526	B	nontarget	n/a	n/a
402.0546875	n/a	102926	C	nontarget	n/a	n/a
403.6132812	n/a	103325	A	nontarget	n/a	n/a
405.171875	n/a	103724	A	nontarget	n/a	n/a
406.734375	n/a	104124	D	nontarget	n/a	n/a
408.2929688	n/a	104523	C	nontarget	n/a	n/a
409.8554688	n/a	104923	A	target	miss	n/a
411.4140625	n/a	105322	A	nontarget	miss	n/a
412.9726562	n/a	105721	A	nontarget	n/a	n/a
414.53125	n/a	106120	B	nontarget	n/a	n/a
416.09375	n/a	106520	B	nontarget	n/a	n/a
417.6523438	n/a	106919	C	nontarget	n/a	n/a
419.2148438	n/a	107319	D	nontarget	n/a	n/a
420.7734375	n/a	107718	B	target	miss	n/a
422.3320312	n/a	108117	D	nontarget	miss	n/a
423.8945312	n/a	108517	A	nontarget	n/a	n/a
425.4648438	n/a	108919	C	nontarget	n/a	n/a
427.0390625	n/a	109322	B	nontarget	n/a	n/a
428.6132812	n/a	109725	A	target	hit	382.8125
428.9960938	n/a	109823	rt	n/a	hit	382.8125
430.1875	n/a	110128	C	target	hit	550.7812
430.7382812	n/a	110269	rt	n/a	hit	550.7812
431.7578125	n/a	110530	D	nontarget	n/a	n/a
433.3320312	n/a	110933	D	nontarget	n/a	n/a
434.8945312	n/a	111333	D	nontarget	false_alarm	1410.1562
436.3046875	n/a	111694	rt	n/a	false_alarm	1410.1562
436.453125	n/a	111732	A	nontarget	n/a	n/a
438.0117188	n/a	112131	A	nontarget	n/a	n/a
439.5742188	n/a	112531	D	target	hit	464.8438
440.0390625	n/a	112650	rt	n/a	hit	464.8438
441.1328125	n/a	112930	A	target	hit	1132.8125
442.265625	n/a	113220	rt	n/a	hit	1132.8125
442.6914062	n/a	113329	D	nontarget	n/a	n/a
444.2539062	n/a	113729	D	target	miss	n/a
445.8125	n/a	114128	B	nontarget	miss	n/a
447.3710938	n/a	114527	C	nontarget	n/a	n/a
448.9335938	n/a	114927	D	target	miss	n/a
450.4921875	n/a	115326	A	nontarget	miss	n/a
