onset	duration	sample	value	response_type	congruence	response_time	response_out_of_range	largeletter	smallletter
9.142578125	n/a	2340.5	largeTSmallH	correct	incongruent	1.2617	no	T	H
10.40429688	n/a	2663.5	responseLargeT	correct	n/a	1.2617	no	n/a	n/a
11.47363281	n/a	2937.25	largeHSmallT	correct	incongruent	1.0254	no	H	T
12.49902344	n/a	3199.75	responseLargeH	correct	n/a	1.0254	no	n/a	n/a
13.56689453	n/a	3473.125	largeHSmallT	correct	incongruent	0.66992	no	H	T
14.23681641	n/a	3644.625	responseLargeH	correct	n/a	0.66992	no	n/a	n/a
15.31396484	n/a	3920.375	largeHSmallH	correct	congruent	0.58594	no	H	H
15.89990234	n/a	4070.375	responseLargeH	correct	n/a	0.58594	no	n/a	n/a
16.96679688	n/a	4343.5	largeHSmallH	correct	congruent	0.53955	no	H	H
17.50634766	n/a	4481.625	responseLargeH	correct	n/a	0.53955	no	n/a	n/a
18.56689453	n/a	4753.125	largeTSmallT	correct	congruent	0.6167	no	T	T
19.18359375	n/a	4911	responseLargeT	correct	n/a	0.6167	no	n/a	n/a
20.26025391	n/a	5186.625	largeHSmallT	correct	incongruent	0.5293	no	H	T
20.78955078	n/a	5322.125	responseLargeH	correct	n/a	0.5293	no	n/a	n/a
21.86035156	n/a	5596.25	largeTSmallH	correct	incongruent	0.48926	no	T	H
22.34960938	n/a	5721.5	responseLargeT	correct	n/a	0.48926	no	n/a	n/a
23.42041016	n/a	5995.625	largeTSmallT	correct	congruent	0.49561	no	T	T
23.91601562	n/a	6122.5	responseLargeT	correct	n/a	0.49561	no	n/a	n/a
24.97998047	n/a	6394.875	largeHSmallH	correct	congruent	0.37402	no	H	H
25.35400391	n/a	6490.625	responseLargeH	correct	n/a	0.37402	no	n/a	n/a
26.41992188	n/a	6763.5	largeTSmallH	correct	incongruent	0.52393	no	T	H
26.94384766	n/a	6897.625	responseLargeT	correct	n/a	0.52393	no	n/a	n/a
28.00683594	n/a	7169.75	largeTSmallT	correct	congruent	0.44727	no	T	T
28.45410156	n/a	7284.25	responseLargeT	correct	n/a	0.44727	no	n/a	n/a
29.52685547	n/a	7558.875	largeTSmallH	correct	incongruent	0.54932	no	T	H
30.07617188	n/a	7699.5	responseLargeT	correct	n/a	0.54932	no	n/a	n/a
31.14013672	n/a	7971.875	largeHSmallT	correct	incongruent	0.52881	no	H	T
31.66894531	n/a	8107.25	responseLargeH	correct	n/a	0.52881	no	n/a	n/a
32.73974609	n/a	8381.375	largeTSmallH	correct	incongruent	0.5835	no	T	H
33.32324219	n/a	8530.75	responseLargeT	correct	n/a	0.5835	no	n/a	n/a
34.39306641	n/a	8804.625	largeHSmallH	correct	congruent	0.40283	no	H	H
34.79589844	n/a	8907.75	responseLargeH	correct	n/a	0.40283	no	n/a	n/a
35.87304688	n/a	9183.5	largeHSmallT	correct	incongruent	0.44678	no	H	T
36.31982422	n/a	9297.875	responseLargeH	correct	n/a	0.44678	no	n/a	n/a
37.37988281	n/a	9569.25	largeTSmallT	correct	congruent	0.45068	no	T	T
37.83056641	n/a	9684.625	responseLargeT	correct	n/a	0.45068	no	n/a	n/a
38.89990234	n/a	9958.375	largeHSmallT	correct	incongruent	0.72266	no	H	T
39.62255859	n/a	10143.375	responseLargeH	correct	n/a	0.72266	no	n/a	n/a
40.68652344	n/a	10415.75	largeHSmallH	correct	congruent	0.55371	no	H	H
41.24023438	n/a	10557.5	responseLargeH	correct	n/a	0.55371	no	n/a	n/a
42.31298828	n/a	10832.125	largeHSmallT	correct	incongruent	0.69629	no	H	T
43.00927734	n/a	11010.375	responseLargeH	correct	n/a	0.69629	no	n/a	n/a
44.07275391	n/a	11282.625	largeHSmallT	correct	incongruent	0.47363	no	H	T
44.54638672	n/a	11403.875	responseLargeH	correct	n/a	0.47363	no	n/a	n/a
45.61962891	n/a	11678.625	largeTSmallT	correct	congruent	0.45508	no	T	T
46.07470703	n/a	11795.125	responseLargeT	correct	n/a	0.45508	no	n/a	n/a
47.15283203	n/a	12071.125	largeHSmallT	correct	incongruent	0.44531	no	H	T
47.59814453	n/a	12185.125	responseLargeH	correct	n/a	0.44531	no	n/a	n/a
48.65966797	n/a	12456.875	largeTSmallH	correct	incongruent	0.44434	no	T	H
49.10400391	n/a	12570.625	responseLargeT	correct	n/a	0.44434	no	n/a	n/a
50.1796875	n/a	12846	largeTSmallH	correct	incongruent	0.4707	no	T	H
50.65039062	n/a	12966.5	responseLargeT	correct	n/a	0.4707	no	n/a	n/a
51.72607422	n/a	13241.875	largeTSmallT	correct	congruent	0.54639	no	T	T
52.27246094	n/a	13381.75	responseLargeT	correct	n/a	0.54639	no	n/a	n/a
53.33935547	n/a	13654.875	largeTSmallH	correct	incongruent	0.38672	no	T	H
53.72607422	n/a	13753.875	responseLargeT	correct	n/a	0.38672	no	n/a	n/a
54.79248047	n/a	14026.875	largeTSmallT	correct	congruent	0.4292	no	T	T
55.22167969	n/a	14136.75	responseLargeT	correct	n/a	0.4292	no	n/a	n/a
56.29931641	n/a	14412.625	largeTSmallH	correct	incongruent	0.41211	no	T	H
56.71142578	n/a	14518.125	responseLargeT	correct	n/a	0.41211	no	n/a	n/a
57.77929688	n/a	14791.5	largeHSmallH	correct	congruent	0.4126	no	H	H
58.19189453	n/a	14897.125	responseLargeH	correct	n/a	0.4126	no	n/a	n/a
59.25927734	n/a	15170.375	largeHSmallH	correct	congruent	0.40234	no	H	H
59.66162109	n/a	15273.375	responseLargeH	correct	n/a	0.40234	no	n/a	n/a
60.73925781	n/a	15549.25	largeTSmallH	error	incongruent	0.40137	no	T	H
61.140625	n/a	15652	responseLargeH	error	n/a	0.40137	no	n/a	n/a
62.20605469	n/a	15924.75	largeHSmallT	correct	incongruent	0.45166	no	H	T
62.65771484	n/a	16040.375	responseLargeH	correct	n/a	0.45166	no	n/a	n/a
63.73876953	n/a	16317.125	largeHSmallT	correct	incongruent	0.46826	no	H	T
64.20703125	n/a	16437	responseLargeH	correct	n/a	0.46826	no	n/a	n/a
65.27246094	n/a	16709.75	largeTSmallH	correct	incongruent	0.50928	no	T	H
65.78173828	n/a	16840.125	responseLargeT	correct	n/a	0.50928	no	n/a	n/a
66.85888672	n/a	17115.875	largeTSmallH	correct	incongruent	0.4126	no	T	H
67.27148438	n/a	17221.5	responseLargeT	correct	n/a	0.4126	no	n/a	n/a
68.33886719	n/a	17494.75	largeHSmallH	correct	congruent	0.46191	no	H	H
68.80078125	n/a	17613	responseLargeH	correct	n/a	0.46191	no	n/a	n/a
69.859375	n/a	17884	largeTSmallH	correct	incongruent	0.48926	no	T	H
70.34863281	n/a	18009.25	responseLargeT	correct	n/a	0.48926	no	n/a	n/a
71.43212891	n/a	18286.625	largeTSmallT	correct	congruent	0.38672	no	T	T
71.81884766	n/a	18385.625	responseLargeT	correct	n/a	0.38672	no	n/a	n/a
72.88574219	n/a	18658.75	largeHSmallT	correct	incongruent	0.45801	no	H	T
73.34375	n/a	18776	responseLargeH	correct	n/a	0.45801	no	n/a	n/a
74.41894531	n/a	19051.25	largeTSmallH	correct	incongruent	0.42383	no	T	H
74.84277344	n/a	19159.75	responseLargeT	correct	n/a	0.42383	no	n/a	n/a
75.91210938	n/a	19433.5	largeHSmallH	correct	congruent	0.44189	no	H	H
76.35400391	n/a	19546.625	responseLargeH	correct	n/a	0.44189	no	n/a	n/a
77.43212891	n/a	19822.625	largeTSmallT	correct	congruent	0.38916	no	T	T
77.82128906	n/a	19922.25	responseLargeT	correct	n/a	0.38916	no	n/a	n/a
78.89892578	n/a	20198.125	largeTSmallT	correct	congruent	0.47119	no	T	T
79.37011719	n/a	20318.75	responseLargeT	correct	n/a	0.47119	no	n/a	n/a
80.4453125	n/a	20594	largeTSmallT	correct	congruent	0.43359	no	T	T
80.87890625	n/a	20705	responseLargeT	correct	n/a	0.43359	no	n/a	n/a
81.95214844	n/a	20979.75	largeTSmallT	correct	congruent	0.48389	no	T	T
82.43603516	n/a	21103.625	responseLargeT	correct	n/a	0.48389	no	n/a	n/a
83.49853516	n/a	21375.625	largeTSmallH	correct	incongruent	0.4126	no	T	H
83.91113281	n/a	21481.25	responseLargeT	correct	n/a	0.4126	no	n/a	n/a
84.97851562	n/a	21754.5	largeHSmallT	correct	incongruent	0.51221	no	H	T
85.49072266	n/a	21885.625	responseLargeH	correct	n/a	0.51221	no	n/a	n/a
86.55175781	n/a	22157.25	largeHSmallH	correct	congruent	0.41699	no	H	H
86.96875	n/a	22264	responseLargeH	correct	n/a	0.41699	no	n/a	n/a
88.04492188	n/a	22539.5	largeTSmallH	correct	incongruent	0.44678	no	T	H
88.49169922	n/a	22653.875	responseLargeT	correct	n/a	0.44678	no	n/a	n/a
89.56494141	n/a	22928.625	largeTSmallH	correct	incongruent	0.40674	no	T	H
89.97167969	n/a	23032.75	responseLargeT	correct	n/a	0.40674	no	n/a	n/a
91.04492188	n/a	23307.5	largeHSmallH	correct	congruent	0.43359	no	H	H
91.47851562	n/a	23418.5	responseLargeH	correct	n/a	0.43359	no	n/a	n/a
92.55175781	n/a	23693.25	largeHSmallT	correct	incongruent	1.1221	no	H	T
93.67382812	n/a	23980.5	responseLargeH	correct	n/a	1.1221	no	n/a	n/a
94.75195312	n/a	24256.5	largeTSmallH	correct	incongruent	0.53564	no	T	H
95.28759766	n/a	24393.625	responseLargeT	correct	n/a	0.53564	no	n/a	n/a
96.3515625	n/a	24666	largeHSmallT	correct	incongruent	0.48877	no	H	T
96.84033203	n/a	24791.125	responseLargeH	correct	n/a	0.48877	no	n/a	n/a
97.91162109	n/a	25065.375	largeTSmallH	correct	incongruent	0.41748	no	T	H
98.32910156	n/a	25172.25	responseLargeT	correct	n/a	0.41748	no	n/a	n/a
99.39160156	n/a	25444.25	largeTSmallT	correct	congruent	0.39209	no	T	T
99.78369141	n/a	25544.625	responseLargeT	correct	n/a	0.39209	no	n/a	n/a
100.8579102	n/a	25819.625	largeTSmallH	correct	incongruent	0.37988	no	T	H
101.237793	n/a	25916.875	responseLargeT	correct	n/a	0.37988	no	n/a	n/a
102.3115234	n/a	26191.75	largeHSmallT	error	incongruent	0.43115	no	H	T
102.7426758	n/a	26302.125	responseLargeT	error	n/a	0.43115	no	n/a	n/a
103.8046875	n/a	26574	largeTSmallH	correct	incongruent	0.41699	no	T	H
104.2216797	n/a	26680.75	responseLargeT	correct	n/a	0.41699	no	n/a	n/a
105.2978516	n/a	26956.25	largeHSmallT	correct	incongruent	0.479	no	H	T
105.7768555	n/a	27078.875	responseLargeH	correct	n/a	0.479	no	n/a	n/a
106.8579102	n/a	27355.625	largeHSmallH	correct	congruent	0.45752	no	H	H
107.3154297	n/a	27472.75	responseLargeH	correct	n/a	0.45752	no	n/a	n/a
108.3779297	n/a	27744.75	largeHSmallT	correct	incongruent	0.4668	no	H	T
108.8447266	n/a	27864.25	responseLargeH	correct	n/a	0.4668	no	n/a	n/a
109.9111328	n/a	28137.25	largeTSmallH	correct	incongruent	0.42773	no	T	H
110.3388672	n/a	28246.75	responseLargeT	correct	n/a	0.42773	no	n/a	n/a
111.4047852	n/a	28519.625	largeTSmallH	correct	incongruent	0.37061	no	T	H
111.7753906	n/a	28614.5	responseLargeT	correct	n/a	0.37061	no	n/a	n/a
112.8442383	n/a	28888.125	largeTSmallH	correct	incongruent	0.43506	no	T	H
113.2792969	n/a	28999.5	responseLargeT	correct	n/a	0.43506	no	n/a	n/a
114.3510742	n/a	29273.875	largeTSmallT	correct	congruent	0.42236	no	T	T
114.7734375	n/a	29382	responseLargeT	correct	n/a	0.42236	no	n/a	n/a
115.8310547	n/a	29652.75	largeTSmallT	correct	congruent	0.46582	no	T	T
116.296875	n/a	29772	responseLargeT	correct	n/a	0.46582	no	n/a	n/a
117.3642578	n/a	30045.25	largeHSmallH	correct	congruent	0.45166	no	H	H
117.815918	n/a	30160.875	responseLargeH	correct	n/a	0.45166	no	n/a	n/a
118.8842773	n/a	30434.375	largeHSmallH	correct	congruent	0.3667	no	H	H
119.2509766	n/a	30528.25	responseLargeH	correct	n/a	0.3667	no	n/a	n/a
120.3110352	n/a	30799.625	largeHSmallT	correct	incongruent	0.39893	no	H	T
120.7099609	n/a	30901.75	responseLargeH	correct	n/a	0.39893	no	n/a	n/a
121.7773438	n/a	31175	largeTSmallT	correct	congruent	0.32812	no	T	T
122.1054688	n/a	31259	responseLargeT	correct	n/a	0.32812	no	n/a	n/a
123.1645508	n/a	31530.125	largeHSmallH	error	congruent	0.38428	no	H	H
123.5488281	n/a	31628.5	responseLargeT	error	n/a	0.38428	no	n/a	n/a
124.6176758	n/a	31902.125	largeHSmallH	correct	congruent	0.51367	no	H	H
125.1313477	n/a	32033.625	responseLargeH	correct	n/a	0.51367	no	n/a	n/a
126.190918	n/a	32304.875	largeTSmallT	correct	congruent	0.55225	no	T	T
126.7431641	n/a	32446.25	responseLargeT	correct	n/a	0.55225	no	n/a	n/a
127.8173828	n/a	32721.25	largeHSmallH	correct	congruent	0.50879	no	H	H
128.3261719	n/a	32851.5	responseLargeH	correct	n/a	0.50879	no	n/a	n/a
129.3916016	n/a	33124.25	largeHSmallT	correct	incongruent	0.52246	no	H	T
129.9140625	n/a	33258	responseLargeH	correct	n/a	0.52246	no	n/a	n/a
130.9907227	n/a	33533.625	largeHSmallT	correct	incongruent	0.73486	no	H	T
131.7255859	n/a	33721.75	responseLargeH	correct	n/a	0.73486	no	n/a	n/a
132.7905273	n/a	33994.375	largeHSmallH	correct	congruent	0.48291	no	H	H
133.2734375	n/a	34118	responseLargeH	correct	n/a	0.48291	no	n/a	n/a
134.3374023	n/a	34390.375	largeHSmallH	correct	congruent	0.46777	no	H	H
134.8051758	n/a	34510.125	responseLargeH	correct	n/a	0.46777	no	n/a	n/a
135.8837891	n/a	34786.25	largeTSmallH	correct	incongruent	0.50635	no	T	H
136.3901367	n/a	34915.875	responseLargeT	correct	n/a	0.50635	no	n/a	n/a
137.4570312	n/a	35189	largeHSmallT	correct	incongruent	0.38818	no	H	T
137.8452148	n/a	35288.375	responseLargeH	correct	n/a	0.38818	no	n/a	n/a
138.9106445	n/a	35561.125	largeTSmallH	correct	incongruent	0.39209	no	T	H
139.3027344	n/a	35661.5	responseLargeT	correct	n/a	0.39209	no	n/a	n/a
140.3769531	n/a	35936.5	largeHSmallH	correct	congruent	0.44141	no	H	H
140.8183594	n/a	36049.5	responseLargeH	correct	n/a	0.44141	no	n/a	n/a
141.8969727	n/a	36325.625	largeTSmallH	correct	incongruent	0.6416	no	T	H
142.5385742	n/a	36489.875	responseLargeT	correct	n/a	0.6416	no	n/a	n/a
143.6035156	n/a	36762.5	largeHSmallH	correct	congruent	0.50928	no	H	H
144.112793	n/a	36892.875	responseLargeH	correct	n/a	0.50928	no	n/a	n/a
145.1772461	n/a	37165.375	largeTSmallT	correct	congruent	0.5415	no	T	T
145.71875	n/a	37304	responseLargeT	correct	n/a	0.5415	no	n/a	n/a
146.7900391	n/a	37578.25	largeHSmallT	correct	incongruent	0.46436	no	H	T
147.2543945	n/a	37697.125	responseLargeH	correct	n/a	0.46436	no	n/a	n/a
148.3105469	n/a	37967.5	largeHSmallH	correct	congruent	0.38477	no	H	H
148.6953125	n/a	38066	responseLargeH	correct	n/a	0.38477	no	n/a	n/a
149.7636719	n/a	38339.5	largeHSmallT	correct	incongruent	0.44629	no	H	T
150.2099609	n/a	38453.75	responseLargeH	correct	n/a	0.44629	no	n/a	n/a
151.2836914	n/a	38728.625	largeTSmallH	correct	incongruent	0.34766	no	T	H
151.6313477	n/a	38817.625	responseLargeT	correct	n/a	0.34766	no	n/a	n/a
152.6967773	n/a	39090.375	largeHSmallH	correct	congruent	0.47607	no	H	H
153.1728516	n/a	39212.25	responseLargeH	correct	n/a	0.47607	no	n/a	n/a
154.2431641	n/a	39486.25	largeHSmallH	correct	congruent	0.46777	no	H	H
154.7109375	n/a	39606	responseLargeH	correct	n/a	0.46777	no	n/a	n/a
155.7900391	n/a	39882.25	largeTSmallH	correct	incongruent	0.40576	no	T	H
156.1958008	n/a	39986.125	responseLargeT	correct	n/a	0.40576	no	n/a	n/a
157.2700195	n/a	40261.125	largeTSmallT	correct	congruent	0.44775	no	T	T
157.7177734	n/a	40375.75	responseLargeT	correct	n/a	0.44775	no	n/a	n/a
158.7900391	n/a	40650.25	largeTSmallT	correct	congruent	0.46338	no	T	T
159.253418	n/a	40768.875	responseLargeT	correct	n/a	0.46338	no	n/a	n/a
160.3232422	n/a	41042.75	largeTSmallT	correct	congruent	0.42871	no	T	T
160.7519531	n/a	41152.5	responseLargeT	correct	n/a	0.42871	no	n/a	n/a
161.8300781	n/a	41428.5	largeTSmallT	correct	congruent	0.39111	no	T	T
162.2211914	n/a	41528.625	responseLargeT	correct	n/a	0.39111	no	n/a	n/a
163.2963867	n/a	41803.875	largeHSmallT	correct	incongruent	0.6377	no	H	T
163.934082	n/a	41967.125	responseLargeH	correct	n/a	0.6377	no	n/a	n/a
165.0166016	n/a	42244.25	largeHSmallT	correct	incongruent	0.45361	no	H	T
165.4702148	n/a	42360.375	responseLargeH	correct	n/a	0.45361	no	n/a	n/a
166.5366211	n/a	42633.375	largeTSmallH	correct	incongruent	0.44873	no	T	H
166.9853516	n/a	42748.25	responseLargeT	correct	n/a	0.44873	no	n/a	n/a
168.0561523	n/a	43022.375	largeTSmallT	correct	congruent	0.46924	no	T	T
168.5253906	n/a	43142.5	responseLargeT	correct	n/a	0.46924	no	n/a	n/a
169.5898438	n/a	43415	largeTSmallH	correct	incongruent	0.40527	no	T	H
169.9951172	n/a	43518.75	responseLargeT	correct	n/a	0.40527	no	n/a	n/a
171.0566406	n/a	43790.5	largeHSmallT	correct	incongruent	0.50439	no	H	T
171.5610352	n/a	43919.625	responseLargeH	correct	n/a	0.50439	no	n/a	n/a
172.6430664	n/a	44196.625	largeTSmallT	correct	congruent	0.38086	no	T	T
173.0239258	n/a	44294.125	responseLargeT	correct	n/a	0.38086	no	n/a	n/a
174.0830078	n/a	44565.25	largeHSmallT	correct	incongruent	0.39551	no	H	T
174.4785156	n/a	44666.5	responseLargeH	correct	n/a	0.39551	no	n/a	n/a
175.5493164	n/a	44940.625	largeHSmallT	correct	incongruent	0.45508	no	H	T
176.0043945	n/a	45057.125	responseLargeH	correct	n/a	0.45508	no	n/a	n/a
177.0693359	n/a	45329.75	largeTSmallT	correct	congruent	0.51465	no	T	T
177.5839844	n/a	45461.5	responseLargeT	correct	n/a	0.51465	no	n/a	n/a
178.65625	n/a	45736	largeTSmallH	correct	incongruent	0.3877	no	T	H
179.0439453	n/a	45835.25	responseLargeT	correct	n/a	0.3877	no	n/a	n/a
180.109375	n/a	46108	largeTSmallT	correct	congruent	0.4707	no	T	T
180.5800781	n/a	46228.5	responseLargeT	correct	n/a	0.4707	no	n/a	n/a
181.6557617	n/a	46503.875	largeTSmallT	correct	congruent	0.44482	no	T	T
182.1005859	n/a	46617.75	responseLargeT	correct	n/a	0.44482	no	n/a	n/a
183.1625977	n/a	46889.625	largeTSmallT	correct	congruent	0.38037	no	T	T
183.5429688	n/a	46987	responseLargeT	correct	n/a	0.38037	no	n/a	n/a
184.6157227	n/a	47261.625	largeTSmallT	correct	congruent	0.41113	no	T	T
185.0268555	n/a	47366.875	responseLargeT	correct	n/a	0.41113	no	n/a	n/a
186.0961914	n/a	47640.625	largeHSmallH	correct	congruent	0.43262	no	H	H
186.5288086	n/a	47751.375	responseLargeH	correct	n/a	0.43262	no	n/a	n/a
187.6025391	n/a	48026.25	largeHSmallT	correct	incongruent	0.37744	no	H	T
187.9799805	n/a	48122.875	responseLargeH	correct	n/a	0.37744	no	n/a	n/a
189.0424805	n/a	48394.875	largeHSmallH	correct	congruent	0.43213	no	H	H
189.4746094	n/a	48505.5	responseLargeH	correct	n/a	0.43213	no	n/a	n/a
190.5488281	n/a	48780.5	largeHSmallT	correct	incongruent	0.39551	no	H	T
190.9443359	n/a	48881.75	responseLargeH	correct	n/a	0.39551	no	n/a	n/a
192.015625	n/a	49156	largeTSmallH	correct	incongruent	0.47021	no	T	H
192.4858398	n/a	49276.375	responseLargeT	correct	n/a	0.47021	no	n/a	n/a
193.5625	n/a	49552	largeHSmallH	error	congruent	0.38574	no	H	H
193.9482422	n/a	49650.75	responseLargeT	error	n/a	0.38574	no	n/a	n/a
195.0288086	n/a	49927.375	largeHSmallT	correct	incongruent	0.53857	no	H	T
195.5673828	n/a	50065.25	responseLargeH	correct	n/a	0.53857	no	n/a	n/a
196.6420898	n/a	50340.375	largeTSmallH	correct	incongruent	0.40967	no	T	H
197.0517578	n/a	50445.25	responseLargeT	correct	n/a	0.40967	no	n/a	n/a
198.1225586	n/a	50719.375	largeTSmallH	correct	incongruent	0.34961	no	T	H
198.472168	n/a	50808.875	responseLargeT	correct	n/a	0.34961	no	n/a	n/a
199.5488281	n/a	51084.5	largeTSmallH	correct	incongruent	0.47803	no	T	H
200.0268555	n/a	51206.875	responseLargeT	correct	n/a	0.47803	no	n/a	n/a
201.0957031	n/a	51480.5	largeHSmallH	correct	congruent	0.41211	no	H	H
201.5078125	n/a	51586	responseLargeH	correct	n/a	0.41211	no	n/a	n/a
202.5751953	n/a	51859.25	largeHSmallT	correct	incongruent	0.39404	no	H	T
202.9692383	n/a	51960.125	responseLargeH	correct	n/a	0.39404	no	n/a	n/a
204.0419922	n/a	52234.75	largeHSmallT	correct	incongruent	0.44727	no	H	T
204.4892578	n/a	52349.25	responseLargeH	correct	n/a	0.44727	no	n/a	n/a
205.5488281	n/a	52620.5	largeHSmallH	correct	congruent	0.58008	no	H	H
206.1289062	n/a	52769	responseLargeH	correct	n/a	0.58008	no	n/a	n/a
207.2021484	n/a	53043.75	largeTSmallH	correct	incongruent	0.4458	no	T	H
207.6479492	n/a	53157.875	responseLargeT	correct	n/a	0.4458	no	n/a	n/a
208.722168	n/a	53432.875	largeHSmallH	correct	congruent	0.44775	no	H	H
209.1699219	n/a	53547.5	responseLargeH	correct	n/a	0.44775	no	n/a	n/a
210.2290039	n/a	53818.625	largeHSmallT	correct	incongruent	0.40234	no	H	T
210.6313477	n/a	53921.625	responseLargeH	correct	n/a	0.40234	no	n/a	n/a
211.6953125	n/a	54194	largeTSmallT	correct	congruent	0.33203	no	T	T
212.0273438	n/a	54279	responseLargeT	correct	n/a	0.33203	no	n/a	n/a
213.1083984	n/a	54555.75	largeTSmallT	correct	congruent	0.4917	no	T	T
213.6000977	n/a	54681.625	responseLargeT	correct	n/a	0.4917	no	n/a	n/a
214.668457	n/a	54955.125	largeHSmallH	correct	congruent	0.42969	no	H	H
215.0981445	n/a	55065.125	responseLargeH	correct	n/a	0.42969	no	n/a	n/a
216.1616211	n/a	55337.375	largeTSmallH	error	incongruent	0.38574	no	T	H
216.5473633	n/a	55436.125	responseLargeH	error	n/a	0.38574	no	n/a	n/a
217.6152344	n/a	55709.5	largeTSmallT	correct	congruent	0.50928	no	T	T
218.1245117	n/a	55839.875	responseLargeT	correct	n/a	0.50928	no	n/a	n/a
219.1884766	n/a	56112.25	largeHSmallH	correct	congruent	0.41895	no	H	H
219.6074219	n/a	56219.5	responseLargeH	correct	n/a	0.41895	no	n/a	n/a
220.668457	n/a	56491.125	largeTSmallH	correct	incongruent	0.45361	no	T	H
221.1220703	n/a	56607.25	responseLargeT	correct	n/a	0.45361	no	n/a	n/a
222.2016602	n/a	56883.625	largeHSmallT	correct	incongruent	0.625	no	H	T
222.8266602	n/a	57043.625	responseLargeH	correct	n/a	0.625	no	n/a	n/a
223.9082031	n/a	57320.5	largeHSmallH	correct	congruent	0.48438	no	H	H
224.3925781	n/a	57444.5	responseLargeH	correct	n/a	0.48438	no	n/a	n/a
225.4550781	n/a	57716.5	largeTSmallT	correct	congruent	0.46387	no	T	T
225.9189453	n/a	57835.25	responseLargeT	correct	n/a	0.46387	no	n/a	n/a
226.9882812	n/a	58109	largeHSmallH	correct	congruent	0.51953	no	H	H
227.5078125	n/a	58242	responseLargeH	correct	n/a	0.51953	no	n/a	n/a
228.5751953	n/a	58515.25	largeHSmallT	correct	incongruent	0.48096	no	H	T
229.0561523	n/a	58638.375	responseLargeH	correct	n/a	0.48096	no	n/a	n/a
230.121582	n/a	58911.125	largeHSmallH	correct	congruent	0.47803	no	H	H
230.5996094	n/a	59033.5	responseLargeH	correct	n/a	0.47803	no	n/a	n/a
231.6679688	n/a	59307	largeTSmallT	correct	congruent	0.43799	no	T	T
232.105957	n/a	59419.125	responseLargeT	correct	n/a	0.43799	no	n/a	n/a
233.1879883	n/a	59696.125	largeHSmallH	correct	congruent	0.37598	no	H	H
233.5639648	n/a	59792.375	responseLargeH	correct	n/a	0.37598	no	n/a	n/a
234.6279297	n/a	60064.75	largeTSmallT	correct	congruent	0.45068	no	T	T
235.0786133	n/a	60180.125	responseLargeT	correct	n/a	0.45068	no	n/a	n/a
236.1479492	n/a	60453.875	largeHSmallT	correct	incongruent	0.47314	no	H	T
236.6210938	n/a	60575	responseLargeH	correct	n/a	0.47314	no	n/a	n/a
237.6948242	n/a	60849.875	largeHSmallH	correct	congruent	0.41846	no	H	H
238.1132812	n/a	60957	responseLargeH	correct	n/a	0.41846	no	n/a	n/a
239.1879883	n/a	61232.125	largeTSmallH	correct	incongruent	0.52637	no	T	H
239.7143555	n/a	61366.875	responseLargeT	correct	n/a	0.52637	no	n/a	n/a
240.7744141	n/a	61638.25	largeTSmallH	correct	incongruent	0.47363	no	T	H
241.2480469	n/a	61759.5	responseLargeT	correct	n/a	0.47363	no	n/a	n/a
242.3212891	n/a	62034.25	largeHSmallT	correct	incongruent	0.57568	no	H	T
242.8969727	n/a	62181.625	responseLargeH	correct	n/a	0.57568	no	n/a	n/a
243.9609375	n/a	62454	largeHSmallH	correct	congruent	0.37109	no	H	H
244.3320312	n/a	62549	responseLargeH	correct	n/a	0.37109	no	n/a	n/a
245.4008789	n/a	62822.625	largeTSmallT	correct	congruent	0.35693	no	T	T
245.7578125	n/a	62914	responseLargeT	correct	n/a	0.35693	no	n/a	n/a
246.8276367	n/a	63187.875	largeHSmallH	correct	congruent	0.40967	no	H	H
247.2373047	n/a	63292.75	responseLargeH	correct	n/a	0.40967	no	n/a	n/a
248.3076172	n/a	63566.75	largeTSmallT	correct	congruent	0.4707	no	T	T
248.7783203	n/a	63687.25	responseLargeT	correct	n/a	0.4707	no	n/a	n/a
249.8408203	n/a	63959.25	largeHSmallH	correct	congruent	0.45361	no	H	H
250.2944336	n/a	64075.375	responseLargeH	correct	n/a	0.45361	no	n/a	n/a
251.3745117	n/a	64351.875	largeTSmallT	correct	congruent	0.42139	no	T	T
251.7958984	n/a	64459.75	responseLargeT	correct	n/a	0.42139	no	n/a	n/a
252.8676758	n/a	64734.125	largeTSmallT	correct	congruent	0.43018	no	T	T
253.2978516	n/a	64844.25	responseLargeT	correct	n/a	0.43018	no	n/a	n/a
254.3608398	n/a	65116.375	largeHSmallT	correct	incongruent	0.36914	no	H	T
254.7299805	n/a	65210.875	responseLargeH	correct	n/a	0.36914	no	n/a	n/a
255.8007812	n/a	65485	largeHSmallH	correct	congruent	0.53223	no	H	H
256.3330078	n/a	65621.25	responseLargeH	correct	n/a	0.53223	no	n/a	n/a
257.4140625	n/a	65898	largeHSmallT	correct	incongruent	0.5376	no	H	T
257.9516602	n/a	66035.625	responseLargeH	correct	n/a	0.5376	no	n/a	n/a
259.0141602	n/a	66307.625	largeTSmallT	correct	congruent	0.41016	no	T	T
259.4243164	n/a	66412.625	responseLargeT	correct	n/a	0.41016	no	n/a	n/a
260.4936523	n/a	66686.375	largeTSmallH	correct	incongruent	0.5293	no	T	H
261.0229492	n/a	66821.875	responseLargeT	correct	n/a	0.5293	no	n/a	n/a
262.0810547	n/a	67092.75	largeHSmallT	correct	incongruent	0.36426	no	H	T
262.4453125	n/a	67186	responseLargeH	correct	n/a	0.36426	no	n/a	n/a
263.5205078	n/a	67461.25	largeTSmallT	correct	congruent	0.37598	no	T	T
263.8964844	n/a	67557.5	responseLargeT	correct	n/a	0.37598	no	n/a	n/a
264.9736328	n/a	67833.25	largeTSmallH	correct	incongruent	0.55957	no	T	H
265.5332031	n/a	67976.5	responseLargeT	correct	n/a	0.55957	no	n/a	n/a
266.6005859	n/a	68249.75	largeHSmallT	correct	incongruent	0.46875	no	H	T
267.0693359	n/a	68369.75	responseLargeH	correct	n/a	0.46875	no	n/a	n/a
268.1469727	n/a	68645.625	largeHSmallH	correct	congruent	1.1333	no	H	H
269.2802734	n/a	68935.75	responseLargeH	correct	n/a	1.1333	no	n/a	n/a
270.3603516	n/a	69212.25	largeTSmallH	correct	incongruent	0.56689	no	T	H
270.9272461	n/a	69357.375	responseLargeT	correct	n/a	0.56689	no	n/a	n/a
272	n/a	69632	largeTSmallH	correct	incongruent	0.43799	no	T	H
272.4379883	n/a	69744.125	responseLargeT	correct	n/a	0.43799	no	n/a	n/a
273.5068359	n/a	70017.75	largeTSmallT	correct	congruent	0.45654	no	T	T
273.9633789	n/a	70134.625	responseLargeT	correct	n/a	0.45654	no	n/a	n/a
275.0400391	n/a	70410.25	largeHSmallT	correct	incongruent	0.54932	no	H	T
275.5893555	n/a	70550.875	responseLargeH	correct	n/a	0.54932	no	n/a	n/a
276.6533203	n/a	70823.25	largeHSmallT	correct	incongruent	0.46582	no	H	T
277.1191406	n/a	70942.5	responseLargeH	correct	n/a	0.46582	no	n/a	n/a
278.1870117	n/a	71215.875	largeTSmallT	correct	congruent	0.50195	no	T	T
278.6889648	n/a	71344.375	responseLargeT	correct	n/a	0.50195	no	n/a	n/a
279.7602539	n/a	71618.625	largeHSmallT	correct	incongruent	0.44434	no	H	T
280.2045898	n/a	71732.375	responseLargeH	correct	n/a	0.44434	no	n/a	n/a
281.2797852	n/a	72007.625	largeTSmallH	correct	incongruent	0.43896	no	T	H
281.71875	n/a	72120	responseLargeT	correct	n/a	0.43896	no	n/a	n/a
282.7866211	n/a	72393.375	largeHSmallT	correct	incongruent	0.44775	no	H	T
283.234375	n/a	72508	responseLargeH	correct	n/a	0.44775	no	n/a	n/a
284.3066406	n/a	72782.5	largeHSmallH	correct	congruent	0.43164	no	H	H
284.7382812	n/a	72893	responseLargeH	correct	n/a	0.43164	no	n/a	n/a
285.8134766	n/a	73168.25	largeTSmallT	correct	congruent	0.48047	no	T	T
286.2939453	n/a	73291.25	responseLargeT	correct	n/a	0.48047	no	n/a	n/a
287.3598633	n/a	73564.125	largeTSmallH	correct	incongruent	0.56299	no	T	H
287.9228516	n/a	73708.25	responseLargeT	correct	n/a	0.56299	no	n/a	n/a
289	n/a	73984	largeTSmallH	correct	incongruent	0.45508	no	T	H
289.4550781	n/a	74100.5	responseLargeT	correct	n/a	0.45508	no	n/a	n/a
290.5332031	n/a	74376.5	largeTSmallT	correct	congruent	0.40332	no	T	T
290.9365234	n/a	74479.75	responseLargeT	correct	n/a	0.40332	no	n/a	n/a
292.0131836	n/a	74755.375	largeHSmallH	correct	congruent	0.40918	no	H	H
292.4223633	n/a	74860.125	responseLargeH	correct	n/a	0.40918	no	n/a	n/a
293.4931641	n/a	75134.25	largeHSmallH	correct	congruent	0.4248	no	H	H
293.9179688	n/a	75243	responseLargeH	correct	n/a	0.4248	no	n/a	n/a
294.9863281	n/a	75516.5	largeHSmallH	correct	congruent	0.42383	no	H	H
295.4101562	n/a	75625	responseLargeH	correct	n/a	0.42383	no	n/a	n/a
296.4926758	n/a	75902.125	largeTSmallT	correct	congruent	0.42041	no	T	T
296.9130859	n/a	76009.75	responseLargeT	correct	n/a	0.42041	no	n/a	n/a
297.9863281	n/a	76284.5	largeHSmallT	correct	incongruent	0.55127	no	H	T
298.5375977	n/a	76425.625	responseLargeH	correct	n/a	0.55127	no	n/a	n/a
299.6132812	n/a	76701	largeTSmallH	correct	incongruent	0.50684	no	T	H
300.1201172	n/a	76830.75	responseLargeT	correct	n/a	0.50684	no	n/a	n/a
301.199707	n/a	77107.125	largeHSmallH	correct	congruent	0.42139	no	H	H
301.6210938	n/a	77215	responseLargeH	correct	n/a	0.42139	no	n/a	n/a
302.6928711	n/a	77489.375	largeTSmallT	correct	congruent	0.50049	no	T	T
303.1933594	n/a	77617.5	responseLargeT	correct	n/a	0.50049	no	n/a	n/a
304.2661133	n/a	77892.125	largeHSmallH	correct	congruent	0.51562	no	H	H
304.7817383	n/a	78024.125	responseLargeH	correct	n/a	0.51562	no	n/a	n/a
305.8525391	n/a	78298.25	largeTSmallH	correct	incongruent	0.57031	no	T	H
306.4228516	n/a	78444.25	responseLargeT	correct	n/a	0.57031	no	n/a	n/a
307.5063477	n/a	78721.625	largeHSmallT	correct	incongruent	0.56543	no	H	T
308.0717773	n/a	78866.375	responseLargeH	correct	n/a	0.56543	no	n/a	n/a
309.1328125	n/a	79138	largeHSmallH	correct	congruent	0.43311	no	H	H
309.565918	n/a	79248.875	responseLargeH	correct	n/a	0.43311	no	n/a	n/a
310.6391602	n/a	79523.625	largeHSmallT	correct	incongruent	0.47412	no	H	T
311.1132812	n/a	79645	responseLargeH	correct	n/a	0.47412	no	n/a	n/a
312.1860352	n/a	79919.625	largeHSmallH	correct	congruent	0.40918	no	H	H
312.5952148	n/a	80024.375	responseLargeH	correct	n/a	0.40918	no	n/a	n/a
313.6660156	n/a	80298.5	largeTSmallT	correct	congruent	0.50635	no	T	T
314.1723633	n/a	80428.125	responseLargeT	correct	n/a	0.50635	no	n/a	n/a
315.2392578	n/a	80701.25	largeTSmallT	correct	congruent	0.46777	no	T	T
315.7070312	n/a	80821	responseLargeT	correct	n/a	0.46777	no	n/a	n/a
316.7856445	n/a	81097.125	largeTSmallT	correct	congruent	0.42969	no	T	T
317.215332	n/a	81207.125	responseLargeT	correct	n/a	0.42969	no	n/a	n/a
322.8920898	n/a	82660.375	largeTSmallT	correct	congruent	1.1685	no	T	T
324.0605469	n/a	82959.5	responseSmallT	correct	n/a	1.1685	no	n/a	n/a
325.1323242	n/a	83233.875	largeTSmallH	correct	incongruent	0.85449	no	T	H
325.9868164	n/a	83452.625	responseSmallH	correct	n/a	0.85449	no	n/a	n/a
327.0654297	n/a	83728.75	largeTSmallT	correct	congruent	0.87891	no	T	T
327.9443359	n/a	83953.75	responseSmallT	correct	n/a	0.87891	no	n/a	n/a
329.012207	n/a	84227.125	largeTSmallT	correct	congruent	0.44971	no	T	T
329.4619141	n/a	84342.25	responseSmallT	correct	n/a	0.44971	no	n/a	n/a
330.5322266	n/a	84616.25	largeHSmallT	correct	incongruent	0.72461	no	H	T
331.2568359	n/a	84801.75	responseSmallT	correct	n/a	0.72461	no	n/a	n/a
332.3320312	n/a	85077	largeHSmallT	correct	incongruent	0.56543	no	H	T
332.8974609	n/a	85221.75	responseSmallT	correct	n/a	0.56543	no	n/a	n/a
333.9716797	n/a	85496.75	largeHSmallT	correct	incongruent	0.44922	no	H	T
334.4208984	n/a	85611.75	responseSmallT	correct	n/a	0.44922	no	n/a	n/a
335.4921875	n/a	85886	largeTSmallT	correct	congruent	0.47217	no	T	T
335.9643555	n/a	86006.875	responseSmallT	correct	n/a	0.47217	no	n/a	n/a
337.0258789	n/a	86278.625	largeTSmallH	correct	incongruent	0.72021	no	T	H
337.7460938	n/a	86463	responseSmallH	correct	n/a	0.72021	no	n/a	n/a
338.8120117	n/a	86735.875	largeHSmallH	correct	congruent	0.46436	no	H	H
339.2763672	n/a	86854.75	responseSmallH	correct	n/a	0.46436	no	n/a	n/a
340.3583984	n/a	87131.75	largeTSmallH	correct	incongruent	0.57617	no	T	H
340.9345703	n/a	87279.25	responseSmallH	correct	n/a	0.57617	no	n/a	n/a
342.0117188	n/a	87555	largeTSmallT	correct	congruent	0.57031	no	T	T
342.5820312	n/a	87701	responseSmallT	correct	n/a	0.57031	no	n/a	n/a
343.6518555	n/a	87974.875	largeTSmallT	correct	congruent	0.43994	no	T	T
344.0917969	n/a	88087.5	responseSmallT	correct	n/a	0.43994	no	n/a	n/a
345.1582031	n/a	88360.5	largeHSmallT	error	incongruent	0.479	no	H	T
345.637207	n/a	88483.125	responseSmallH	error	n/a	0.479	no	n/a	n/a
346.7050781	n/a	88756.5	largeTSmallH	correct	incongruent	0.66992	no	T	H
347.375	n/a	88928	responseSmallH	correct	n/a	0.66992	no	n/a	n/a
348.4516602	n/a	89203.625	largeTSmallT	correct	congruent	0.61035	no	T	T
349.0620117	n/a	89359.875	responseSmallT	correct	n/a	0.61035	no	n/a	n/a
350.1318359	n/a	89633.75	largeTSmallT	correct	congruent	0.40186	no	T	T
350.5336914	n/a	89736.625	responseSmallT	correct	n/a	0.40186	no	n/a	n/a
351.5981445	n/a	90009.125	largeHSmallH	correct	congruent	0.46191	no	H	H
352.0600586	n/a	90127.375	responseSmallH	correct	n/a	0.46191	no	n/a	n/a
353.1313477	n/a	90401.625	largeTSmallH	correct	incongruent	0.44629	no	T	H
353.5776367	n/a	90515.875	responseSmallH	correct	n/a	0.44629	no	n/a	n/a
354.6523438	n/a	90791	largeHSmallT	correct	incongruent	0.44531	no	H	T
355.0976562	n/a	90905	responseSmallT	correct	n/a	0.44531	no	n/a	n/a
356.1713867	n/a	91179.875	largeHSmallH	correct	congruent	0.41553	no	H	H
356.5869141	n/a	91286.25	responseSmallH	correct	n/a	0.41553	no	n/a	n/a
357.6513672	n/a	91558.75	largeTSmallT	error	congruent	0.41895	no	T	T
358.0703125	n/a	91666	responseSmallH	error	n/a	0.41895	no	n/a	n/a
359.1313477	n/a	91937.625	largeHSmallT	correct	incongruent	1.2466	no	H	T
360.3779297	n/a	92256.75	responseSmallT	correct	n/a	1.2466	no	n/a	n/a
361.4511719	n/a	92531.5	largeTSmallT	correct	congruent	0.51709	no	T	T
361.9682617	n/a	92663.875	responseSmallT	correct	n/a	0.51709	no	n/a	n/a
363.0380859	n/a	92937.75	largeTSmallT	correct	congruent	0.50732	no	T	T
363.5454102	n/a	93067.625	responseSmallT	correct	n/a	0.50732	no	n/a	n/a
364.6113281	n/a	93340.5	largeHSmallT	correct	incongruent	0.50391	no	H	T
365.1152344	n/a	93469.5	responseSmallT	correct	n/a	0.50391	no	n/a	n/a
366.1845703	n/a	93743.25	largeHSmallT	correct	incongruent	0.43164	no	H	T
366.6162109	n/a	93853.75	responseSmallT	correct	n/a	0.43164	no	n/a	n/a
367.6777344	n/a	94125.5	largeHSmallH	correct	congruent	0.41357	no	H	H
368.0913086	n/a	94231.375	responseSmallH	correct	n/a	0.41357	no	n/a	n/a
369.1708984	n/a	94507.75	largeTSmallT	correct	congruent	0.46143	no	T	T
369.6323242	n/a	94625.875	responseSmallT	correct	n/a	0.46143	no	n/a	n/a
370.690918	n/a	94896.875	largeTSmallT	correct	congruent	0.43359	no	T	T
371.1245117	n/a	95007.875	responseSmallT	correct	n/a	0.43359	no	n/a	n/a
372.1977539	n/a	95282.625	largeTSmallH	correct	incongruent	0.5127	no	T	H
372.7104492	n/a	95413.875	responseSmallH	correct	n/a	0.5127	no	n/a	n/a
373.7841797	n/a	95688.75	largeTSmallT	correct	congruent	0.55908	no	T	T
374.3432617	n/a	95831.875	responseSmallT	correct	n/a	0.55908	no	n/a	n/a
375.4111328	n/a	96105.25	largeHSmallT	correct	incongruent	0.42969	no	H	T
375.8408203	n/a	96215.25	responseSmallT	correct	n/a	0.42969	no	n/a	n/a
376.9042969	n/a	96487.5	largeHSmallT	correct	incongruent	0.40234	no	H	T
377.3066406	n/a	96590.5	responseSmallT	correct	n/a	0.40234	no	n/a	n/a
378.3710938	n/a	96863	largeHSmallH	correct	congruent	0.61914	no	H	H
378.9902344	n/a	97021.5	responseSmallH	correct	n/a	0.61914	no	n/a	n/a
380.0507812	n/a	97293	largeHSmallH	correct	congruent	0.43799	no	H	H
380.4887695	n/a	97405.125	responseSmallH	correct	n/a	0.43799	no	n/a	n/a
381.5571289	n/a	97678.625	largeTSmallT	correct	congruent	0.68799	no	T	T
382.2451172	n/a	97854.75	responseSmallT	correct	n/a	0.68799	no	n/a	n/a
383.3173828	n/a	98129.25	largeTSmallT	correct	congruent	0.42334	no	T	T
383.7407227	n/a	98237.625	responseSmallT	correct	n/a	0.42334	no	n/a	n/a
384.8105469	n/a	98511.5	largeTSmallT	correct	congruent	0.4502	no	T	T
385.2607422	n/a	98626.75	responseSmallT	correct	n/a	0.4502	no	n/a	n/a
386.3305664	n/a	98900.625	largeHSmallT	error	incongruent	0.38916	no	H	T
386.7197266	n/a	99000.25	responseSmallH	error	n/a	0.38916	no	n/a	n/a
387.7973633	n/a	99276.125	largeTSmallT	correct	congruent	0.4541	no	T	T
388.2514648	n/a	99392.375	responseSmallT	correct	n/a	0.4541	no	n/a	n/a
389.3173828	n/a	99665.25	largeTSmallH	correct	incongruent	0.48633	no	T	H
389.8037109	n/a	99789.75	responseSmallH	correct	n/a	0.48633	no	n/a	n/a
390.8774414	n/a	100064.625	largeHSmallT	correct	incongruent	0.57178	no	H	T
391.4492188	n/a	100211	responseSmallT	correct	n/a	0.57178	no	n/a	n/a
392.5170898	n/a	100484.375	largeHSmallH	correct	congruent	0.40137	no	H	H
392.918457	n/a	100587.125	responseSmallH	correct	n/a	0.40137	no	n/a	n/a
393.9838867	n/a	100859.875	largeTSmallH	correct	incongruent	0.50391	no	T	H
394.487793	n/a	100988.875	responseSmallH	correct	n/a	0.50391	no	n/a	n/a
395.5571289	n/a	101262.625	largeHSmallH	correct	congruent	0.479	no	H	H
396.0361328	n/a	101385.25	responseSmallH	correct	n/a	0.479	no	n/a	n/a
397.1035156	n/a	101658.5	largeHSmallT	correct	incongruent	0.55371	no	H	T
397.6572266	n/a	101800.25	responseSmallT	correct	n/a	0.55371	no	n/a	n/a
398.7299805	n/a	102074.875	largeHSmallT	correct	incongruent	0.45068	no	H	T
399.1806641	n/a	102190.25	responseSmallT	correct	n/a	0.45068	no	n/a	n/a
400.2636719	n/a	102467.5	largeTSmallH	error	incongruent	0.56885	no	T	H
400.8325195	n/a	102613.125	responseSmallT	error	n/a	0.56885	no	n/a	n/a
401.8901367	n/a	102883.875	largeHSmallH	correct	congruent	0.46973	no	H	H
402.3598633	n/a	103004.125	responseSmallH	correct	n/a	0.46973	no	n/a	n/a
403.4233398	n/a	103276.375	largeTSmallH	correct	incongruent	0.44385	no	T	H
403.8671875	n/a	103390	responseSmallH	correct	n/a	0.44385	no	n/a	n/a
404.9433594	n/a	103665.5	largeTSmallT	correct	congruent	0.45996	no	T	T
405.4033203	n/a	103783.25	responseSmallT	correct	n/a	0.45996	no	n/a	n/a
406.4633789	n/a	104054.625	largeHSmallH	correct	congruent	0.67578	no	H	H
407.1391602	n/a	104227.625	responseSmallH	correct	n/a	0.67578	no	n/a	n/a
408.2099609	n/a	104501.75	largeHSmallH	correct	congruent	0.68848	no	H	H
408.8984375	n/a	104678	responseSmallH	correct	n/a	0.68848	no	n/a	n/a
409.956543	n/a	104948.875	largeTSmallT	correct	congruent	0.49512	no	T	T
410.4516602	n/a	105075.625	responseSmallT	correct	n/a	0.49512	no	n/a	n/a
411.5166016	n/a	105348.25	largeHSmallH	correct	congruent	0.44629	no	H	H
411.9628906	n/a	105462.5	responseSmallH	correct	n/a	0.44629	no	n/a	n/a
413.0366211	n/a	105737.375	largeHSmallH	correct	congruent	0.42822	no	H	H
413.4648438	n/a	105847	responseSmallH	correct	n/a	0.42822	no	n/a	n/a
414.5297852	n/a	106119.625	largeTSmallH	correct	incongruent	0.56348	no	T	H
415.0932617	n/a	106263.875	responseSmallH	correct	n/a	0.56348	no	n/a	n/a
416.1699219	n/a	106539.5	largeTSmallT	correct	congruent	0.45605	no	T	T
416.6259766	n/a	106656.25	responseSmallT	correct	n/a	0.45605	no	n/a	n/a
417.703125	n/a	106932	largeHSmallH	correct	congruent	0.49316	no	H	H
418.1962891	n/a	107058.25	responseSmallH	correct	n/a	0.49316	no	n/a	n/a
419.2763672	n/a	107334.75	largeHSmallH	correct	congruent	0.40479	no	H	H
419.6811523	n/a	107438.375	responseSmallH	correct	n/a	0.40479	no	n/a	n/a
420.7563477	n/a	107713.625	largeHSmallT	correct	incongruent	0.52588	no	H	T
421.2822266	n/a	107848.25	responseSmallT	correct	n/a	0.52588	no	n/a	n/a
422.3422852	n/a	108119.625	largeHSmallT	correct	incongruent	0.5332	no	H	T
422.8754883	n/a	108256.125	responseSmallT	correct	n/a	0.5332	no	n/a	n/a
423.9428711	n/a	108529.375	largeTSmallH	correct	incongruent	0.4165	no	T	H
424.359375	n/a	108636	responseSmallH	correct	n/a	0.4165	no	n/a	n/a
425.4360352	n/a	108911.625	largeHSmallT	correct	incongruent	0.42139	no	H	T
425.8574219	n/a	109019.5	responseSmallT	correct	n/a	0.42139	no	n/a	n/a
426.9296875	n/a	109294	largeTSmallH	error	incongruent	0.41504	no	T	H
427.3447266	n/a	109400.25	responseSmallT	error	n/a	0.41504	no	n/a	n/a
428.4091797	n/a	109672.75	largeTSmallH	correct	incongruent	0.5874	no	T	H
428.996582	n/a	109823.125	responseSmallH	correct	n/a	0.5874	no	n/a	n/a
430.0761719	n/a	110099.5	largeHSmallT	correct	incongruent	0.50146	no	H	T
430.5776367	n/a	110227.875	responseSmallT	correct	n/a	0.50146	no	n/a	n/a
431.6494141	n/a	110502.25	largeHSmallT	correct	incongruent	0.53125	no	H	T
432.1806641	n/a	110638.25	responseSmallT	correct	n/a	0.53125	no	n/a	n/a
433.2490234	n/a	110911.75	largeHSmallT	correct	incongruent	0.4502	no	H	T
433.6992188	n/a	111027	responseSmallT	correct	n/a	0.4502	no	n/a	n/a
434.7695312	n/a	111301	largeHSmallH	correct	congruent	0.47803	no	H	H
435.2475586	n/a	111423.375	responseSmallH	correct	n/a	0.47803	no	n/a	n/a
436.3291016	n/a	111700.25	largeTSmallT	correct	congruent	0.42822	no	T	T
436.7573242	n/a	111809.875	responseSmallT	correct	n/a	0.42822	no	n/a	n/a
437.8227539	n/a	112082.625	largeHSmallH	correct	congruent	0.53027	no	H	H
438.3530273	n/a	112218.375	responseSmallH	correct	n/a	0.53027	no	n/a	n/a
439.4360352	n/a	112495.625	largeHSmallH	correct	congruent	0.46338	no	H	H
439.8994141	n/a	112614.25	responseSmallH	correct	n/a	0.46338	no	n/a	n/a
440.9692383	n/a	112888.125	largeHSmallH	correct	congruent	0.4502	no	H	H
441.4194336	n/a	113003.375	responseSmallH	correct	n/a	0.4502	no	n/a	n/a
442.4887695	n/a	113277.125	largeHSmallT	correct	incongruent	0.52686	no	H	T
443.015625	n/a	113412	responseSmallT	correct	n/a	0.52686	no	n/a	n/a
444.0893555	n/a	113686.875	largeTSmallH	correct	incongruent	0.50684	no	T	H
444.5961914	n/a	113816.625	responseSmallH	correct	n/a	0.50684	no	n/a	n/a
445.6625977	n/a	114089.625	largeTSmallH	correct	incongruent	0.40527	no	T	H
446.0678711	n/a	114193.375	responseSmallH	correct	n/a	0.40527	no	n/a	n/a
447.1420898	n/a	114468.375	largeTSmallT	correct	congruent	0.47363	no	T	T
447.6157227	n/a	114589.625	responseSmallT	correct	n/a	0.47363	no	n/a	n/a
448.6757812	n/a	114861	largeHSmallT	correct	incongruent	0.34961	no	H	T
449.0253906	n/a	114950.5	responseSmallT	correct	n/a	0.34961	no	n/a	n/a
450.1020508	n/a	115226.125	largeHSmallH	correct	congruent	0.43799	no	H	H
450.5400391	n/a	115338.25	responseSmallH	correct	n/a	0.43799	no	n/a	n/a
451.6088867	n/a	115611.875	largeTSmallH	correct	incongruent	0.39551	no	T	H
452.0043945	n/a	115713.125	responseSmallH	correct	n/a	0.39551	no	n/a	n/a
453.0756836	n/a	115987.375	largeTSmallT	correct	congruent	0.53809	no	T	T
453.6137695	n/a	116125.125	responseSmallT	correct	n/a	0.53809	no	n/a	n/a
454.6889648	n/a	116400.375	largeTSmallT	correct	congruent	0.66602	no	T	T
455.3549805	n/a	116570.875	responseSmallT	correct	n/a	0.66602	no	n/a	n/a
456.4223633	n/a	116844.125	largeHSmallH	correct	congruent	0.42188	no	H	H
456.8442383	n/a	116952.125	responseSmallH	correct	n/a	0.42188	no	n/a	n/a
457.9155273	n/a	117226.375	largeHSmallH	correct	congruent	0.58496	no	H	H
458.5004883	n/a	117376.125	responseSmallH	correct	n/a	0.58496	no	n/a	n/a
459.5688477	n/a	117649.625	largeHSmallH	correct	congruent	0.52002	no	H	H
460.0888672	n/a	117782.75	responseSmallH	correct	n/a	0.52002	no	n/a	n/a
461.1552734	n/a	118055.75	largeTSmallH	correct	incongruent	0.46338	no	T	H
461.6186523	n/a	118174.375	responseSmallH	correct	n/a	0.46338	no	n/a	n/a
462.6884766	n/a	118448.25	largeHSmallH	correct	congruent	0.55908	no	H	H
463.2475586	n/a	118591.375	responseSmallH	correct	n/a	0.55908	no	n/a	n/a
464.3149414	n/a	118864.625	largeTSmallH	correct	incongruent	0.41992	no	T	H
464.7348633	n/a	118972.125	responseSmallH	correct	n/a	0.41992	no	n/a	n/a
465.8085938	n/a	119247	largeHSmallT	correct	incongruent	0.43652	no	H	T
466.2451172	n/a	119358.75	responseSmallT	correct	n/a	0.43652	no	n/a	n/a
467.3286133	n/a	119636.125	largeTSmallT	correct	congruent	0.44531	no	T	T
467.7739258	n/a	119750.125	responseSmallT	correct	n/a	0.44531	no	n/a	n/a
468.8486328	n/a	120025.25	largeHSmallT	correct	incongruent	0.46289	no	H	T
469.3115234	n/a	120143.75	responseSmallT	correct	n/a	0.46289	no	n/a	n/a
470.3818359	n/a	120417.75	largeHSmallH	correct	congruent	0.47461	no	H	H
470.8564453	n/a	120539.25	responseSmallH	correct	n/a	0.47461	no	n/a	n/a
471.9282227	n/a	120813.625	largeHSmallT	error	incongruent	0.29199	no	H	T
472.2202148	n/a	120888.375	responseSmallH	error	n/a	0.29199	no	n/a	n/a
473.3012695	n/a	121165.125	largeHSmallT	correct	incongruent	0.54834	no	H	T
473.8496094	n/a	121305.5	responseSmallT	correct	n/a	0.54834	no	n/a	n/a
474.9150391	n/a	121578.25	largeHSmallH	correct	congruent	0.49512	no	H	H
475.4101562	n/a	121705	responseSmallH	correct	n/a	0.49512	no	n/a	n/a
476.4746094	n/a	121977.5	largeTSmallT	correct	congruent	0.44287	no	T	T
476.9174805	n/a	122090.875	responseSmallT	correct	n/a	0.44287	no	n/a	n/a
477.9946289	n/a	122366.625	largeHSmallH	correct	congruent	0.50244	no	H	H
478.4970703	n/a	122495.25	responseSmallH	correct	n/a	0.50244	no	n/a	n/a
479.5683594	n/a	122769.5	largeHSmallH	correct	congruent	0.50977	no	H	H
480.078125	n/a	122900	responseSmallH	correct	n/a	0.50977	no	n/a	n/a
481.1411133	n/a	123172.125	largeHSmallT	correct	incongruent	0.7251	no	H	T
481.8662109	n/a	123357.75	responseSmallT	correct	n/a	0.7251	no	n/a	n/a
482.9414062	n/a	123633	largeTSmallT	correct	congruent	0.68799	no	T	T
483.6293945	n/a	123809.125	responseSmallT	correct	n/a	0.68799	no	n/a	n/a
484.7011719	n/a	124083.5	largeHSmallT	correct	incongruent	0.50195	no	H	T
485.203125	n/a	124212	responseSmallT	correct	n/a	0.50195	no	n/a	n/a
486.2749023	n/a	124486.375	largeTSmallH	correct	incongruent	0.41748	no	T	H
486.6923828	n/a	124593.25	responseSmallH	correct	n/a	0.41748	no	n/a	n/a
487.7543945	n/a	124865.125	largeHSmallH	correct	congruent	0.49707	no	H	H
488.2514648	n/a	124992.375	responseSmallH	correct	n/a	0.49707	no	n/a	n/a
489.3144531	n/a	125264.5	largeHSmallH	correct	congruent	0.396	no	H	H
489.7104492	n/a	125365.875	responseSmallH	correct	n/a	0.396	no	n/a	n/a
490.78125	n/a	125640	largeTSmallT	correct	congruent	0.81982	no	T	T
491.6010742	n/a	125849.875	responseSmallT	correct	n/a	0.81982	no	n/a	n/a
492.6743164	n/a	126124.625	largeHSmallT	correct	incongruent	0.38281	no	H	T
493.0571289	n/a	126222.625	responseSmallT	correct	n/a	0.38281	no	n/a	n/a
494.1274414	n/a	126496.625	largeTSmallH	correct	incongruent	0.56982	no	T	H
494.6972656	n/a	126642.5	responseSmallH	correct	n/a	0.56982	no	n/a	n/a
495.7675781	n/a	126916.5	largeTSmallH	correct	incongruent	0.54297	no	T	H
496.3105469	n/a	127055.5	responseSmallH	correct	n/a	0.54297	no	n/a	n/a
497.3808594	n/a	127329.5	largeTSmallH	correct	incongruent	0.44873	no	T	H
497.8295898	n/a	127444.375	responseSmallH	correct	n/a	0.44873	no	n/a	n/a
498.9008789	n/a	127718.625	largeHSmallH	error	congruent	0.45068	no	H	H
499.3515625	n/a	127834	responseSmallT	error	n/a	0.45068	no	n/a	n/a
500.4208984	n/a	128107.75	largeTSmallH	correct	incongruent	0.77441	no	T	H
501.1953125	n/a	128306	responseSmallH	correct	n/a	0.77441	no	n/a	n/a
502.2612305	n/a	128578.875	largeTSmallH	correct	incongruent	0.39746	no	T	H
502.6586914	n/a	128680.625	responseSmallH	correct	n/a	0.39746	no	n/a	n/a
503.7280273	n/a	128954.375	largeHSmallH	correct	congruent	0.44824	no	H	H
504.1762695	n/a	129069.125	responseSmallH	correct	n/a	0.44824	no	n/a	n/a
505.2475586	n/a	129343.375	largeTSmallH	correct	incongruent	0.51367	no	T	H
505.7612305	n/a	129474.875	responseSmallH	correct	n/a	0.51367	no	n/a	n/a
506.8339844	n/a	129749.5	largeHSmallH	correct	congruent	0.38232	no	H	H
507.2163086	n/a	129847.375	responseSmallH	correct	n/a	0.38232	no	n/a	n/a
508.2871094	n/a	130121.5	largeTSmallT	correct	congruent	0.52051	no	T	T
508.8076172	n/a	130254.75	responseSmallT	correct	n/a	0.52051	no	n/a	n/a
509.8740234	n/a	130527.75	largeTSmallH	correct	incongruent	0.41895	no	T	H
510.2929688	n/a	130635	responseSmallH	correct	n/a	0.41895	no	n/a	n/a
511.3671875	n/a	130910	largeHSmallT	correct	incongruent	0.52197	no	H	T
511.8891602	n/a	131043.625	responseSmallT	correct	n/a	0.52197	no	n/a	n/a
512.9667969	n/a	131319.5	largeHSmallT	correct	incongruent	0.61963	no	H	T
513.5864258	n/a	131478.125	responseSmallT	correct	n/a	0.61963	no	n/a	n/a
514.6469727	n/a	131749.625	largeHSmallT	correct	incongruent	0.42725	no	H	T
515.0742188	n/a	131859	responseSmallT	correct	n/a	0.42725	no	n/a	n/a
516.1538086	n/a	132135.375	largeHSmallH	correct	congruent	0.52441	no	H	H
516.6782227	n/a	132269.625	responseSmallH	correct	n/a	0.52441	no	n/a	n/a
517.7402344	n/a	132541.5	largeHSmallT	correct	incongruent	0.52393	no	H	T
518.2641602	n/a	132675.625	responseSmallT	correct	n/a	0.52393	no	n/a	n/a
519.3271484	n/a	132947.75	largeHSmallT	correct	incongruent	0.51123	no	H	T
519.8383789	n/a	133078.625	responseSmallT	correct	n/a	0.51123	no	n/a	n/a
520.9135742	n/a	133353.875	largeHSmallH	correct	congruent	0.41553	no	H	H
521.3291016	n/a	133460.25	responseSmallH	correct	n/a	0.41553	no	n/a	n/a
522.4067383	n/a	133736.125	largeTSmallH	correct	incongruent	0.42773	no	T	H
522.8344727	n/a	133845.625	responseSmallH	correct	n/a	0.42773	no	n/a	n/a
523.9003906	n/a	134118.5	largeHSmallH	correct	congruent	0.45605	no	H	H
524.3564453	n/a	134235.25	responseSmallH	correct	n/a	0.45605	no	n/a	n/a
525.4335938	n/a	134511	largeHSmallT	correct	incongruent	0.4292	no	H	T
525.862793	n/a	134620.875	responseSmallT	correct	n/a	0.4292	no	n/a	n/a
526.9267578	n/a	134893.25	largeTSmallH	correct	incongruent	0.4292	no	T	H
527.355957	n/a	135003.125	responseSmallH	correct	n/a	0.4292	no	n/a	n/a
528.4335938	n/a	135279	largeHSmallT	correct	incongruent	0.41797	no	H	T
528.8515625	n/a	135386	responseSmallT	correct	n/a	0.41797	no	n/a	n/a
529.9267578	n/a	135661.25	largeTSmallH	correct	incongruent	0.47803	no	T	H
530.4047852	n/a	135783.625	responseSmallH	correct	n/a	0.47803	no	n/a	n/a
531.4731445	n/a	136057.125	largeTSmallT	correct	congruent	0.43604	no	T	T
531.9091797	n/a	136168.75	responseSmallT	correct	n/a	0.43604	no	n/a	n/a
532.9799805	n/a	136442.875	largeTSmallH	correct	incongruent	0.45801	no	T	H
533.4379883	n/a	136560.125	responseSmallH	correct	n/a	0.45801	no	n/a	n/a
534.5131836	n/a	136835.375	largeHSmallH	correct	congruent	0.63916	no	H	H
535.1523438	n/a	136999	responseSmallH	correct	n/a	0.63916	no	n/a	n/a
536.2333984	n/a	137275.75	largeTSmallT	error	congruent	0.41797	no	T	T
536.6513672	n/a	137382.75	responseSmallH	error	n/a	0.41797	no	n/a	n/a
537.7265625	n/a	137658	largeTSmallT	correct	congruent	0.53027	no	T	T
538.2568359	n/a	137793.75	responseSmallT	correct	n/a	0.53027	no	n/a	n/a
539.3398438	n/a	138071	largeHSmallH	correct	congruent	0.41064	no	H	H
539.7504883	n/a	138176.125	responseSmallH	correct	n/a	0.41064	no	n/a	n/a
540.8066406	n/a	138446.5	largeTSmallH	correct	incongruent	0.45703	no	T	H
541.2636719	n/a	138563.5	responseSmallH	correct	n/a	0.45703	no	n/a	n/a
542.3261719	n/a	138835.5	largeTSmallH	correct	incongruent	0.40039	no	T	H
542.7265625	n/a	138938	responseSmallH	correct	n/a	0.40039	no	n/a	n/a
543.7929688	n/a	139211	largeTSmallT	correct	congruent	0.49219	no	T	T
544.2851562	n/a	139337	responseSmallT	correct	n/a	0.49219	no	n/a	n/a
545.3530273	n/a	139610.375	largeTSmallH	correct	incongruent	0.4248	no	T	H
545.777832	n/a	139719.125	responseSmallH	correct	n/a	0.4248	no	n/a	n/a
546.8461914	n/a	139992.625	largeHSmallT	correct	incongruent	0.40039	no	H	T
547.246582	n/a	140095.125	responseSmallT	correct	n/a	0.40039	no	n/a	n/a
548.3129883	n/a	140368.125	largeTSmallH	correct	incongruent	0.4375	no	T	H
548.7504883	n/a	140480.125	responseSmallH	correct	n/a	0.4375	no	n/a	n/a
549.8198242	n/a	140753.875	largeTSmallH	correct	incongruent	0.47803	no	T	H
550.2978516	n/a	140876.25	responseSmallH	correct	n/a	0.47803	no	n/a	n/a
551.3793945	n/a	141153.125	largeHSmallT	correct	incongruent	0.58496	no	H	T
551.9643555	n/a	141302.875	responseSmallT	correct	n/a	0.58496	no	n/a	n/a
553.0327148	n/a	141576.375	largeTSmallH	correct	incongruent	0.41113	no	T	H
553.4438477	n/a	141681.625	responseSmallH	correct	n/a	0.41113	no	n/a	n/a
554.5126953	n/a	141955.25	largeHSmallT	error	incongruent	0.46777	no	H	T
554.9804688	n/a	142075	responseSmallH	error	n/a	0.46777	no	n/a	n/a
556.0595703	n/a	142351.25	largeHSmallH	correct	congruent	0.56104	no	H	H
556.6206055	n/a	142494.875	responseSmallH	correct	n/a	0.56104	no	n/a	n/a
557.6992188	n/a	142771	largeTSmallH	correct	incongruent	0.53174	no	T	H
558.230957	n/a	142907.125	responseSmallH	correct	n/a	0.53174	no	n/a	n/a
559.2993164	n/a	143180.625	largeTSmallT	correct	congruent	0.4917	no	T	T
559.7910156	n/a	143306.5	responseSmallT	correct	n/a	0.4917	no	n/a	n/a
560.859375	n/a	143580	largeHSmallT	correct	incongruent	0.43311	no	H	T
561.2924805	n/a	143690.875	responseSmallT	correct	n/a	0.43311	no	n/a	n/a
562.3525391	n/a	143962.25	largeTSmallH	correct	incongruent	0.46045	no	T	H
562.8129883	n/a	144080.125	responseSmallH	correct	n/a	0.46045	no	n/a	n/a
563.8857422	n/a	144354.75	largeTSmallH	correct	incongruent	0.52002	no	T	H
564.4057617	n/a	144487.875	responseSmallH	correct	n/a	0.52002	no	n/a	n/a
565.472168	n/a	144760.875	largeTSmallT	correct	congruent	0.46582	no	T	T
565.9379883	n/a	144880.125	responseSmallT	correct	n/a	0.46582	no	n/a	n/a
567.0058594	n/a	145153.5	largeTSmallH	correct	incongruent	0.47119	no	T	H
567.4770508	n/a	145274.125	responseSmallH	correct	n/a	0.47119	no	n/a	n/a
568.5522461	n/a	145549.375	largeTSmallT	correct	congruent	0.39941	no	T	T
568.9516602	n/a	145651.625	responseSmallT	correct	n/a	0.39941	no	n/a	n/a
570.019043	n/a	145924.875	largeTSmallH	correct	incongruent	0.47314	no	T	H
570.4921875	n/a	146046	responseSmallH	correct	n/a	0.47314	no	n/a	n/a
571.5654297	n/a	146320.75	largeHSmallH	error	congruent	0.48926	no	H	H
572.0546875	n/a	146446	responseSmallT	error	n/a	0.48926	no	n/a	n/a
573.1254883	n/a	146720.125	largeHSmallH	correct	congruent	0.46582	no	H	H
573.5913086	n/a	146839.375	responseSmallH	correct	n/a	0.46582	no	n/a	n/a
574.6723633	n/a	147116.125	largeHSmallT	correct	incongruent	0.53809	no	H	T
575.2104492	n/a	147253.875	responseSmallT	correct	n/a	0.53809	no	n/a	n/a
576.2856445	n/a	147529.125	largeHSmallT	correct	incongruent	0.43604	no	H	T
576.7216797	n/a	147640.75	responseSmallT	correct	n/a	0.43604	no	n/a	n/a
577.7919922	n/a	147914.75	largeHSmallH	correct	congruent	0.53271	no	H	H
578.324707	n/a	148051.125	responseSmallH	correct	n/a	0.53271	no	n/a	n/a
579.3920898	n/a	148324.375	largeTSmallT	correct	congruent	0.50293	no	T	T
579.8950195	n/a	148453.125	responseSmallT	correct	n/a	0.50293	no	n/a	n/a
580.965332	n/a	148727.125	largeHSmallH	correct	congruent	0.40723	no	H	H
581.3725586	n/a	148831.375	responseSmallH	correct	n/a	0.40723	no	n/a	n/a
582.4453125	n/a	149106	largeTSmallH	correct	incongruent	0.57666	no	T	H
583.0219727	n/a	149253.625	responseSmallH	correct	n/a	0.57666	no	n/a	n/a
584.0854492	n/a	149525.875	largeHSmallH	correct	congruent	0.44678	no	H	H
584.5322266	n/a	149640.25	responseSmallH	correct	n/a	0.44678	no	n/a	n/a
585.6054688	n/a	149915	largeTSmallT	correct	congruent	0.47412	no	T	T
586.0795898	n/a	150036.375	responseSmallT	correct	n/a	0.47412	no	n/a	n/a
587.1518555	n/a	150310.875	largeTSmallT	correct	congruent	0.41406	no	T	T
587.565918	n/a	150416.875	responseSmallT	correct	n/a	0.41406	no	n/a	n/a
588.6450195	n/a	150693.125	largeHSmallH	correct	congruent	0.52588	no	H	H
589.1708984	n/a	150827.75	responseSmallH	correct	n/a	0.52588	no	n/a	n/a
590.2319336	n/a	151099.375	largeTSmallH	correct	incongruent	0.48438	no	T	H
590.7163086	n/a	151223.375	responseSmallH	correct	n/a	0.48438	no	n/a	n/a
591.7919922	n/a	151498.75	largeTSmallT	correct	congruent	0.42969	no	T	T
592.2216797	n/a	151608.75	responseSmallT	correct	n/a	0.42969	no	n/a	n/a
593.2856445	n/a	151881.125	largeHSmallH	correct	congruent	0.47461	no	H	H
593.7602539	n/a	152002.625	responseSmallH	correct	n/a	0.47461	no	n/a	n/a
594.831543	n/a	152276.875	largeTSmallH	correct	incongruent	0.52197	no	T	H
595.3535156	n/a	152410.5	responseSmallH	correct	n/a	0.52197	no	n/a	n/a
596.4316406	n/a	152686.5	largeTSmallT	correct	congruent	0.53564	no	T	T
596.9672852	n/a	152823.625	responseSmallT	correct	n/a	0.53564	no	n/a	n/a
598.0317383	n/a	153096.125	largeTSmallH	correct	incongruent	0.41211	no	T	H
598.4438477	n/a	153201.625	responseSmallH	correct	n/a	0.41211	no	n/a	n/a
599.5117188	n/a	153475	largeHSmallT	correct	incongruent	0.50537	no	H	T
600.0170898	n/a	153604.375	responseSmallT	correct	n/a	0.50537	no	n/a	n/a
601.0981445	n/a	153881.125	largeHSmallT	correct	incongruent	0.49756	no	H	T
601.5957031	n/a	154008.5	responseSmallT	correct	n/a	0.49756	no	n/a	n/a
602.6713867	n/a	154283.875	largeHSmallT	correct	incongruent	0.41211	no	H	T
603.0834961	n/a	154389.375	responseSmallT	correct	n/a	0.41211	no	n/a	n/a
604.1513672	n/a	154662.75	largeTSmallT	correct	congruent	0.48438	no	T	T
604.6357422	n/a	154786.75	responseSmallT	correct	n/a	0.48438	no	n/a	n/a
605.7114258	n/a	155062.125	largeHSmallT	correct	incongruent	0.5083	no	H	T
606.2197266	n/a	155192.25	responseSmallT	correct	n/a	0.5083	no	n/a	n/a
607.284668	n/a	155464.875	largeTSmallT	correct	congruent	0.43945	no	T	T
607.7241211	n/a	155577.375	responseSmallT	correct	n/a	0.43945	no	n/a	n/a
608.8046875	n/a	155854	largeHSmallH	correct	congruent	0.46143	no	H	H
609.2661133	n/a	155972.125	responseSmallH	correct	n/a	0.46143	no	n/a	n/a
610.3510742	n/a	156249.875	largeTSmallH	correct	incongruent	0.53809	no	T	H
610.8891602	n/a	156387.625	responseSmallH	correct	n/a	0.53809	no	n/a	n/a
611.9638672	n/a	156662.75	largeTSmallH	correct	incongruent	0.40771	no	T	H
612.371582	n/a	156767.125	responseSmallH	correct	n/a	0.40771	no	n/a	n/a
613.4443359	n/a	157041.75	largeTSmallT	error	congruent	0.41699	no	T	T
613.8613281	n/a	157148.5	responseSmallH	error	n/a	0.41699	no	n/a	n/a
614.9243164	n/a	157420.625	largeHSmallH	correct	congruent	0.50928	no	H	H
615.4335938	n/a	157551	responseSmallH	correct	n/a	0.50928	no	n/a	n/a
616.5112305	n/a	157826.875	largeHSmallT	correct	incongruent	0.53662	no	H	T
617.0478516	n/a	157964.25	responseSmallT	correct	n/a	0.53662	no	n/a	n/a
618.1113281	n/a	158236.5	largeHSmallT	correct	incongruent	0.47998	no	H	T
618.5913086	n/a	158359.375	responseSmallT	correct	n/a	0.47998	no	n/a	n/a
619.6577148	n/a	158632.375	largeHSmallT	correct	incongruent	0.45166	no	H	T
620.109375	n/a	158748	responseSmallT	correct	n/a	0.45166	no	n/a	n/a
621.190918	n/a	159024.875	largeTSmallT	correct	congruent	0.47363	no	T	T
621.6645508	n/a	159146.125	responseSmallT	correct	n/a	0.47363	no	n/a	n/a
622.7241211	n/a	159417.375	largeHSmallH	correct	congruent	0.42969	no	H	H
623.1538086	n/a	159527.375	responseSmallH	correct	n/a	0.42969	no	n/a	n/a
624.230957	n/a	159803.125	largeTSmallH	correct	incongruent	0.44775	no	T	H
624.6787109	n/a	159917.75	responseSmallH	correct	n/a	0.44775	no	n/a	n/a
625.7509766	n/a	160192.25	largeTSmallT	correct	congruent	0.46484	no	T	T
626.2158203	n/a	160311.25	responseSmallT	correct	n/a	0.46484	no	n/a	n/a
627.2841797	n/a	160584.75	largeHSmallT	correct	incongruent	0.5166	no	H	T
627.8007812	n/a	160717	responseSmallT	correct	n/a	0.5166	no	n/a	n/a
628.8842773	n/a	160994.375	largeTSmallT	correct	congruent	0.48535	no	T	T
629.3696289	n/a	161118.625	responseSmallT	correct	n/a	0.48535	no	n/a	n/a
630.4443359	n/a	161393.75	largeTSmallT	correct	congruent	0.46094	no	T	T
630.9052734	n/a	161511.75	responseSmallT	correct	n/a	0.46094	no	n/a	n/a
631.9770508	n/a	161786.125	largeHSmallH	correct	congruent	0.46191	no	H	H
632.4389648	n/a	161904.375	responseSmallH	correct	n/a	0.46191	no	n/a	n/a
633.5107422	n/a	162178.75	largeTSmallH	correct	incongruent	0.39258	no	T	H
633.9033203	n/a	162279.25	responseSmallH	correct	n/a	0.39258	no	n/a	n/a
634.9770508	n/a	162554.125	largeTSmallT	correct	congruent	0.55713	no	T	T
635.5341797	n/a	162696.75	responseSmallT	correct	n/a	0.55713	no	n/a	n/a
643.6704102	n/a	164779.625	largeHSmallH	correct	congruent	2.1089	yes	H	H
645.7792969	n/a	165319.5	responseLargeH	correct	n/a	2.1089	yes	n/a	n/a
646.84375	n/a	165592	largeTSmallH	correct	incongruent	0.58691	no	T	H
647.4306641	n/a	165742.25	responseLargeT	correct	n/a	0.58691	no	n/a	n/a
648.4970703	n/a	166015.25	largeTSmallH	correct	incongruent	0.47656	no	T	H
648.9736328	n/a	166137.25	responseLargeT	correct	n/a	0.47656	no	n/a	n/a
650.043457	n/a	166411.125	largeHSmallT	correct	incongruent	0.50977	no	H	T
650.5532227	n/a	166541.625	responseLargeH	correct	n/a	0.50977	no	n/a	n/a
651.6166992	n/a	166813.875	largeHSmallT	correct	incongruent	0.38721	no	H	T
652.0039062	n/a	166913	responseLargeH	correct	n/a	0.38721	no	n/a	n/a
653.0698242	n/a	167185.875	largeHSmallH	correct	congruent	0.4248	no	H	H
653.4946289	n/a	167294.625	responseLargeH	correct	n/a	0.4248	no	n/a	n/a
654.5634766	n/a	167568.25	largeTSmallH	correct	incongruent	0.53662	no	T	H
655.1000977	n/a	167705.625	responseLargeT	correct	n/a	0.53662	no	n/a	n/a
656.1767578	n/a	167981.25	largeTSmallT	correct	congruent	0.40186	no	T	T
656.5786133	n/a	168084.125	responseLargeT	correct	n/a	0.40186	no	n/a	n/a
657.6435547	n/a	168356.75	largeTSmallT	correct	congruent	0.44629	no	T	T
658.0898438	n/a	168471	responseLargeT	correct	n/a	0.44629	no	n/a	n/a
659.1499023	n/a	168742.375	largeTSmallT	correct	congruent	0.51318	no	T	T
659.6630859	n/a	168873.75	responseLargeT	correct	n/a	0.51318	no	n/a	n/a
660.7363281	n/a	169148.5	largeHSmallT	correct	incongruent	0.36084	no	H	T
661.097168	n/a	169240.875	responseLargeH	correct	n/a	0.36084	no	n/a	n/a
662.1630859	n/a	169513.75	largeHSmallT	correct	incongruent	0.34814	no	H	T
662.5112305	n/a	169602.875	responseLargeH	correct	n/a	0.34814	no	n/a	n/a
663.5898438	n/a	169879	largeHSmallH	correct	congruent	0.56006	no	H	H
664.1499023	n/a	170022.375	responseLargeH	correct	n/a	0.56006	no	n/a	n/a
665.2294922	n/a	170298.75	largeTSmallH	error	incongruent	0.43994	no	T	H
665.6694336	n/a	170411.375	responseLargeH	error	n/a	0.43994	no	n/a	n/a
666.7363281	n/a	170684.5	largeHSmallH	correct	congruent	0.41699	no	H	H
667.1533203	n/a	170791.25	responseLargeH	correct	n/a	0.41699	no	n/a	n/a
668.2163086	n/a	171063.375	largeHSmallH	error	congruent	0.32568	no	H	H
668.5419922	n/a	171146.75	responseLargeT	error	n/a	0.32568	no	n/a	n/a
669.6162109	n/a	171421.75	largeTSmallH	correct	incongruent	0.41162	no	T	H
670.027832	n/a	171527.125	responseLargeT	correct	n/a	0.41162	no	n/a	n/a
671.109375	n/a	171804	largeHSmallH	correct	congruent	0.45508	no	H	H
671.5644531	n/a	171920.5	responseLargeH	correct	n/a	0.45508	no	n/a	n/a
672.6293945	n/a	172193.125	largeTSmallH	correct	incongruent	0.54297	no	T	H
673.1723633	n/a	172332.125	responseLargeT	correct	n/a	0.54297	no	n/a	n/a
674.2426758	n/a	172606.125	largeHSmallH	correct	congruent	0.37988	no	H	H
674.6225586	n/a	172703.375	responseLargeH	correct	n/a	0.37988	no	n/a	n/a
675.6962891	n/a	172978.25	largeHSmallT	correct	incongruent	0.40186	no	H	T
676.0981445	n/a	173081.125	responseLargeH	correct	n/a	0.40186	no	n/a	n/a
677.1762695	n/a	173357.125	largeTSmallT	correct	congruent	0.44141	no	T	T
677.6176758	n/a	173470.125	responseLargeT	correct	n/a	0.44141	no	n/a	n/a
678.6826172	n/a	173742.75	largeTSmallT	correct	congruent	0.43799	no	T	T
679.1206055	n/a	173854.875	responseLargeT	correct	n/a	0.43799	no	n/a	n/a
680.1894531	n/a	174128.5	largeTSmallT	correct	congruent	0.48389	no	T	T
680.6733398	n/a	174252.375	responseLargeT	correct	n/a	0.48389	no	n/a	n/a
681.7495117	n/a	174527.875	largeHSmallH	correct	congruent	0.34521	no	H	H
682.0947266	n/a	174616.25	responseLargeH	correct	n/a	0.34521	no	n/a	n/a
683.1625977	n/a	174889.625	largeTSmallT	error	congruent	0.40332	no	T	T
683.565918	n/a	174992.875	responseLargeH	error	n/a	0.40332	no	n/a	n/a
684.6293945	n/a	175265.125	largeHSmallT	correct	incongruent	0.39697	no	H	T
685.0263672	n/a	175366.75	responseLargeH	correct	n/a	0.39697	no	n/a	n/a
686.0957031	n/a	175640.5	largeTSmallT	correct	congruent	0.49756	no	T	T
686.5932617	n/a	175767.875	responseLargeT	correct	n/a	0.49756	no	n/a	n/a
687.6557617	n/a	176039.875	largeTSmallH	correct	incongruent	0.37695	no	T	H
688.0327148	n/a	176136.375	responseLargeT	correct	n/a	0.37695	no	n/a	n/a
689.1088867	n/a	176411.875	largeTSmallH	correct	incongruent	0.38672	no	T	H
689.4956055	n/a	176510.875	responseLargeT	correct	n/a	0.38672	no	n/a	n/a
690.5625	n/a	176784	largeHSmallT	error	incongruent	0.4165	no	H	T
690.9790039	n/a	176890.625	responseLargeT	error	n/a	0.4165	no	n/a	n/a
692.0556641	n/a	177166.25	largeTSmallT	correct	congruent	0.46533	no	T	T
692.5209961	n/a	177285.375	responseLargeT	correct	n/a	0.46533	no	n/a	n/a
693.5888672	n/a	177558.75	largeHSmallH	correct	congruent	0.38525	no	H	H
693.9741211	n/a	177657.375	responseLargeH	correct	n/a	0.38525	no	n/a	n/a
695.0556641	n/a	177934.25	largeTSmallH	correct	incongruent	0.36377	no	T	H
695.4194336	n/a	178027.375	responseLargeT	correct	n/a	0.36377	no	n/a	n/a
696.4829102	n/a	178299.625	largeHSmallH	correct	congruent	0.37109	no	H	H
696.8540039	n/a	178394.625	responseLargeH	correct	n/a	0.37109	no	n/a	n/a
697.9223633	n/a	178668.125	largeHSmallH	correct	congruent	0.45361	no	H	H
698.3759766	n/a	178784.25	responseLargeH	correct	n/a	0.45361	no	n/a	n/a
699.4555664	n/a	179060.625	largeHSmallH	correct	congruent	0.38428	no	H	H
699.8398438	n/a	179159	responseLargeH	correct	n/a	0.38428	no	n/a	n/a
700.9223633	n/a	179436.125	largeHSmallT	correct	incongruent	0.55322	no	H	T
701.4755859	n/a	179577.75	responseLargeH	correct	n/a	0.55322	no	n/a	n/a
702.5351562	n/a	179849	largeHSmallT	correct	incongruent	0.34961	no	H	T
702.8847656	n/a	179938.5	responseLargeH	correct	n/a	0.34961	no	n/a	n/a
703.9619141	n/a	180214.25	largeHSmallT	correct	incongruent	0.41992	no	H	T
704.3818359	n/a	180321.75	responseLargeH	correct	n/a	0.41992	no	n/a	n/a
705.4555664	n/a	180596.625	largeTSmallT	error	congruent	0.40625	no	T	T
705.8618164	n/a	180700.625	responseLargeH	error	n/a	0.40625	no	n/a	n/a
706.9355469	n/a	180975.5	largeTSmallT	correct	congruent	0.49219	no	T	T
707.4277344	n/a	181101.5	responseLargeT	correct	n/a	0.49219	no	n/a	n/a
708.4951172	n/a	181374.75	largeTSmallH	correct	incongruent	0.34814	no	T	H
708.8432617	n/a	181463.875	responseLargeT	correct	n/a	0.34814	no	n/a	n/a
709.921875	n/a	181740	largeHSmallT	correct	incongruent	0.4502	no	H	T
710.3720703	n/a	181855.25	responseLargeH	correct	n/a	0.4502	no	n/a	n/a
711.4550781	n/a	182132.5	largeHSmallH	correct	congruent	0.44873	no	H	H
711.9038086	n/a	182247.375	responseLargeH	correct	n/a	0.44873	no	n/a	n/a
712.9750977	n/a	182521.625	largeTSmallH	correct	incongruent	0.39844	no	T	H
713.3735352	n/a	182623.625	responseLargeT	correct	n/a	0.39844	no	n/a	n/a
714.4418945	n/a	182897.125	largeHSmallH	correct	congruent	0.34521	no	H	H
714.7871094	n/a	182985.5	responseLargeH	correct	n/a	0.34521	no	n/a	n/a
715.8549805	n/a	183258.875	largeTSmallT	correct	congruent	0.3833	no	T	T
716.2382812	n/a	183357	responseLargeT	correct	n/a	0.3833	no	n/a	n/a
717.3085938	n/a	183631	largeHSmallT	correct	incongruent	0.37402	no	H	T
717.6826172	n/a	183726.75	responseLargeH	correct	n/a	0.37402	no	n/a	n/a
718.7485352	n/a	183999.625	largeHSmallT	error	incongruent	0.3916	no	H	T
719.1401367	n/a	184099.875	responseLargeT	error	n/a	0.3916	no	n/a	n/a
720.2148438	n/a	184375	largeTSmallH	correct	incongruent	0.41162	no	T	H
720.6264648	n/a	184480.375	responseLargeT	correct	n/a	0.41162	no	n/a	n/a
721.6948242	n/a	184753.875	largeHSmallT	correct	incongruent	0.37988	no	H	T
722.074707	n/a	184851.125	responseLargeH	correct	n/a	0.37988	no	n/a	n/a
723.1484375	n/a	185126	largeHSmallT	correct	incongruent	0.46484	no	H	T
723.6132812	n/a	185245	responseLargeH	correct	n/a	0.46484	no	n/a	n/a
724.6816406	n/a	185518.5	largeHSmallT	correct	incongruent	0.48389	no	H	T
725.1655273	n/a	185642.375	responseLargeH	correct	n/a	0.48389	no	n/a	n/a
726.2416992	n/a	185917.875	largeTSmallT	correct	congruent	0.34766	no	T	T
726.5893555	n/a	186006.875	responseLargeT	correct	n/a	0.34766	no	n/a	n/a
727.6547852	n/a	186279.625	largeTSmallH	correct	incongruent	0.48535	no	T	H
728.1401367	n/a	186403.875	responseLargeT	correct	n/a	0.48535	no	n/a	n/a
729.2148438	n/a	186679	largeTSmallH	error	incongruent	0.3999	no	T	H
729.6147461	n/a	186781.375	responseLargeH	error	n/a	0.3999	no	n/a	n/a
730.6811523	n/a	187054.375	largeHSmallH	correct	congruent	0.40527	no	H	H
731.0864258	n/a	187158.125	responseLargeH	correct	n/a	0.40527	no	n/a	n/a
732.1611328	n/a	187433.25	largeHSmallH	correct	congruent	0.51318	no	H	H
732.6743164	n/a	187564.625	responseLargeH	correct	n/a	0.51318	no	n/a	n/a
733.7348633	n/a	187836.125	largeHSmallT	error	incongruent	0.41455	no	H	T
734.1494141	n/a	187942.25	responseLargeT	error	n/a	0.41455	no	n/a	n/a
735.2280273	n/a	188218.375	largeTSmallH	correct	incongruent	0.50977	no	T	H
735.737793	n/a	188348.875	responseLargeT	correct	n/a	0.50977	no	n/a	n/a
736.8144531	n/a	188624.5	largeTSmallH	error	incongruent	0.45459	no	T	H
737.269043	n/a	188740.875	responseLargeH	error	n/a	0.45459	no	n/a	n/a
738.3476562	n/a	189017	largeTSmallH	correct	incongruent	0.47998	no	T	H
738.8276367	n/a	189139.875	responseLargeT	correct	n/a	0.47998	no	n/a	n/a
739.9077148	n/a	189416.375	largeTSmallT	correct	congruent	0.42627	no	T	T
740.3339844	n/a	189525.5	responseLargeT	correct	n/a	0.42627	no	n/a	n/a
741.4008789	n/a	189798.625	largeHSmallH	correct	congruent	0.47461	no	H	H
741.8754883	n/a	189920.125	responseLargeH	correct	n/a	0.47461	no	n/a	n/a
742.9477539	n/a	190194.625	largeHSmallT	correct	incongruent	0.47363	no	H	T
743.4213867	n/a	190315.875	responseLargeH	correct	n/a	0.47363	no	n/a	n/a
744.4946289	n/a	190590.625	largeHSmallT	correct	incongruent	0.42529	no	H	T
744.9199219	n/a	190699.5	responseLargeH	correct	n/a	0.42529	no	n/a	n/a
745.9873047	n/a	190972.75	largeTSmallH	correct	incongruent	0.4917	no	T	H
746.4790039	n/a	191098.625	responseLargeT	correct	n/a	0.4917	no	n/a	n/a
747.5473633	n/a	191372.125	largeTSmallT	correct	congruent	0.51172	no	T	T
748.059082	n/a	191503.125	responseLargeT	correct	n/a	0.51172	no	n/a	n/a
749.1342773	n/a	191778.375	largeHSmallT	correct	incongruent	0.43896	no	H	T
749.5732422	n/a	191890.75	responseLargeH	correct	n/a	0.43896	no	n/a	n/a
750.6542969	n/a	192167.5	largeTSmallH	correct	incongruent	0.50342	no	T	H
751.1577148	n/a	192296.375	responseLargeT	correct	n/a	0.50342	no	n/a	n/a
752.2275391	n/a	192570.25	largeHSmallT	correct	incongruent	0.40186	no	H	T
752.6293945	n/a	192673.125	responseLargeH	correct	n/a	0.40186	no	n/a	n/a
753.7075195	n/a	192949.125	largeTSmallH	error	incongruent	0.37598	no	T	H
754.0834961	n/a	193045.375	responseLargeH	error	n/a	0.37598	no	n/a	n/a
755.1606445	n/a	193321.125	largeHSmallT	correct	incongruent	0.44873	no	H	T
755.609375	n/a	193436	responseLargeH	correct	n/a	0.44873	no	n/a	n/a
756.6806641	n/a	193710.25	largeTSmallH	correct	incongruent	0.45996	no	T	H
757.140625	n/a	193828	responseLargeT	correct	n/a	0.45996	no	n/a	n/a
758.2138672	n/a	194102.75	largeTSmallT	correct	congruent	0.41357	no	T	T
758.6274414	n/a	194208.625	responseLargeT	correct	n/a	0.41357	no	n/a	n/a
759.6938477	n/a	194481.625	largeTSmallT	correct	congruent	0.41846	no	T	T
760.1123047	n/a	194588.75	responseLargeT	correct	n/a	0.41846	no	n/a	n/a
761.1875	n/a	194864	largeTSmallT	correct	congruent	0.40381	no	T	T
761.5913086	n/a	194967.375	responseLargeT	correct	n/a	0.40381	no	n/a	n/a
762.6669922	n/a	195242.75	largeHSmallH	correct	congruent	0.44238	no	H	H
763.109375	n/a	195356	responseLargeH	correct	n/a	0.44238	no	n/a	n/a
764.1738281	n/a	195628.5	largeTSmallH	correct	incongruent	0.44385	no	T	H
764.6176758	n/a	195742.125	responseLargeT	correct	n/a	0.44385	no	n/a	n/a
765.6938477	n/a	196017.625	largeHSmallT	correct	incongruent	0.35547	no	H	T
766.0493164	n/a	196108.625	responseLargeH	correct	n/a	0.35547	no	n/a	n/a
767.1206055	n/a	196382.875	largeHSmallH	correct	congruent	0.40771	no	H	H
767.5283203	n/a	196487.25	responseLargeH	correct	n/a	0.40771	no	n/a	n/a
768.6005859	n/a	196761.75	largeTSmallT	correct	congruent	0.60693	no	T	T
769.2075195	n/a	196917.125	responseLargeT	correct	n/a	0.60693	no	n/a	n/a
770.2802734	n/a	197191.75	largeHSmallT	correct	incongruent	0.38428	no	H	T
770.6645508	n/a	197290.125	responseLargeH	correct	n/a	0.38428	no	n/a	n/a
771.7470703	n/a	197567.25	largeTSmallT	correct	congruent	0.43457	no	T	T
772.1816406	n/a	197678.5	responseLargeT	correct	n/a	0.43457	no	n/a	n/a
773.253418	n/a	197952.875	largeTSmallT	error	congruent	0.35693	no	T	T
773.6103516	n/a	198044.25	responseLargeH	error	n/a	0.35693	no	n/a	n/a
774.6801758	n/a	198318.125	largeHSmallH	correct	congruent	0.40967	no	H	H
775.0898438	n/a	198423	responseLargeH	correct	n/a	0.40967	no	n/a	n/a
776.1601562	n/a	198697	largeTSmallT	correct	congruent	0.57031	no	T	T
776.7304688	n/a	198843	responseLargeT	correct	n/a	0.57031	no	n/a	n/a
777.7998047	n/a	199116.75	largeTSmallH	error	incongruent	0.37793	no	T	H
778.1777344	n/a	199213.5	responseLargeH	error	n/a	0.37793	no	n/a	n/a
779.2402344	n/a	199485.5	largeHSmallT	correct	incongruent	0.84131	no	H	T
780.081543	n/a	199700.875	responseLargeH	correct	n/a	0.84131	no	n/a	n/a
781.1464844	n/a	199973.5	largeTSmallT	correct	congruent	0.42578	no	T	T
781.5722656	n/a	200082.5	responseLargeT	correct	n/a	0.42578	no	n/a	n/a
782.6533203	n/a	200359.25	largeHSmallT	correct	incongruent	0.48291	no	H	T
783.1362305	n/a	200482.875	responseLargeH	correct	n/a	0.48291	no	n/a	n/a
784.2133789	n/a	200758.625	largeHSmallH	correct	congruent	0.42725	no	H	H
784.640625	n/a	200868	responseLargeH	correct	n/a	0.42725	no	n/a	n/a
785.706543	n/a	201140.875	largeTSmallH	correct	incongruent	0.51221	no	T	H
786.21875	n/a	201272	responseLargeT	correct	n/a	0.51221	no	n/a	n/a
787.2929688	n/a	201547	largeHSmallH	correct	congruent	0.4458	no	H	H
787.7387695	n/a	201661.125	responseLargeH	correct	n/a	0.4458	no	n/a	n/a
788.8129883	n/a	201936.125	largeHSmallH	correct	congruent	0.47021	no	H	H
789.2832031	n/a	202056.5	responseLargeH	correct	n/a	0.47021	no	n/a	n/a
790.359375	n/a	202332	largeTSmallT	correct	congruent	0.39551	no	T	T
790.7548828	n/a	202433.25	responseLargeT	correct	n/a	0.39551	no	n/a	n/a
791.8266602	n/a	202707.625	largeHSmallH	correct	congruent	0.36035	no	H	H
792.1870117	n/a	202799.875	responseLargeH	correct	n/a	0.36035	no	n/a	n/a
793.2529297	n/a	203072.75	largeHSmallH	correct	congruent	0.46582	no	H	H
793.71875	n/a	203192	responseLargeH	correct	n/a	0.46582	no	n/a	n/a
794.7861328	n/a	203465.25	largeTSmallT	correct	congruent	0.41797	no	T	T
795.2041016	n/a	203572.25	responseLargeT	correct	n/a	0.41797	no	n/a	n/a
796.2792969	n/a	203847.5	largeTSmallT	correct	congruent	0.47998	no	T	T
796.7592773	n/a	203970.375	responseLargeT	correct	n/a	0.47998	no	n/a	n/a
797.8261719	n/a	204243.5	largeTSmallT	correct	congruent	0.4917	no	T	T
798.3178711	n/a	204369.375	responseLargeT	correct	n/a	0.4917	no	n/a	n/a
799.3862305	n/a	204642.875	largeHSmallT	correct	incongruent	0.45215	no	H	T
799.8383789	n/a	204758.625	responseLargeH	correct	n/a	0.45215	no	n/a	n/a
800.9194336	n/a	205035.375	largeTSmallH	correct	incongruent	0.58447	no	T	H
801.5039062	n/a	205185	responseLargeT	correct	n/a	0.58447	no	n/a	n/a
802.5727539	n/a	205458.625	largeHSmallT	correct	incongruent	0.53174	no	H	T
803.1044922	n/a	205594.75	responseLargeH	correct	n/a	0.53174	no	n/a	n/a
804.1728516	n/a	205868.25	largeTSmallH	correct	incongruent	0.30664	no	T	H
804.4794922	n/a	205946.75	responseLargeT	correct	n/a	0.30664	no	n/a	n/a
805.5458984	n/a	206219.75	largeTSmallH	correct	incongruent	0.41309	no	T	H
805.9589844	n/a	206325.5	responseLargeT	correct	n/a	0.41309	no	n/a	n/a
807.0258789	n/a	206598.625	largeHSmallT	correct	incongruent	0.4082	no	H	T
807.434082	n/a	206703.125	responseLargeH	correct	n/a	0.4082	no	n/a	n/a
808.5058594	n/a	206977.5	largeHSmallH	correct	congruent	0.52197	no	H	H
809.027832	n/a	207111.125	responseLargeH	correct	n/a	0.52197	no	n/a	n/a
810.105957	n/a	207387.125	largeTSmallT	correct	congruent	0.40527	no	T	T
810.5112305	n/a	207490.875	responseLargeT	correct	n/a	0.40527	no	n/a	n/a
811.5859375	n/a	207766	largeHSmallH	correct	congruent	0.40918	no	H	H
811.9951172	n/a	207870.75	responseLargeH	correct	n/a	0.40918	no	n/a	n/a
813.065918	n/a	208144.875	largeHSmallT	correct	incongruent	0.39111	no	H	T
813.4570312	n/a	208245	responseLargeH	correct	n/a	0.39111	no	n/a	n/a
814.5322266	n/a	208520.25	largeTSmallH	error	incongruent	0.42627	no	T	H
814.9584961	n/a	208629.375	responseLargeH	error	n/a	0.42627	no	n/a	n/a
816.0258789	n/a	208902.625	largeHSmallH	correct	congruent	0.4458	no	H	H
816.4716797	n/a	209016.75	responseLargeH	correct	n/a	0.4458	no	n/a	n/a
817.5454102	n/a	209291.625	largeHSmallT	correct	incongruent	0.62646	no	H	T
818.171875	n/a	209452	responseLargeH	correct	n/a	0.62646	no	n/a	n/a
819.2387695	n/a	209725.125	largeTSmallT	correct	congruent	0.35693	no	T	T
819.5957031	n/a	209816.5	responseLargeT	correct	n/a	0.35693	no	n/a	n/a
820.6655273	n/a	210090.375	largeTSmallH	correct	incongruent	0.43945	no	T	H
821.1049805	n/a	210202.875	responseLargeT	correct	n/a	0.43945	no	n/a	n/a
822.1723633	n/a	210476.125	largeHSmallH	correct	congruent	0.44336	no	H	H
822.6157227	n/a	210589.625	responseLargeH	correct	n/a	0.44336	no	n/a	n/a
823.6923828	n/a	210865.25	largeTSmallH	correct	incongruent	0.41455	no	T	H
824.1069336	n/a	210971.375	responseLargeT	correct	n/a	0.41455	no	n/a	n/a
825.1723633	n/a	211244.125	largeTSmallH	correct	incongruent	0.42139	no	T	H
825.59375	n/a	211352	responseLargeT	correct	n/a	0.42139	no	n/a	n/a
826.6655273	n/a	211626.375	largeHSmallH	correct	congruent	0.46338	no	H	H
827.1289062	n/a	211745	responseLargeH	correct	n/a	0.46338	no	n/a	n/a
828.1987305	n/a	212018.875	largeTSmallT	correct	congruent	0.3208	no	T	T
828.5195312	n/a	212101	responseLargeT	correct	n/a	0.3208	no	n/a	n/a
829.5854492	n/a	212373.875	largeTSmallT	correct	congruent	0.354	no	T	T
829.9394531	n/a	212464.5	responseLargeT	correct	n/a	0.354	no	n/a	n/a
831.012207	n/a	212739.125	largeHSmallT	correct	incongruent	0.45312	no	H	T
831.465332	n/a	212855.125	responseLargeH	correct	n/a	0.45312	no	n/a	n/a
832.5322266	n/a	213128.25	largeHSmallH	correct	congruent	0.45264	no	H	H
832.9848633	n/a	213244.125	responseLargeH	correct	n/a	0.45264	no	n/a	n/a
834.0517578	n/a	213517.25	largeHSmallH	correct	congruent	0.44629	no	H	H
834.4980469	n/a	213631.5	responseLargeH	correct	n/a	0.44629	no	n/a	n/a
835.5585938	n/a	213903	largeHSmallT	correct	incongruent	0.44043	no	H	T
835.9990234	n/a	214015.75	responseLargeH	correct	n/a	0.44043	no	n/a	n/a
837.0786133	n/a	214292.125	largeHSmallT	correct	incongruent	0.41309	no	H	T
837.4916992	n/a	214397.875	responseLargeH	correct	n/a	0.41309	no	n/a	n/a
838.5585938	n/a	214671	largeTSmallH	correct	incongruent	0.43408	no	T	H
838.9926758	n/a	214782.125	responseLargeT	correct	n/a	0.43408	no	n/a	n/a
840.0649414	n/a	215056.625	largeTSmallT	correct	congruent	0.41064	no	T	T
840.4755859	n/a	215161.75	responseLargeT	correct	n/a	0.41064	no	n/a	n/a
841.5585938	n/a	215439	largeTSmallH	correct	incongruent	0.86035	no	T	H
842.4189453	n/a	215659.25	responseLargeT	correct	n/a	0.86035	no	n/a	n/a
843.4916992	n/a	215933.875	largeHSmallT	correct	incongruent	0.5752	no	H	T
844.0668945	n/a	216081.125	responseLargeH	correct	n/a	0.5752	no	n/a	n/a
845.1450195	n/a	216357.125	largeTSmallH	correct	incongruent	0.38281	no	T	H
845.527832	n/a	216455.125	responseLargeT	correct	n/a	0.38281	no	n/a	n/a
846.5981445	n/a	216729.125	largeHSmallH	error	congruent	0.36865	no	H	H
846.9667969	n/a	216823.5	responseLargeT	error	n/a	0.36865	no	n/a	n/a
848.0380859	n/a	217097.75	largeHSmallH	correct	congruent	0.43213	no	H	H
848.4702148	n/a	217208.375	responseLargeH	correct	n/a	0.43213	no	n/a	n/a
849.5449219	n/a	217483.5	largeTSmallT	correct	congruent	0.52148	no	T	T
850.0664062	n/a	217617	responseLargeT	correct	n/a	0.52148	no	n/a	n/a
851.1313477	n/a	217889.625	largeHSmallT	correct	incongruent	0.53271	no	H	T
851.6640625	n/a	218026	responseLargeH	correct	n/a	0.53271	no	n/a	n/a
852.7314453	n/a	218299.25	largeTSmallH	correct	incongruent	0.37207	no	T	H
853.1035156	n/a	218394.5	responseLargeT	correct	n/a	0.37207	no	n/a	n/a
854.1713867	n/a	218667.875	largeHSmallH	correct	congruent	0.39893	no	H	H
854.5703125	n/a	218770	responseLargeH	correct	n/a	0.39893	no	n/a	n/a
855.6381836	n/a	219043.375	largeHSmallT	error	incongruent	0.43848	no	H	T
856.0766602	n/a	219155.625	responseLargeT	error	n/a	0.43848	no	n/a	n/a
857.1577148	n/a	219432.375	largeHSmallT	correct	incongruent	0.49707	no	H	T
857.6547852	n/a	219559.625	responseLargeH	correct	n/a	0.49707	no	n/a	n/a
858.7314453	n/a	219835.25	largeTSmallH	error	incongruent	0.41699	no	T	H
859.1484375	n/a	219942	responseLargeH	error	n/a	0.41699	no	n/a	n/a
860.2246094	n/a	220217.5	largeHSmallT	correct	incongruent	0.45996	no	H	T
860.6845703	n/a	220335.25	responseLargeH	correct	n/a	0.45996	no	n/a	n/a
861.7578125	n/a	220610	largeHSmallT	correct	incongruent	0.5791	no	H	T
862.3369141	n/a	220758.25	responseLargeH	correct	n/a	0.5791	no	n/a	n/a
863.4111328	n/a	221033.25	largeHSmallH	correct	congruent	0.4707	no	H	H
863.8818359	n/a	221153.75	responseLargeH	correct	n/a	0.4707	no	n/a	n/a
864.9575195	n/a	221429.125	largeHSmallH	correct	congruent	0.43262	no	H	H
865.3901367	n/a	221539.875	responseLargeH	correct	n/a	0.43262	no	n/a	n/a
866.4643555	n/a	221814.875	largeTSmallT	correct	congruent	0.40332	no	T	T
866.8676758	n/a	221918.125	responseLargeT	correct	n/a	0.40332	no	n/a	n/a
867.9306641	n/a	222190.25	largeTSmallH	correct	incongruent	0.45654	no	T	H
868.387207	n/a	222307.125	responseLargeT	correct	n/a	0.45654	no	n/a	n/a
869.4643555	n/a	222582.875	largeTSmallH	correct	incongruent	0.47803	no	T	H
869.9423828	n/a	222705.25	responseLargeT	correct	n/a	0.47803	no	n/a	n/a
871.0244141	n/a	222982.25	largeTSmallT	correct	congruent	0.49658	no	T	T
871.5209961	n/a	223109.375	responseLargeT	correct	n/a	0.49658	no	n/a	n/a
872.5976562	n/a	223385	largeTSmallH	correct	incongruent	0.40088	no	T	H
872.9985352	n/a	223487.625	responseLargeT	correct	n/a	0.40088	no	n/a	n/a
874.0639648	n/a	223760.375	largeTSmallT	correct	congruent	0.36182	no	T	T
874.4257812	n/a	223853	responseLargeT	correct	n/a	0.36182	no	n/a	n/a
875.5043945	n/a	224129.125	largeTSmallT	correct	congruent	0.39893	no	T	T
875.9033203	n/a	224231.25	responseLargeT	correct	n/a	0.39893	no	n/a	n/a
876.9838867	n/a	224507.875	largeTSmallT	correct	congruent	0.35742	no	T	T
877.3413086	n/a	224599.375	responseLargeT	correct	n/a	0.35742	no	n/a	n/a
878.4106445	n/a	224873.125	largeHSmallT	correct	incongruent	0.67676	no	H	T
879.0874023	n/a	225046.375	responseLargeH	correct	n/a	0.67676	no	n/a	n/a
880.1577148	n/a	225320.375	largeTSmallH	error	incongruent	0.42969	no	T	H
880.5874023	n/a	225430.375	responseLargeH	error	n/a	0.42969	no	n/a	n/a
881.6640625	n/a	225706	largeTSmallH	correct	incongruent	0.59229	no	T	H
882.2563477	n/a	225857.625	responseLargeT	correct	n/a	0.59229	no	n/a	n/a
883.3305664	n/a	226132.625	largeTSmallT	correct	congruent	0.36914	no	T	T
883.699707	n/a	226227.125	responseLargeT	correct	n/a	0.36914	no	n/a	n/a
884.7705078	n/a	226501.25	largeHSmallH	correct	congruent	0.58447	no	H	H
885.3549805	n/a	226650.875	responseLargeH	correct	n/a	0.58447	no	n/a	n/a
886.4238281	n/a	226924.5	largeHSmallH	correct	congruent	0.47461	no	H	H
886.8984375	n/a	227046	responseLargeH	correct	n/a	0.47461	no	n/a	n/a
887.9570312	n/a	227317	largeHSmallH	correct	congruent	0.46045	no	H	H
888.4174805	n/a	227434.875	responseLargeH	correct	n/a	0.46045	no	n/a	n/a
889.4907227	n/a	227709.625	largeTSmallT	correct	congruent	0.45947	no	T	T
889.9501953	n/a	227827.25	responseLargeT	correct	n/a	0.45947	no	n/a	n/a
891.0239258	n/a	228102.125	largeTSmallH	correct	incongruent	0.46289	no	T	H
891.4868164	n/a	228220.625	responseLargeT	correct	n/a	0.46289	no	n/a	n/a
892.5703125	n/a	228498	largeTSmallT	correct	congruent	0.41504	no	T	T
892.9853516	n/a	228604.25	responseLargeT	correct	n/a	0.41504	no	n/a	n/a
894.0639648	n/a	228880.375	largeHSmallH	correct	congruent	0.48047	no	H	H
894.5444336	n/a	229003.375	responseLargeH	correct	n/a	0.48047	no	n/a	n/a
895.6235352	n/a	229279.625	largeTSmallT	correct	congruent	0.44971	no	T	T
896.0732422	n/a	229394.75	responseLargeT	correct	n/a	0.44971	no	n/a	n/a
897.1567383	n/a	229672.125	largeTSmallH	correct	incongruent	0.46143	no	T	H
897.6181641	n/a	229790.25	responseLargeT	correct	n/a	0.46143	no	n/a	n/a
898.6904297	n/a	230064.75	largeHSmallH	correct	congruent	0.39014	no	H	H
899.0805664	n/a	230164.625	responseLargeH	correct	n/a	0.39014	no	n/a	n/a
900.1435547	n/a	230436.75	largeTSmallH	correct	incongruent	0.57715	no	T	H
900.7207031	n/a	230584.5	responseLargeT	correct	n/a	0.57715	no	n/a	n/a
901.7832031	n/a	230856.5	largeHSmallT	correct	incongruent	0.55957	no	H	T
902.3427734	n/a	230999.75	responseLargeH	correct	n/a	0.55957	no	n/a	n/a
903.4101562	n/a	231273	largeHSmallT	correct	incongruent	0.44482	no	H	T
903.8549805	n/a	231386.875	responseLargeH	correct	n/a	0.44482	no	n/a	n/a
904.9165039	n/a	231658.625	largeHSmallT	correct	incongruent	0.47607	no	H	T
905.3925781	n/a	231780.5	responseLargeH	correct	n/a	0.47607	no	n/a	n/a
906.4633789	n/a	232054.625	largeTSmallT	correct	congruent	0.42871	no	T	T
906.8920898	n/a	232164.375	responseLargeT	correct	n/a	0.42871	no	n/a	n/a
907.956543	n/a	232436.875	largeHSmallT	correct	incongruent	0.50537	no	H	T
908.4619141	n/a	232566.25	responseLargeH	correct	n/a	0.50537	no	n/a	n/a
909.543457	n/a	232843.125	largeTSmallT	correct	congruent	0.49902	no	T	T
910.0424805	n/a	232970.875	responseLargeT	correct	n/a	0.49902	no	n/a	n/a
911.1162109	n/a	233245.75	largeHSmallT	correct	incongruent	0.41113	no	H	T
911.5273438	n/a	233351	responseLargeH	correct	n/a	0.41113	no	n/a	n/a
912.5961914	n/a	233624.625	largeHSmallH	correct	congruent	0.4668	no	H	H
913.0629883	n/a	233744.125	responseLargeH	correct	n/a	0.4668	no	n/a	n/a
914.1430664	n/a	234020.625	largeTSmallH	correct	incongruent	0.39355	no	T	H
914.5366211	n/a	234121.375	responseLargeT	correct	n/a	0.39355	no	n/a	n/a
915.6098633	n/a	234396.125	largeHSmallH	correct	congruent	0.3623	no	H	H
915.972168	n/a	234488.875	responseLargeH	correct	n/a	0.3623	no	n/a	n/a
917.0361328	n/a	234761.25	largeHSmallH	correct	congruent	0.38965	no	H	H
917.4257812	n/a	234861	responseLargeH	correct	n/a	0.38965	no	n/a	n/a
918.4897461	n/a	235133.375	largeHSmallH	correct	congruent	0.41211	no	H	H
918.9018555	n/a	235238.875	responseLargeH	correct	n/a	0.41211	no	n/a	n/a
919.9697266	n/a	235512.25	largeHSmallT	correct	incongruent	0.35254	no	H	T
920.3222656	n/a	235602.5	responseLargeH	correct	n/a	0.35254	no	n/a	n/a
921.3964844	n/a	235877.5	largeTSmallH	correct	incongruent	0.38184	no	T	H
921.7783203	n/a	235975.25	responseLargeT	correct	n/a	0.38184	no	n/a	n/a
922.8364258	n/a	236246.125	largeTSmallH	error	incongruent	0.38721	no	T	H
923.2236328	n/a	236345.25	responseLargeH	error	n/a	0.38721	no	n/a	n/a
924.2895508	n/a	236618.125	largeTSmallT	correct	congruent	0.53516	no	T	T
924.824707	n/a	236755.125	responseLargeT	correct	n/a	0.53516	no	n/a	n/a
925.902832	n/a	237031.125	largeHSmallH	error	congruent	0.4458	no	H	H
926.3486328	n/a	237145.25	responseLargeT	error	n/a	0.4458	no	n/a	n/a
927.409668	n/a	237416.875	largeTSmallT	correct	congruent	0.49023	no	T	T
927.8999023	n/a	237542.375	responseLargeT	correct	n/a	0.49023	no	n/a	n/a
928.9824219	n/a	237819.5	largeHSmallT	correct	incongruent	0.36914	no	H	T
929.3515625	n/a	237914	responseLargeH	correct	n/a	0.36914	no	n/a	n/a
930.4228516	n/a	238188.25	largeTSmallT	correct	congruent	0.39014	no	T	T
930.8129883	n/a	238288.125	responseLargeT	correct	n/a	0.39014	no	n/a	n/a
931.8759766	n/a	238560.25	largeTSmallT	correct	congruent	0.57275	no	T	T
932.4487305	n/a	238706.875	responseLargeT	correct	n/a	0.57275	no	n/a	n/a
933.5161133	n/a	238980.125	largeHSmallT	correct	incongruent	0.37061	no	H	T
933.8867188	n/a	239075	responseLargeH	correct	n/a	0.37061	no	n/a	n/a
934.9692383	n/a	239352.125	largeHSmallH	correct	congruent	0.44287	no	H	H
935.4121094	n/a	239465.5	responseLargeH	correct	n/a	0.44287	no	n/a	n/a
936.4755859	n/a	239737.75	largeTSmallH	correct	incongruent	0.52686	no	T	H
937.0024414	n/a	239872.625	responseLargeT	correct	n/a	0.52686	no	n/a	n/a
938.0756836	n/a	240147.375	largeTSmallT	correct	congruent	0.42822	no	T	T
938.5039062	n/a	240257	responseLargeT	correct	n/a	0.42822	no	n/a	n/a
939.5688477	n/a	240529.625	largeHSmallH	correct	congruent	0.48877	no	H	H
940.0576172	n/a	240654.75	responseLargeH	correct	n/a	0.48877	no	n/a	n/a
941.1289062	n/a	240929	largeTSmallT	correct	congruent	0.38672	no	T	T
941.515625	n/a	241028	responseLargeT	correct	n/a	0.38672	no	n/a	n/a
942.5957031	n/a	241304.5	largeTSmallH	correct	incongruent	0.59863	no	T	H
943.1943359	n/a	241457.75	responseLargeT	correct	n/a	0.59863	no	n/a	n/a
944.262207	n/a	241731.125	largeHSmallH	correct	congruent	0.42969	no	H	H
944.6918945	n/a	241841.125	responseLargeH	correct	n/a	0.42969	no	n/a	n/a
945.7553711	n/a	242113.375	largeHSmallT	error	incongruent	0.39062	no	H	T
946.1459961	n/a	242213.375	responseLargeT	error	n/a	0.39062	no	n/a	n/a
947.2089844	n/a	242485.5	largeTSmallH	correct	incongruent	0.45264	no	T	H
947.6616211	n/a	242601.375	responseLargeT	correct	n/a	0.45264	no	n/a	n/a
951.8754883	n/a	243680.125	largeTSmallH	correct	incongruent	0.94727	no	T	H
952.8227539	n/a	243922.625	responseSmallH	correct	n/a	0.94727	no	n/a	n/a
953.8886719	n/a	244195.5	largeTSmallT	correct	congruent	0.55811	no	T	T
954.4467773	n/a	244338.375	responseSmallT	correct	n/a	0.55811	no	n/a	n/a
955.5151367	n/a	244611.875	largeTSmallH	correct	incongruent	0.49805	no	T	H
956.0131836	n/a	244739.375	responseSmallH	correct	n/a	0.49805	no	n/a	n/a
957.0883789	n/a	245014.625	largeTSmallT	correct	congruent	0.48193	no	T	T
957.5703125	n/a	245138	responseSmallT	correct	n/a	0.48193	no	n/a	n/a
958.6484375	n/a	245414	largeHSmallH	correct	congruent	0.4458	no	H	H
959.0942383	n/a	245528.125	responseSmallH	correct	n/a	0.4458	no	n/a	n/a
960.1552734	n/a	245799.75	largeHSmallT	correct	incongruent	0.4834	no	H	T
960.6386719	n/a	245923.5	responseSmallT	correct	n/a	0.4834	no	n/a	n/a
961.7016602	n/a	246195.625	largeHSmallH	correct	congruent	0.39697	no	H	H
962.0986328	n/a	246297.25	responseSmallH	correct	n/a	0.39697	no	n/a	n/a
963.168457	n/a	246571.125	largeTSmallT	correct	congruent	0.45947	no	T	T
963.6279297	n/a	246688.75	responseSmallT	correct	n/a	0.45947	no	n/a	n/a
964.7016602	n/a	246963.625	largeTSmallH	correct	incongruent	0.41748	no	T	H
965.1191406	n/a	247070.5	responseSmallH	correct	n/a	0.41748	no	n/a	n/a
966.1948242	n/a	247345.875	largeHSmallT	error	incongruent	0.46777	no	H	T
966.6625977	n/a	247465.625	responseSmallH	error	n/a	0.46777	no	n/a	n/a
967.7280273	n/a	247738.375	largeHSmallH	correct	congruent	0.54297	no	H	H
968.2709961	n/a	247877.375	responseSmallH	correct	n/a	0.54297	no	n/a	n/a
969.3417969	n/a	248151.5	largeTSmallT	correct	congruent	0.46045	no	T	T
969.8022461	n/a	248269.375	responseSmallT	correct	n/a	0.46045	no	n/a	n/a
970.875	n/a	248544	largeTSmallH	correct	incongruent	0.61963	no	T	H
971.4946289	n/a	248702.625	responseSmallH	correct	n/a	0.61963	no	n/a	n/a
972.5551758	n/a	248974.125	largeTSmallT	correct	congruent	0.43506	no	T	T
972.9902344	n/a	249085.5	responseSmallT	correct	n/a	0.43506	no	n/a	n/a
974.0615234	n/a	249359.75	largeHSmallT	correct	incongruent	0.51123	no	H	T
974.5727539	n/a	249490.625	responseSmallT	correct	n/a	0.51123	no	n/a	n/a
975.6479492	n/a	249765.875	largeHSmallT	correct	incongruent	0.44678	no	H	T
976.0947266	n/a	249880.25	responseSmallT	correct	n/a	0.44678	no	n/a	n/a
977.1679688	n/a	250155	largeHSmallT	correct	incongruent	0.43115	no	H	T
977.5991211	n/a	250265.375	responseSmallT	correct	n/a	0.43115	no	n/a	n/a
978.6748047	n/a	250540.75	largeHSmallT	correct	incongruent	0.45752	no	H	T
979.1323242	n/a	250657.875	responseSmallT	correct	n/a	0.45752	no	n/a	n/a
980.2080078	n/a	250933.25	largeHSmallH	correct	congruent	0.42773	no	H	H
980.6357422	n/a	251042.75	responseSmallH	correct	n/a	0.42773	no	n/a	n/a
981.7011719	n/a	251315.5	largeHSmallT	correct	incongruent	0.48242	no	H	T
982.1835938	n/a	251439	responseSmallT	correct	n/a	0.48242	no	n/a	n/a
983.2480469	n/a	251711.5	largeHSmallT	correct	incongruent	0.49121	no	H	T
983.7392578	n/a	251837.25	responseSmallT	correct	n/a	0.49121	no	n/a	n/a
984.8076172	n/a	252110.75	largeTSmallH	correct	incongruent	0.45312	no	T	H
985.2607422	n/a	252226.75	responseSmallH	correct	n/a	0.45312	no	n/a	n/a
986.3413086	n/a	252503.375	largeHSmallT	correct	incongruent	0.51221	no	H	T
986.8535156	n/a	252634.5	responseSmallT	correct	n/a	0.51221	no	n/a	n/a
987.9277344	n/a	252909.5	largeHSmallH	correct	congruent	0.39355	no	H	H
988.3212891	n/a	253010.25	responseSmallH	correct	n/a	0.39355	no	n/a	n/a
989.3945312	n/a	253285	largeTSmallH	correct	incongruent	0.3667	no	T	H
989.7612305	n/a	253378.875	responseSmallH	correct	n/a	0.3667	no	n/a	n/a
990.8344727	n/a	253653.625	largeTSmallT	correct	congruent	0.45801	no	T	T
991.2924805	n/a	253770.875	responseSmallT	correct	n/a	0.45801	no	n/a	n/a
992.3540039	n/a	254042.625	largeTSmallT	correct	congruent	0.47803	no	T	T
992.8320312	n/a	254165	responseSmallT	correct	n/a	0.47803	no	n/a	n/a
993.9008789	n/a	254438.625	largeTSmallT	correct	congruent	0.38037	no	T	T
994.28125	n/a	254536	responseSmallT	correct	n/a	0.38037	no	n/a	n/a
995.3544922	n/a	254810.75	largeHSmallT	correct	incongruent	0.5083	no	H	T
995.862793	n/a	254940.875	responseSmallT	correct	n/a	0.5083	no	n/a	n/a
996.9277344	n/a	255213.5	largeHSmallH	error	congruent	0.45703	no	H	H
997.3847656	n/a	255330.5	responseSmallT	error	n/a	0.45703	no	n/a	n/a
998.4609375	n/a	255606	largeHSmallH	correct	congruent	0.55811	no	H	H
999.019043	n/a	255748.875	responseSmallH	correct	n/a	0.55811	no	n/a	n/a
1000.100586	n/a	256025.75	largeHSmallH	correct	congruent	0.54395	no	H	H
1000.644531	n/a	256165	responseSmallH	correct	n/a	0.54395	no	n/a	n/a
1001.713867	n/a	256438.75	largeTSmallH	correct	incongruent	0.46436	no	T	H
1002.178223	n/a	256557.625	responseSmallH	correct	n/a	0.46436	no	n/a	n/a
1003.247559	n/a	256831.375	largeHSmallH	correct	congruent	0.50049	no	H	H
1003.748047	n/a	256959.5	responseSmallH	correct	n/a	0.50049	no	n/a	n/a
1004.820801	n/a	257234.125	largeTSmallT	correct	congruent	0.42725	no	T	T
1005.248047	n/a	257343.5	responseSmallT	correct	n/a	0.42725	no	n/a	n/a
1006.327148	n/a	257619.75	largeHSmallT	correct	incongruent	0.48682	no	H	T
1006.813965	n/a	257744.375	responseSmallT	correct	n/a	0.48682	no	n/a	n/a
1007.887207	n/a	258019.125	largeHSmallT	correct	incongruent	0.45703	no	H	T
1008.344238	n/a	258136.125	responseSmallT	correct	n/a	0.45703	no	n/a	n/a
1009.407227	n/a	258408.25	largeHSmallH	correct	congruent	0.48145	no	H	H
1009.888672	n/a	258531.5	responseSmallH	correct	n/a	0.48145	no	n/a	n/a
1010.953613	n/a	258804.125	largeHSmallT	correct	incongruent	0.45703	no	H	T
1011.410645	n/a	258921.125	responseSmallT	correct	n/a	0.45703	no	n/a	n/a
1012.487305	n/a	259196.75	largeHSmallH	correct	congruent	0.53955	no	H	H
1013.026855	n/a	259334.875	responseSmallH	correct	n/a	0.53955	no	n/a	n/a
1014.100098	n/a	259609.625	largeTSmallH	correct	incongruent	0.47412	no	T	H
1014.574219	n/a	259731	responseSmallH	correct	n/a	0.47412	no	n/a	n/a
1015.646973	n/a	260005.625	largeTSmallT	correct	congruent	0.44336	no	T	T
1016.090332	n/a	260119.125	responseSmallT	correct	n/a	0.44336	no	n/a	n/a
1017.166992	n/a	260394.75	largeTSmallT	correct	congruent	0.52393	no	T	T
1017.690918	n/a	260528.875	responseSmallT	correct	n/a	0.52393	no	n/a	n/a
1018.76709	n/a	260804.375	largeHSmallH	correct	congruent	0.56885	no	H	H
1019.335938	n/a	260950	responseSmallH	correct	n/a	0.56885	no	n/a	n/a
1020.407227	n/a	261224.25	largeTSmallT	correct	congruent	0.46338	no	T	T
1020.870605	n/a	261342.875	responseSmallT	correct	n/a	0.46338	no	n/a	n/a
1021.939941	n/a	261616.625	largeHSmallT	correct	incongruent	0.49268	no	H	T
1022.432617	n/a	261742.75	responseSmallT	correct	n/a	0.49268	no	n/a	n/a
1023.5	n/a	262016	largeHSmallT	correct	incongruent	0.49658	no	H	T
1023.996582	n/a	262143.125	responseSmallT	correct	n/a	0.49658	no	n/a	n/a
1025.073242	n/a	262418.75	largeTSmallT	correct	congruent	0.53125	no	T	T
1025.604492	n/a	262554.75	responseSmallT	correct	n/a	0.53125	no	n/a	n/a
1026.67334	n/a	262828.375	largeHSmallH	correct	congruent	0.42676	no	H	H
1027.100098	n/a	262937.625	responseSmallH	correct	n/a	0.42676	no	n/a	n/a
1028.180176	n/a	263214.125	largeHSmallH	correct	congruent	0.4292	no	H	H
1028.609375	n/a	263324	responseSmallH	correct	n/a	0.4292	no	n/a	n/a
1029.67334	n/a	263596.375	largeTSmallT	correct	congruent	0.36182	no	T	T
1030.035156	n/a	263689	responseSmallT	correct	n/a	0.36182	no	n/a	n/a
1031.113281	n/a	263965	largeTSmallH	correct	incongruent	0.47412	no	T	H
1031.587402	n/a	264086.375	responseSmallH	correct	n/a	0.47412	no	n/a	n/a
1032.660156	n/a	264361	largeTSmallH	correct	incongruent	0.48389	no	T	H
1033.144043	n/a	264484.875	responseSmallH	correct	n/a	0.48389	no	n/a	n/a
1034.219727	n/a	264760.25	largeTSmallT	correct	congruent	0.55762	no	T	T
1034.777344	n/a	264903	responseSmallT	correct	n/a	0.55762	no	n/a	n/a
1035.846191	n/a	265176.625	largeHSmallH	correct	congruent	0.49805	no	H	H
1036.344238	n/a	265304.125	responseSmallH	correct	n/a	0.49805	no	n/a	n/a
1037.40625	n/a	265576	largeHSmallH	correct	congruent	0.4209	no	H	H
1037.827148	n/a	265683.75	responseSmallH	correct	n/a	0.4209	no	n/a	n/a
1038.899902	n/a	265958.375	largeTSmallH	correct	incongruent	0.3916	no	T	H
1039.291504	n/a	266058.625	responseSmallH	correct	n/a	0.3916	no	n/a	n/a
1040.366211	n/a	266333.75	largeTSmallT	correct	congruent	0.46875	no	T	T
1040.834961	n/a	266453.75	responseSmallT	correct	n/a	0.46875	no	n/a	n/a
1041.899902	n/a	266726.375	largeHSmallH	correct	congruent	0.46729	no	H	H
1042.367188	n/a	266846	responseSmallH	correct	n/a	0.46729	no	n/a	n/a
1043.433105	n/a	267118.875	largeHSmallH	correct	congruent	0.41748	no	H	H
1043.850586	n/a	267225.75	responseSmallH	correct	n/a	0.41748	no	n/a	n/a
1044.913086	n/a	267497.75	largeHSmallH	correct	congruent	0.37891	no	H	H
1045.291992	n/a	267594.75	responseSmallH	correct	n/a	0.37891	no	n/a	n/a
1046.366211	n/a	267869.75	largeHSmallH	correct	congruent	0.41943	no	H	H
1046.785645	n/a	267977.125	responseSmallH	correct	n/a	0.41943	no	n/a	n/a
1047.859375	n/a	268252	largeTSmallH	correct	incongruent	0.39648	no	T	H
1048.255859	n/a	268353.5	responseSmallH	correct	n/a	0.39648	no	n/a	n/a
1049.326172	n/a	268627.5	largeTSmallT	correct	congruent	0.42188	no	T	T
1049.748047	n/a	268735.5	responseSmallT	correct	n/a	0.42188	no	n/a	n/a
1050.806152	n/a	269006.375	largeTSmallH	correct	incongruent	0.40137	no	T	H
1051.20752	n/a	269109.125	responseSmallH	correct	n/a	0.40137	no	n/a	n/a
1052.272461	n/a	269381.75	largeHSmallT	correct	incongruent	0.41357	no	H	T
1052.686035	n/a	269487.625	responseSmallT	correct	n/a	0.41357	no	n/a	n/a
1053.766113	n/a	269764.125	largeHSmallH	correct	congruent	0.46484	no	H	H
1054.230957	n/a	269883.125	responseSmallH	correct	n/a	0.46484	no	n/a	n/a
1055.299316	n/a	270156.625	largeTSmallT	correct	congruent	0.48535	no	T	T
1055.784668	n/a	270280.875	responseSmallT	correct	n/a	0.48535	no	n/a	n/a
1056.845703	n/a	270552.5	largeHSmallT	correct	incongruent	0.49121	no	H	T
1057.336914	n/a	270678.25	responseSmallT	correct	n/a	0.49121	no	n/a	n/a
1058.405762	n/a	270951.875	largeHSmallT	correct	incongruent	0.4043	no	H	T
1058.810059	n/a	271055.375	responseSmallT	correct	n/a	0.4043	no	n/a	n/a
1059.872559	n/a	271327.375	largeTSmallH	correct	incongruent	0.49609	no	T	H
1060.368652	n/a	271454.375	responseSmallH	correct	n/a	0.49609	no	n/a	n/a
1061.432617	n/a	271726.75	largeHSmallT	correct	incongruent	0.52002	no	H	T
1061.952637	n/a	271859.875	responseSmallT	correct	n/a	0.52002	no	n/a	n/a
1063.019043	n/a	272132.875	largeHSmallH	correct	congruent	0.40381	no	H	H
1063.422852	n/a	272236.25	responseSmallH	correct	n/a	0.40381	no	n/a	n/a
1064.48584	n/a	272508.375	largeTSmallH	correct	incongruent	0.3916	no	T	H
1064.877441	n/a	272608.625	responseSmallH	correct	n/a	0.3916	no	n/a	n/a
1065.938965	n/a	272880.375	largeTSmallT	correct	congruent	0.92871	no	T	T
1066.867676	n/a	273118.125	responseSmallT	correct	n/a	0.92871	no	n/a	n/a
1067.938965	n/a	273392.375	largeTSmallH	correct	incongruent	0.35889	no	T	H
1068.297852	n/a	273484.25	responseSmallH	correct	n/a	0.35889	no	n/a	n/a
1069.378906	n/a	273761	largeHSmallT	correct	incongruent	0.43018	no	H	T
1069.809082	n/a	273871.125	responseSmallT	correct	n/a	0.43018	no	n/a	n/a
1070.87207	n/a	274143.25	largeTSmallT	correct	congruent	0.47607	no	T	T
1071.348145	n/a	274265.125	responseSmallT	correct	n/a	0.47607	no	n/a	n/a
1072.418945	n/a	274539.25	largeHSmallT	error	incongruent	0.37744	no	H	T
1072.796387	n/a	274635.875	responseSmallH	error	n/a	0.37744	no	n/a	n/a
1073.87207	n/a	274911.25	largeHSmallH	correct	congruent	0.43506	no	H	H
1074.307129	n/a	275022.625	responseSmallH	correct	n/a	0.43506	no	n/a	n/a
1075.378906	n/a	275297	largeHSmallT	correct	incongruent	0.52295	no	H	T
1075.901855	n/a	275430.875	responseSmallT	correct	n/a	0.52295	no	n/a	n/a
1076.978516	n/a	275706.5	largeTSmallT	correct	congruent	0.53564	no	T	T
1077.51416	n/a	275843.625	responseSmallT	correct	n/a	0.53564	no	n/a	n/a
1078.578613	n/a	276116.125	largeTSmallT	correct	congruent	0.47949	no	T	T
1079.058105	n/a	276238.875	responseSmallT	correct	n/a	0.47949	no	n/a	n/a
1080.125488	n/a	276512.125	largeTSmallT	correct	congruent	0.46777	no	T	T
1080.593262	n/a	276631.875	responseSmallT	correct	n/a	0.46777	no	n/a	n/a
1081.671875	n/a	276908	largeTSmallH	correct	incongruent	0.45068	no	T	H
1082.122559	n/a	277023.375	responseSmallH	correct	n/a	0.45068	no	n/a	n/a
1083.191895	n/a	277297.125	largeHSmallT	correct	incongruent	0.46973	no	H	T
1083.661621	n/a	277417.375	responseSmallT	correct	n/a	0.46973	no	n/a	n/a
1084.725098	n/a	277689.625	largeTSmallT	correct	congruent	0.44434	no	T	T
1085.169434	n/a	277803.375	responseSmallT	correct	n/a	0.44434	no	n/a	n/a
1086.231934	n/a	278075.375	largeTSmallH	correct	incongruent	0.47266	no	T	H
1086.70459	n/a	278196.375	responseSmallH	correct	n/a	0.47266	no	n/a	n/a
1087.77832	n/a	278471.25	largeTSmallT	correct	congruent	0.48242	no	T	T
1088.260742	n/a	278594.75	responseSmallT	correct	n/a	0.48242	no	n/a	n/a
1089.325195	n/a	278867.25	largeHSmallT	correct	incongruent	0.50635	no	H	T
1089.831543	n/a	278996.875	responseSmallT	correct	n/a	0.50635	no	n/a	n/a
1090.898438	n/a	279270	largeHSmallH	correct	congruent	0.5083	no	H	H
1091.406738	n/a	279400.125	responseSmallH	correct	n/a	0.5083	no	n/a	n/a
1092.484863	n/a	279676.125	largeTSmallH	correct	incongruent	0.45898	no	T	H
1092.943848	n/a	279793.625	responseSmallH	correct	n/a	0.45898	no	n/a	n/a
1094.004883	n/a	280065.25	largeHSmallH	correct	congruent	0.41357	no	H	H
1094.418457	n/a	280171.125	responseSmallH	correct	n/a	0.41357	no	n/a	n/a
1095.484863	n/a	280444.125	largeTSmallT	correct	congruent	0.40625	no	T	T
1095.891113	n/a	280548.125	responseSmallT	correct	n/a	0.40625	no	n/a	n/a
1096.95166	n/a	280819.625	largeTSmallH	correct	incongruent	0.50244	no	T	H
1097.454102	n/a	280948.25	responseSmallH	correct	n/a	0.50244	no	n/a	n/a
1098.538086	n/a	281225.75	largeTSmallH	correct	incongruent	0.44141	no	T	H
1098.979492	n/a	281338.75	responseSmallH	correct	n/a	0.44141	no	n/a	n/a
