onset	duration	sample	value	response_type	congruence	response_time	response_out_of_range	largeletter	smallletter
21.58837891	n/a	5526.625	largeHSmallH	correct	congruent	1.3271	no	H	H
22.91552734	n/a	5866.375	responseLargeH	correct	n/a	1.3271	no	n/a	n/a
24	n/a	6144	largeHSmallT	correct	incongruent	1.1763	no	H	T
25.17626953	n/a	6445.125	responseLargeH	correct	n/a	1.1763	no	n/a	n/a
26.25341797	n/a	6720.875	largeHSmallH	correct	congruent	0.63965	no	H	H
26.89306641	n/a	6884.625	responseLargeH	correct	n/a	0.63965	no	n/a	n/a
27.97314453	n/a	7161.125	largeTSmallH	correct	incongruent	1.1758	no	T	H
29.14892578	n/a	7462.125	responseLargeT	correct	n/a	1.1758	no	n/a	n/a
30.21337891	n/a	7734.625	largeTSmallT	correct	congruent	0.95068	no	T	T
31.1640625	n/a	7978	responseLargeT	correct	n/a	0.95068	no	n/a	n/a
32.2265625	n/a	8250	largeTSmallH	correct	incongruent	0.74512	no	T	H
32.97167969	n/a	8440.75	responseLargeT	correct	n/a	0.74512	no	n/a	n/a
34.03955078	n/a	8714.125	largeTSmallH	correct	incongruent	0.60059	no	T	H
34.64013672	n/a	8867.875	responseLargeT	correct	n/a	0.60059	no	n/a	n/a
35.70654297	n/a	9140.875	largeTSmallT	correct	congruent	0.42529	no	T	T
36.13183594	n/a	9249.75	responseLargeT	correct	n/a	0.42529	no	n/a	n/a
37.19970703	n/a	9523.125	largeTSmallH	correct	incongruent	0.77539	no	T	H
37.97509766	n/a	9721.625	responseLargeT	correct	n/a	0.77539	no	n/a	n/a
39.03955078	n/a	9994.125	largeTSmallT	correct	congruent	0.54785	no	T	T
39.58740234	n/a	10134.375	responseLargeT	correct	n/a	0.54785	no	n/a	n/a
40.65283203	n/a	10407.125	largeTSmallT	correct	congruent	0.38428	no	T	T
41.03710938	n/a	10505.5	responseLargeT	correct	n/a	0.38428	no	n/a	n/a
42.10595703	n/a	10779.125	largeTSmallT	correct	congruent	0.38281	no	T	T
42.48876953	n/a	10877.125	responseLargeT	correct	n/a	0.38281	no	n/a	n/a
43.55957031	n/a	11151.25	largeHSmallT	correct	incongruent	2.7246	yes	H	T
46.28417969	n/a	11848.75	responseLargeH	correct	n/a	2.7246	yes	n/a	n/a
47.359375	n/a	12124	largeTSmallT	correct	congruent	1.0776	no	T	T
48.43701172	n/a	12399.875	responseLargeT	correct	n/a	1.0776	no	n/a	n/a
49.50585938	n/a	12673.5	largeTSmallT	correct	congruent	0.49365	no	T	T
49.99951172	n/a	12799.875	responseLargeT	correct	n/a	0.49365	no	n/a	n/a
51.06591797	n/a	13072.875	largeHSmallH	error	congruent	0.39307	no	H	H
51.45898438	n/a	13173.5	responseLargeT	error	n/a	0.39307	no	n/a	n/a
52.51953125	n/a	13445	largeHSmallH	correct	congruent	0.90967	no	H	H
53.42919922	n/a	13677.875	responseLargeH	correct	n/a	0.90967	no	n/a	n/a
54.50585938	n/a	13953.5	largeTSmallH	correct	incongruent	0.71826	no	T	H
55.22412109	n/a	14137.375	responseLargeT	correct	n/a	0.71826	no	n/a	n/a
56.29248047	n/a	14410.875	largeHSmallT	correct	incongruent	0.76465	no	H	T
57.05712891	n/a	14606.625	responseLargeH	correct	n/a	0.76465	no	n/a	n/a
58.11914062	n/a	14878.5	largeTSmallT	correct	congruent	0.62256	no	T	T
58.74169922	n/a	15037.875	responseLargeT	correct	n/a	0.62256	no	n/a	n/a
59.8125	n/a	15312	largeHSmallH	correct	congruent	1.0063	no	H	H
60.81884766	n/a	15569.625	responseLargeH	correct	n/a	1.0063	no	n/a	n/a
61.87890625	n/a	15841	largeTSmallH	correct	incongruent	1.4331	no	T	H
63.31201172	n/a	16207.875	responseLargeT	correct	n/a	1.4331	no	n/a	n/a
64.38574219	n/a	16482.75	largeHSmallT	correct	incongruent	1.1401	no	H	T
65.52587891	n/a	16774.625	responseLargeH	correct	n/a	1.1401	no	n/a	n/a
66.59863281	n/a	17049.25	largeHSmallH	correct	congruent	0.58203	no	H	H
67.18066406	n/a	17198.25	responseLargeH	correct	n/a	0.58203	no	n/a	n/a
68.25244141	n/a	17472.625	largeTSmallH	correct	incongruent	0.60986	no	T	H
68.86230469	n/a	17628.75	responseLargeT	correct	n/a	0.60986	no	n/a	n/a
69.93212891	n/a	17902.625	largeHSmallT	correct	incongruent	0.70264	no	H	T
70.63476562	n/a	18082.5	responseLargeH	correct	n/a	0.70264	no	n/a	n/a
71.70556641	n/a	18356.625	largeTSmallH	correct	incongruent	0.61963	no	T	H
72.32519531	n/a	18515.25	responseLargeT	correct	n/a	0.61963	no	n/a	n/a
73.39892578	n/a	18790.125	largeTSmallH	correct	incongruent	0.65723	no	T	H
74.05615234	n/a	18958.375	responseLargeT	correct	n/a	0.65723	no	n/a	n/a
75.13232422	n/a	19233.875	largeTSmallH	correct	incongruent	0.68506	no	T	H
75.81738281	n/a	19409.25	responseLargeT	correct	n/a	0.68506	no	n/a	n/a
76.89208984	n/a	19684.375	largeTSmallT	correct	congruent	0.47998	no	T	T
77.37207031	n/a	19807.25	responseLargeT	correct	n/a	0.47998	no	n/a	n/a
78.43847656	n/a	20080.25	largeTSmallH	correct	incongruent	0.36279	no	T	H
78.80126953	n/a	20173.125	responseLargeT	correct	n/a	0.36279	no	n/a	n/a
79.87890625	n/a	20449	largeHSmallT	error	incongruent	0.32031	no	H	T
80.19921875	n/a	20531	responseLargeT	error	n/a	0.32031	no	n/a	n/a
81.27880859	n/a	20807.375	largeHSmallH	correct	congruent	0.60449	no	H	H
81.88330078	n/a	20962.125	responseLargeH	correct	n/a	0.60449	no	n/a	n/a
82.95849609	n/a	21237.375	largeHSmallH	correct	congruent	0.46777	no	H	H
83.42626953	n/a	21357.125	responseLargeH	correct	n/a	0.46777	no	n/a	n/a
84.50537109	n/a	21633.375	largeHSmallT	correct	incongruent	0.43604	no	H	T
84.94140625	n/a	21745	responseLargeH	correct	n/a	0.43604	no	n/a	n/a
86.02539062	n/a	22022.5	largeHSmallT	correct	incongruent	0.37451	no	H	T
86.39990234	n/a	22118.375	responseLargeH	correct	n/a	0.37451	no	n/a	n/a
87.46484375	n/a	22391	largeHSmallT	correct	incongruent	0.64404	no	H	T
88.10888672	n/a	22555.875	responseLargeH	correct	n/a	0.64404	no	n/a	n/a
89.18505859	n/a	22831.375	largeHSmallH	correct	congruent	0.36523	no	H	H
89.55029297	n/a	22924.875	responseLargeH	correct	n/a	0.36523	no	n/a	n/a
90.625	n/a	23200	largeHSmallT	correct	incongruent	0.39062	no	H	T
91.015625	n/a	23300	responseLargeH	correct	n/a	0.39062	no	n/a	n/a
92.09179688	n/a	23575.5	largeTSmallT	error	congruent	0.40967	no	T	T
92.50146484	n/a	23680.375	responseLargeH	error	n/a	0.40967	no	n/a	n/a
93.57177734	n/a	23954.375	largeTSmallH	correct	incongruent	1.6108	yes	T	H
95.18261719	n/a	24366.75	responseLargeT	correct	n/a	1.6108	yes	n/a	n/a
96.25195312	n/a	24640.5	largeTSmallT	correct	congruent	0.73486	no	T	T
96.98681641	n/a	24828.625	responseLargeT	correct	n/a	0.73486	no	n/a	n/a
98.06494141	n/a	25104.625	largeTSmallH	correct	incongruent	0.63428	no	T	H
98.69921875	n/a	25267	responseLargeT	correct	n/a	0.63428	no	n/a	n/a
99.77148438	n/a	25541.5	largeTSmallH	correct	incongruent	0.39062	no	T	H
100.1621094	n/a	25641.5	responseLargeT	correct	n/a	0.39062	no	n/a	n/a
101.2250977	n/a	25913.625	largeHSmallH	correct	congruent	0.57324	no	H	H
101.7983398	n/a	26060.375	responseLargeH	correct	n/a	0.57324	no	n/a	n/a
102.8647461	n/a	26333.375	largeTSmallT	correct	congruent	0.42432	no	T	T
103.2890625	n/a	26442	responseLargeT	correct	n/a	0.42432	no	n/a	n/a
104.3579102	n/a	26715.625	largeHSmallT	correct	incongruent	0.68701	no	H	T
105.0449219	n/a	26891.5	responseLargeH	correct	n/a	0.68701	no	n/a	n/a
106.1049805	n/a	27162.875	largeHSmallT	correct	incongruent	0.53613	no	H	T
106.6411133	n/a	27300.125	responseLargeH	correct	n/a	0.53613	no	n/a	n/a
107.7182617	n/a	27575.875	largeTSmallH	correct	incongruent	0.69287	no	T	H
108.4111328	n/a	27753.25	responseLargeT	correct	n/a	0.69287	no	n/a	n/a
109.4780273	n/a	28026.375	largeHSmallT	correct	incongruent	0.41357	no	H	T
109.8916016	n/a	28132.25	responseLargeH	correct	n/a	0.41357	no	n/a	n/a
110.9580078	n/a	28405.25	largeHSmallT	correct	incongruent	0.5708	no	H	T
111.5288086	n/a	28551.375	responseLargeH	correct	n/a	0.5708	no	n/a	n/a
112.5976562	n/a	28825	largeHSmallH	correct	congruent	0.39453	no	H	H
112.9921875	n/a	28926	responseLargeH	correct	n/a	0.39453	no	n/a	n/a
114.0644531	n/a	29200.5	largeTSmallT	correct	congruent	0.5874	no	T	T
114.6518555	n/a	29350.875	responseLargeT	correct	n/a	0.5874	no	n/a	n/a
115.7177734	n/a	29623.75	largeTSmallH	correct	incongruent	0.56006	no	T	H
116.277832	n/a	29767.125	responseLargeT	correct	n/a	0.56006	no	n/a	n/a
117.3442383	n/a	30040.125	largeHSmallH	correct	congruent	0.59082	no	H	H
117.9350586	n/a	30191.375	responseLargeH	correct	n/a	0.59082	no	n/a	n/a
119.0112305	n/a	30466.875	largeHSmallH	correct	congruent	0.59326	no	H	H
119.6044922	n/a	30618.75	responseLargeH	correct	n/a	0.59326	no	n/a	n/a
120.6777344	n/a	30893.5	largeHSmallT	correct	incongruent	0.40723	no	H	T
121.0849609	n/a	30997.75	responseLargeH	correct	n/a	0.40723	no	n/a	n/a
122.1577148	n/a	31272.375	largeTSmallH	correct	incongruent	0.62109	no	T	H
122.7788086	n/a	31431.375	responseLargeT	correct	n/a	0.62109	no	n/a	n/a
123.8510742	n/a	31705.875	largeTSmallT	correct	congruent	0.61328	no	T	T
124.4643555	n/a	31862.875	responseLargeT	correct	n/a	0.61328	no	n/a	n/a
125.5307617	n/a	32135.875	largeTSmallH	correct	incongruent	0.4873	no	T	H
126.0180664	n/a	32260.625	responseLargeT	correct	n/a	0.4873	no	n/a	n/a
127.0908203	n/a	32535.25	largeTSmallH	correct	incongruent	0.44287	no	T	H
127.5336914	n/a	32648.625	responseLargeT	correct	n/a	0.44287	no	n/a	n/a
128.597168	n/a	32920.875	largeTSmallH	correct	incongruent	0.45703	no	T	H
129.0541992	n/a	33037.875	responseLargeT	correct	n/a	0.45703	no	n/a	n/a
130.1171875	n/a	33310	largeTSmallT	correct	congruent	0.46289	no	T	T
130.5800781	n/a	33428.5	responseLargeT	correct	n/a	0.46289	no	n/a	n/a
131.6508789	n/a	33702.625	largeHSmallT	correct	incongruent	0.58203	no	H	T
132.2329102	n/a	33851.625	responseLargeH	correct	n/a	0.58203	no	n/a	n/a
133.3041992	n/a	34125.875	largeHSmallH	correct	congruent	0.41943	no	H	H
133.7236328	n/a	34233.25	responseLargeH	correct	n/a	0.41943	no	n/a	n/a
134.7973633	n/a	34508.125	largeHSmallH	correct	congruent	0.37939	no	H	H
135.1767578	n/a	34605.25	responseLargeH	correct	n/a	0.37939	no	n/a	n/a
136.2504883	n/a	34880.125	largeHSmallT	correct	incongruent	0.35156	no	H	T
136.6020508	n/a	34970.125	responseLargeH	correct	n/a	0.35156	no	n/a	n/a
137.6635742	n/a	35241.875	largeHSmallH	correct	congruent	0.45508	no	H	H
138.1186523	n/a	35358.375	responseLargeH	correct	n/a	0.45508	no	n/a	n/a
139.184082	n/a	35631.125	largeTSmallH	correct	incongruent	0.60596	no	T	H
139.7900391	n/a	35786.25	responseLargeT	correct	n/a	0.60596	no	n/a	n/a
140.8637695	n/a	36061.125	largeHSmallT	correct	incongruent	0.60303	no	H	T
141.4667969	n/a	36215.5	responseLargeH	correct	n/a	0.60303	no	n/a	n/a
142.5307617	n/a	36487.875	largeTSmallH	correct	incongruent	0.45264	no	T	H
142.9833984	n/a	36603.75	responseLargeT	correct	n/a	0.45264	no	n/a	n/a
144.050293	n/a	36876.875	largeHSmallH	correct	congruent	0.3623	no	H	H
144.4125977	n/a	36969.625	responseLargeH	correct	n/a	0.3623	no	n/a	n/a
145.4907227	n/a	37245.625	largeTSmallH	correct	incongruent	0.37109	no	T	H
145.8618164	n/a	37340.625	responseLargeT	correct	n/a	0.37109	no	n/a	n/a
146.9306641	n/a	37614.25	largeTSmallT	error	congruent	0.37305	no	T	T
147.3037109	n/a	37709.75	responseLargeH	error	n/a	0.37305	no	n/a	n/a
148.3706055	n/a	37982.875	largeHSmallH	correct	congruent	0.66943	no	H	H
149.0400391	n/a	38154.25	responseLargeH	correct	n/a	0.66943	no	n/a	n/a
150.1166992	n/a	38429.875	largeHSmallT	correct	incongruent	0.64355	no	H	T
150.7602539	n/a	38594.625	responseLargeH	correct	n/a	0.64355	no	n/a	n/a
151.8369141	n/a	38870.25	largeHSmallT	correct	incongruent	0.3623	no	H	T
152.1992188	n/a	38963	responseLargeH	correct	n/a	0.3623	no	n/a	n/a
153.2636719	n/a	39235.5	largeTSmallT	error	congruent	0.34473	no	T	T
153.6083984	n/a	39323.75	responseLargeH	error	n/a	0.34473	no	n/a	n/a
154.6767578	n/a	39597.25	largeTSmallH	correct	incongruent	1.0371	no	T	H
155.7138672	n/a	39862.75	responseLargeT	correct	n/a	1.0371	no	n/a	n/a
156.7836914	n/a	40136.625	largeHSmallH	error	congruent	0.3623	no	H	H
157.1459961	n/a	40229.375	responseLargeT	error	n/a	0.3623	no	n/a	n/a
158.2099609	n/a	40501.75	largeTSmallH	correct	incongruent	0.89551	no	T	H
159.1054688	n/a	40731	responseLargeT	correct	n/a	0.89551	no	n/a	n/a
160.1835938	n/a	41007	largeTSmallT	correct	congruent	0.75049	no	T	T
160.934082	n/a	41199.125	responseLargeT	correct	n/a	0.75049	no	n/a	n/a
162.0097656	n/a	41474.5	largeHSmallT	correct	incongruent	1.3174	no	H	T
163.3271484	n/a	41811.75	responseLargeH	correct	n/a	1.3174	no	n/a	n/a
164.3964844	n/a	42085.5	largeHSmallT	correct	incongruent	0.38379	no	H	T
164.7802734	n/a	42183.75	responseLargeH	correct	n/a	0.38379	no	n/a	n/a
165.8632812	n/a	42461	largeHSmallT	correct	incongruent	0.396	no	H	T
166.2592773	n/a	42562.375	responseLargeH	correct	n/a	0.396	no	n/a	n/a
167.3295898	n/a	42836.375	largeHSmallH	correct	congruent	0.44531	no	H	H
167.7749023	n/a	42950.375	responseLargeH	correct	n/a	0.44531	no	n/a	n/a
168.8496094	n/a	43225.5	largeTSmallT	error	congruent	0.37451	no	T	T
169.2241211	n/a	43321.375	responseLargeH	error	n/a	0.37451	no	n/a	n/a
170.2895508	n/a	43594.125	largeHSmallT	correct	incongruent	0.55908	no	H	T
170.8486328	n/a	43737.25	responseLargeH	correct	n/a	0.55908	no	n/a	n/a
171.9296875	n/a	44014	largeTSmallH	correct	incongruent	0.55371	no	T	H
172.4833984	n/a	44155.75	responseLargeT	correct	n/a	0.55371	no	n/a	n/a
173.5429688	n/a	44427	largeHSmallH	correct	congruent	0.40967	no	H	H
173.9526367	n/a	44531.875	responseLargeH	correct	n/a	0.40967	no	n/a	n/a
175.0361328	n/a	44809.25	largeHSmallT	correct	incongruent	0.7666	no	H	T
175.8027344	n/a	45005.5	responseLargeH	correct	n/a	0.7666	no	n/a	n/a
176.8764648	n/a	45280.375	largeHSmallT	correct	incongruent	0.60791	no	H	T
177.484375	n/a	45436	responseLargeH	correct	n/a	0.60791	no	n/a	n/a
178.5556641	n/a	45710.25	largeHSmallH	correct	congruent	0.57422	no	H	H
179.1298828	n/a	45857.25	responseLargeH	correct	n/a	0.57422	no	n/a	n/a
180.1962891	n/a	46130.25	largeHSmallT	correct	incongruent	0.40479	no	H	T
180.6010742	n/a	46233.875	responseLargeH	correct	n/a	0.40479	no	n/a	n/a
181.6762695	n/a	46509.125	largeTSmallH	correct	incongruent	0.74658	no	T	H
182.4228516	n/a	46700.25	responseLargeT	correct	n/a	0.74658	no	n/a	n/a
183.4897461	n/a	46973.375	largeHSmallT	correct	incongruent	0.69385	no	H	T
184.1835938	n/a	47151	responseLargeH	correct	n/a	0.69385	no	n/a	n/a
185.2495117	n/a	47423.875	largeHSmallT	correct	incongruent	0.56885	no	H	T
185.8183594	n/a	47569.5	responseLargeH	correct	n/a	0.56885	no	n/a	n/a
186.8891602	n/a	47843.625	largeHSmallH	correct	congruent	0.64844	no	H	H
187.5375977	n/a	48009.625	responseLargeH	correct	n/a	0.64844	no	n/a	n/a
188.609375	n/a	48284	largeHSmallH	correct	congruent	0.55225	no	H	H
189.1616211	n/a	48425.375	responseLargeH	correct	n/a	0.55225	no	n/a	n/a
190.2226562	n/a	48697	largeTSmallH	error	incongruent	0.40479	no	T	H
190.6274414	n/a	48800.625	responseLargeH	error	n/a	0.40479	no	n/a	n/a
191.6894531	n/a	49072.5	largeTSmallH	correct	incongruent	0.99414	no	T	H
192.6835938	n/a	49327	responseLargeT	correct	n/a	0.99414	no	n/a	n/a
193.7558594	n/a	49601.5	largeTSmallH	correct	incongruent	0.53564	no	T	H
194.2915039	n/a	49738.625	responseLargeT	correct	n/a	0.53564	no	n/a	n/a
195.355957	n/a	50011.125	largeHSmallH	correct	congruent	0.73047	no	H	H
196.0864258	n/a	50198.125	responseLargeH	correct	n/a	0.73047	no	n/a	n/a
197.1557617	n/a	50471.875	largeHSmallH	correct	congruent	0.47461	no	H	H
197.6303711	n/a	50593.375	responseLargeH	correct	n/a	0.47461	no	n/a	n/a
198.7026367	n/a	50867.875	largeTSmallH	correct	incongruent	0.80811	no	T	H
199.5107422	n/a	51074.75	responseLargeT	correct	n/a	0.80811	no	n/a	n/a
200.5825195	n/a	51349.125	largeTSmallH	correct	incongruent	0.4585	no	T	H
201.0410156	n/a	51466.5	responseLargeT	correct	n/a	0.4585	no	n/a	n/a
202.1157227	n/a	51741.625	largeTSmallT	correct	congruent	0.52783	no	T	T
202.6435547	n/a	51876.75	responseLargeT	correct	n/a	0.52783	no	n/a	n/a
203.7158203	n/a	52151.25	largeTSmallT	correct	congruent	0.42236	no	T	T
204.1381836	n/a	52259.375	responseLargeT	correct	n/a	0.42236	no	n/a	n/a
205.1953125	n/a	52530	largeHSmallH	correct	congruent	0.50879	no	H	H
205.7041016	n/a	52660.25	responseLargeH	correct	n/a	0.50879	no	n/a	n/a
206.7822266	n/a	52936.25	largeTSmallH	correct	incongruent	0.69531	no	T	H
207.4775391	n/a	53114.25	responseLargeT	correct	n/a	0.69531	no	n/a	n/a
208.5556641	n/a	53390.25	largeTSmallH	correct	incongruent	0.63574	no	T	H
209.1914062	n/a	53553	responseLargeT	correct	n/a	0.63574	no	n/a	n/a
210.262207	n/a	53827.125	largeTSmallT	correct	congruent	0.94678	no	T	T
211.2089844	n/a	54069.5	responseLargeT	correct	n/a	0.94678	no	n/a	n/a
212.2885742	n/a	54345.875	largeTSmallT	correct	congruent	0.72705	no	T	T
213.015625	n/a	54532	responseLargeT	correct	n/a	0.72705	no	n/a	n/a
214.0888672	n/a	54806.75	largeTSmallH	correct	incongruent	0.63086	no	T	H
214.7197266	n/a	54968.25	responseLargeT	correct	n/a	0.63086	no	n/a	n/a
215.7954102	n/a	55243.625	largeHSmallT	correct	incongruent	0.71826	no	H	T
216.5136719	n/a	55427.5	responseLargeH	correct	n/a	0.71826	no	n/a	n/a
217.5820312	n/a	55701	largeHSmallH	correct	congruent	0.43604	no	H	H
218.0180664	n/a	55812.625	responseLargeH	correct	n/a	0.43604	no	n/a	n/a
219.0883789	n/a	56086.625	largeTSmallH	error	incongruent	0.3877	no	T	H
219.4760742	n/a	56185.875	responseLargeH	error	n/a	0.3877	no	n/a	n/a
220.5551758	n/a	56462.125	largeHSmallT	correct	incongruent	0.55615	no	H	T
221.1113281	n/a	56604.5	responseLargeH	correct	n/a	0.55615	no	n/a	n/a
222.168457	n/a	56875.125	largeTSmallT	correct	congruent	0.39648	no	T	T
222.5649414	n/a	56976.625	responseLargeT	correct	n/a	0.39648	no	n/a	n/a
223.6352539	n/a	57250.625	largeTSmallT	correct	congruent	0.36328	no	T	T
223.9985352	n/a	57343.625	responseLargeT	correct	n/a	0.36328	no	n/a	n/a
225.0751953	n/a	57619.25	largeTSmallT	correct	congruent	0.35889	no	T	T
225.434082	n/a	57711.125	responseLargeT	correct	n/a	0.35889	no	n/a	n/a
226.5151367	n/a	57987.875	largeHSmallT	error	incongruent	0.32666	no	H	T
226.8417969	n/a	58071.5	responseLargeT	error	n/a	0.32666	no	n/a	n/a
227.9150391	n/a	58346.25	largeTSmallT	correct	congruent	0.57764	no	T	T
228.4926758	n/a	58494.125	responseLargeT	correct	n/a	0.57764	no	n/a	n/a
229.5683594	n/a	58769.5	largeHSmallH	correct	congruent	0.73584	no	H	H
230.3041992	n/a	58957.875	responseLargeH	correct	n/a	0.73584	no	n/a	n/a
231.3818359	n/a	59233.75	largeHSmallH	correct	congruent	0.43018	no	H	H
231.8120117	n/a	59343.875	responseLargeH	correct	n/a	0.43018	no	n/a	n/a
232.875	n/a	59616	largeHSmallH	correct	congruent	0.59277	no	H	H
233.4677734	n/a	59767.75	responseLargeH	correct	n/a	0.59277	no	n/a	n/a
234.5415039	n/a	60042.625	largeTSmallH	error	incongruent	0.43164	no	T	H
234.9731445	n/a	60153.125	responseLargeH	error	n/a	0.43164	no	n/a	n/a
236.0478516	n/a	60428.25	largeTSmallT	correct	congruent	0.49854	no	T	T
236.5463867	n/a	60555.875	responseLargeT	correct	n/a	0.49854	no	n/a	n/a
237.621582	n/a	60831.125	largeHSmallT	correct	incongruent	0.53516	no	H	T
238.1567383	n/a	60968.125	responseLargeH	correct	n/a	0.53516	no	n/a	n/a
239.2216797	n/a	61240.75	largeHSmallH	correct	congruent	0.64307	no	H	H
239.8647461	n/a	61405.375	responseLargeH	correct	n/a	0.64307	no	n/a	n/a
240.9414062	n/a	61681	largeHSmallT	correct	incongruent	0.80469	no	H	T
241.7460938	n/a	61887	responseLargeH	correct	n/a	0.80469	no	n/a	n/a
242.8081055	n/a	62158.875	largeTSmallT	correct	congruent	0.80371	no	T	T
243.6118164	n/a	62364.625	responseLargeT	correct	n/a	0.80371	no	n/a	n/a
244.6879883	n/a	62640.125	largeTSmallH	correct	incongruent	1.1519	no	T	H
245.8398438	n/a	62935	responseLargeT	correct	n/a	1.1519	no	n/a	n/a
246.9145508	n/a	63210.125	largeHSmallT	correct	incongruent	0.5293	no	H	T
247.4438477	n/a	63345.625	responseLargeH	correct	n/a	0.5293	no	n/a	n/a
248.5009766	n/a	63616.25	largeHSmallT	correct	incongruent	0.76025	no	H	T
249.2612305	n/a	63810.875	responseLargeH	correct	n/a	0.76025	no	n/a	n/a
250.3276367	n/a	64083.875	largeHSmallT	correct	incongruent	0.70166	no	H	T
251.0292969	n/a	64263.5	responseLargeH	correct	n/a	0.70166	no	n/a	n/a
252.1010742	n/a	64537.875	largeHSmallH	correct	congruent	0.60303	no	H	H
252.7041016	n/a	64692.25	responseLargeH	correct	n/a	0.60303	no	n/a	n/a
253.78125	n/a	64968	largeHSmallH	correct	congruent	0.43652	no	H	H
254.2177734	n/a	65079.75	responseLargeH	correct	n/a	0.43652	no	n/a	n/a
255.3007812	n/a	65357	largeHSmallH	correct	congruent	0.73584	no	H	H
256.0366211	n/a	65545.375	responseLargeH	correct	n/a	0.73584	no	n/a	n/a
257.1010742	n/a	65817.875	largeHSmallH	correct	congruent	0.58643	no	H	H
257.6875	n/a	65968	responseLargeH	correct	n/a	0.58643	no	n/a	n/a
258.7543945	n/a	66241.125	largeHSmallT	correct	incongruent	0.71924	no	H	T
259.4736328	n/a	66425.25	responseLargeH	correct	n/a	0.71924	no	n/a	n/a
260.5541992	n/a	66701.875	largeTSmallT	correct	congruent	0.73193	no	T	T
261.2861328	n/a	66889.25	responseLargeT	correct	n/a	0.73193	no	n/a	n/a
262.3540039	n/a	67162.625	largeHSmallT	correct	incongruent	0.72705	no	H	T
263.0810547	n/a	67348.75	responseLargeH	correct	n/a	0.72705	no	n/a	n/a
264.1538086	n/a	67623.375	largeHSmallT	correct	incongruent	0.60596	no	H	T
264.7597656	n/a	67778.5	responseLargeH	correct	n/a	0.60596	no	n/a	n/a
265.8208008	n/a	68050.125	largeTSmallT	error	congruent	0.43213	no	T	T
266.2529297	n/a	68160.75	responseLargeH	error	n/a	0.43213	no	n/a	n/a
267.3276367	n/a	68435.875	largeTSmallT	correct	congruent	0.47656	no	T	T
267.8041992	n/a	68557.875	responseLargeT	correct	n/a	0.47656	no	n/a	n/a
268.8745117	n/a	68831.875	largeHSmallH	correct	congruent	0.51953	no	H	H
269.394043	n/a	68964.875	responseLargeH	correct	n/a	0.51953	no	n/a	n/a
270.4741211	n/a	69241.375	largeTSmallH	correct	incongruent	0.66113	no	T	H
271.1352539	n/a	69410.625	responseLargeT	correct	n/a	0.66113	no	n/a	n/a
272.2075195	n/a	69685.125	largeHSmallT	error	incongruent	0.38281	no	H	T
272.590332	n/a	69783.125	responseLargeT	error	n/a	0.38281	no	n/a	n/a
273.6606445	n/a	70057.125	largeTSmallT	correct	congruent	0.59277	no	T	T
274.253418	n/a	70208.875	responseLargeT	correct	n/a	0.59277	no	n/a	n/a
275.3271484	n/a	70483.75	largeTSmallT	correct	congruent	0.53174	no	T	T
275.8588867	n/a	70619.875	responseLargeT	correct	n/a	0.53174	no	n/a	n/a
276.9272461	n/a	70893.375	largeTSmallH	correct	incongruent	0.52637	no	T	H
277.4536133	n/a	71028.125	responseLargeT	correct	n/a	0.52637	no	n/a	n/a
278.5273438	n/a	71303	largeHSmallT	correct	incongruent	0.5459	no	H	T
279.0732422	n/a	71442.75	responseLargeH	correct	n/a	0.5459	no	n/a	n/a
280.1401367	n/a	71715.875	largeHSmallH	correct	congruent	0.37598	no	H	H
280.5161133	n/a	71812.125	responseLargeH	correct	n/a	0.37598	no	n/a	n/a
281.59375	n/a	72088	largeTSmallT	correct	congruent	0.52148	no	T	T
282.1152344	n/a	72221.5	responseLargeT	correct	n/a	0.52148	no	n/a	n/a
283.1806641	n/a	72494.25	largeHSmallT	correct	incongruent	0.49707	no	H	T
283.6777344	n/a	72621.5	responseLargeH	correct	n/a	0.49707	no	n/a	n/a
284.753418	n/a	72896.875	largeTSmallH	correct	incongruent	0.61621	no	T	H
285.3696289	n/a	73054.625	responseLargeT	correct	n/a	0.61621	no	n/a	n/a
286.4467773	n/a	73330.375	largeTSmallH	error	incongruent	0.3623	no	T	H
286.809082	n/a	73423.125	responseLargeH	error	n/a	0.3623	no	n/a	n/a
287.8867188	n/a	73699	largeHSmallH	correct	congruent	0.54639	no	H	H
288.4331055	n/a	73838.875	responseLargeH	correct	n/a	0.54639	no	n/a	n/a
289.5	n/a	74112	largeTSmallT	correct	congruent	0.56738	no	T	T
290.0673828	n/a	74257.25	responseLargeT	correct	n/a	0.56738	no	n/a	n/a
291.1401367	n/a	74531.875	largeHSmallH	correct	congruent	0.46631	no	H	H
291.6064453	n/a	74651.25	responseLargeH	correct	n/a	0.46631	no	n/a	n/a
292.6733398	n/a	74924.375	largeHSmallH	correct	congruent	0.51318	no	H	H
293.1865234	n/a	75055.75	responseLargeH	correct	n/a	0.51318	no	n/a	n/a
294.2602539	n/a	75330.625	largeHSmallT	correct	incongruent	0.65723	no	H	T
294.9174805	n/a	75498.875	responseLargeH	correct	n/a	0.65723	no	n/a	n/a
295.9931641	n/a	75774.25	largeTSmallT	correct	congruent	0.38867	no	T	T
296.3818359	n/a	75873.75	responseLargeT	correct	n/a	0.38867	no	n/a	n/a
297.4599609	n/a	76149.75	largeHSmallT	correct	incongruent	0.56299	no	H	T
298.0229492	n/a	76293.875	responseLargeH	correct	n/a	0.56299	no	n/a	n/a
299.0996094	n/a	76569.5	largeTSmallH	correct	incongruent	0.91211	no	T	H
300.0117188	n/a	76803	responseLargeT	correct	n/a	0.91211	no	n/a	n/a
301.0732422	n/a	77074.75	largeTSmallT	correct	congruent	0.69385	no	T	T
301.7670898	n/a	77252.375	responseLargeT	correct	n/a	0.69385	no	n/a	n/a
302.8461914	n/a	77528.625	largeTSmallT	correct	congruent	0.41992	no	T	T
303.2661133	n/a	77636.125	responseLargeT	correct	n/a	0.41992	no	n/a	n/a
304.3398438	n/a	77911	largeHSmallT	error	incongruent	0.36279	no	H	T
304.7026367	n/a	78003.875	responseLargeT	error	n/a	0.36279	no	n/a	n/a
305.7797852	n/a	78279.625	largeTSmallT	correct	congruent	0.44092	no	T	T
306.2207031	n/a	78392.5	responseLargeT	correct	n/a	0.44092	no	n/a	n/a
307.2861328	n/a	78665.25	largeTSmallT	correct	congruent	0.51416	no	T	T
307.800293	n/a	78796.875	responseLargeT	correct	n/a	0.51416	no	n/a	n/a
308.859375	n/a	79068	largeTSmallT	correct	congruent	0.52441	no	T	T
309.3837891	n/a	79202.25	responseLargeT	correct	n/a	0.52441	no	n/a	n/a
310.4599609	n/a	79477.75	largeHSmallH	correct	congruent	0.61768	no	H	H
311.0776367	n/a	79635.875	responseLargeH	correct	n/a	0.61768	no	n/a	n/a
312.152832	n/a	79911.125	largeHSmallH	correct	congruent	0.39404	no	H	H
312.546875	n/a	80012	responseLargeH	correct	n/a	0.39404	no	n/a	n/a
313.6196289	n/a	80286.625	largeHSmallH	correct	congruent	0.38232	no	H	H
314.0019531	n/a	80384.5	responseLargeH	correct	n/a	0.38232	no	n/a	n/a
315.0727539	n/a	80658.625	largeTSmallT	error	congruent	0.36865	no	T	T
315.4414062	n/a	80753	responseLargeH	error	n/a	0.36865	no	n/a	n/a
316.5126953	n/a	81027.25	largeTSmallH	correct	incongruent	0.63818	no	T	H
317.1508789	n/a	81190.625	responseLargeT	correct	n/a	0.63818	no	n/a	n/a
318.2329102	n/a	81467.625	largeTSmallH	error	incongruent	0.36768	no	T	H
318.6005859	n/a	81561.75	responseLargeH	error	n/a	0.36768	no	n/a	n/a
319.6728516	n/a	81836.25	largeTSmallH	correct	incongruent	0.55762	no	T	H
320.2304688	n/a	81979	responseLargeT	correct	n/a	0.55762	no	n/a	n/a
321.2993164	n/a	82252.625	largeTSmallT	correct	congruent	0.45361	no	T	T
321.7529297	n/a	82368.75	responseLargeT	correct	n/a	0.45361	no	n/a	n/a
322.8325195	n/a	82645.125	largeTSmallT	correct	congruent	0.40674	no	T	T
323.2392578	n/a	82749.25	responseLargeT	correct	n/a	0.40674	no	n/a	n/a
324.3125	n/a	83024	largeTSmallT	correct	congruent	0.42432	no	T	T
324.7368164	n/a	83132.625	responseLargeT	correct	n/a	0.42432	no	n/a	n/a
325.8056641	n/a	83406.25	largeHSmallT	correct	incongruent	0.53076	no	H	T
326.3364258	n/a	83542.125	responseLargeH	correct	n/a	0.53076	no	n/a	n/a
327.4057617	n/a	83815.875	largeTSmallH	correct	incongruent	0.54736	no	T	H
327.953125	n/a	83956	responseLargeT	correct	n/a	0.54736	no	n/a	n/a
329.019043	n/a	84228.875	largeHSmallH	correct	congruent	0.57324	no	H	H
329.5922852	n/a	84375.625	responseLargeH	correct	n/a	0.57324	no	n/a	n/a
330.6586914	n/a	84648.625	largeTSmallH	correct	incongruent	0.604	no	T	H
331.2626953	n/a	84803.25	responseLargeT	correct	n/a	0.604	no	n/a	n/a
332.3256836	n/a	85075.375	largeHSmallH	correct	congruent	0.63086	no	H	H
332.956543	n/a	85236.875	responseLargeH	correct	n/a	0.63086	no	n/a	n/a
334.0322266	n/a	85512.25	largeHSmallH	correct	congruent	0.47754	no	H	H
334.5097656	n/a	85634.5	responseLargeH	correct	n/a	0.47754	no	n/a	n/a
335.5922852	n/a	85911.625	largeTSmallH	correct	incongruent	1.1577	no	T	H
336.75	n/a	86208	responseLargeT	correct	n/a	1.1577	no	n/a	n/a
337.8188477	n/a	86481.625	largeHSmallT	correct	incongruent	0.64014	no	H	T
338.4589844	n/a	86645.5	responseLargeH	correct	n/a	0.64014	no	n/a	n/a
339.5253906	n/a	86918.5	largeHSmallH	error	congruent	0.40479	no	H	H
339.9301758	n/a	87022.125	responseLargeT	error	n/a	0.40479	no	n/a	n/a
341.0053711	n/a	87297.375	largeTSmallT	correct	congruent	0.85596	no	T	T
341.8613281	n/a	87516.5	responseLargeT	correct	n/a	0.85596	no	n/a	n/a
342.9389648	n/a	87792.375	largeHSmallH	correct	congruent	0.4707	no	H	H
343.409668	n/a	87912.875	responseLargeH	correct	n/a	0.4707	no	n/a	n/a
344.4853516	n/a	88188.25	largeTSmallT	correct	congruent	0.56445	no	T	T
345.0498047	n/a	88332.75	responseLargeT	correct	n/a	0.56445	no	n/a	n/a
346.1118164	n/a	88604.625	largeHSmallT	correct	incongruent	0.77881	no	H	T
346.890625	n/a	88804	responseLargeH	correct	n/a	0.77881	no	n/a	n/a
347.9521484	n/a	89075.75	largeHSmallH	correct	congruent	0.60791	no	H	H
348.5600586	n/a	89231.375	responseLargeH	correct	n/a	0.60791	no	n/a	n/a
349.6318359	n/a	89505.75	largeTSmallT	correct	congruent	0.68848	no	T	T
350.3203125	n/a	89682	responseLargeT	correct	n/a	0.68848	no	n/a	n/a
351.3920898	n/a	89956.375	largeTSmallH	correct	incongruent	0.47607	no	T	H
351.8681641	n/a	90078.25	responseLargeT	correct	n/a	0.47607	no	n/a	n/a
352.9384766	n/a	90352.25	largeTSmallT	correct	congruent	0.51025	no	T	T
353.4487305	n/a	90482.875	responseLargeT	correct	n/a	0.51025	no	n/a	n/a
354.5249023	n/a	90758.375	largeHSmallT	error	incongruent	0.38477	no	H	T
354.909668	n/a	90856.875	responseLargeT	error	n/a	0.38477	no	n/a	n/a
362.777832	n/a	92871.125	largeHSmallH	correct	congruent	0.60449	no	H	H
363.3823242	n/a	93025.875	responseSmallH	correct	n/a	0.60449	no	n/a	n/a
364.4448242	n/a	93297.875	largeHSmallT	correct	incongruent	0.64941	no	H	T
365.0942383	n/a	93464.125	responseSmallT	correct	n/a	0.64941	no	n/a	n/a
366.1645508	n/a	93738.125	largeHSmallT	correct	incongruent	0.74365	no	H	T
366.9082031	n/a	93928.5	responseSmallT	correct	n/a	0.74365	no	n/a	n/a
367.9780273	n/a	94202.375	largeHSmallH	correct	congruent	0.53076	no	H	H
368.5087891	n/a	94338.25	responseSmallH	correct	n/a	0.53076	no	n/a	n/a
369.578125	n/a	94612	largeTSmallH	correct	incongruent	0.63672	no	T	H
370.2148438	n/a	94775	responseSmallH	correct	n/a	0.63672	no	n/a	n/a
371.284668	n/a	95048.875	largeHSmallH	correct	congruent	0.56738	no	H	H
371.8520508	n/a	95194.125	responseSmallH	correct	n/a	0.56738	no	n/a	n/a
372.9248047	n/a	95468.75	largeTSmallH	correct	incongruent	0.70508	no	T	H
373.6298828	n/a	95649.25	responseSmallH	correct	n/a	0.70508	no	n/a	n/a
374.6977539	n/a	95922.625	largeTSmallT	correct	congruent	0.62402	no	T	T
375.3217773	n/a	96082.375	responseSmallT	correct	n/a	0.62402	no	n/a	n/a
376.3911133	n/a	96356.125	largeHSmallT	correct	incongruent	0.55566	no	H	T
376.9467773	n/a	96498.375	responseSmallT	correct	n/a	0.55566	no	n/a	n/a
378.0180664	n/a	96772.625	largeTSmallT	correct	congruent	0.5	no	T	T
378.5180664	n/a	96900.625	responseSmallT	correct	n/a	0.5	no	n/a	n/a
379.5913086	n/a	97175.375	largeTSmallH	correct	incongruent	0.64062	no	T	H
380.2319336	n/a	97339.375	responseSmallH	correct	n/a	0.64062	no	n/a	n/a
381.2978516	n/a	97612.25	largeTSmallT	correct	congruent	0.35498	no	T	T
381.652832	n/a	97703.125	responseSmallT	correct	n/a	0.35498	no	n/a	n/a
382.7246094	n/a	97977.5	largeHSmallH	correct	congruent	0.32959	no	H	H
383.0541992	n/a	98061.875	responseSmallH	correct	n/a	0.32959	no	n/a	n/a
384.1245117	n/a	98335.875	largeTSmallH	correct	incongruent	0.38184	no	T	H
384.5063477	n/a	98433.625	responseSmallH	correct	n/a	0.38184	no	n/a	n/a
385.5908203	n/a	98711.25	largeTSmallH	correct	incongruent	0.38965	no	T	H
385.9804688	n/a	98811	responseSmallH	correct	n/a	0.38965	no	n/a	n/a
387.0444336	n/a	99083.375	largeTSmallT	error	congruent	0.37451	no	T	T
387.4189453	n/a	99179.25	responseSmallH	error	n/a	0.37451	no	n/a	n/a
388.484375	n/a	99452	largeHSmallH	correct	congruent	0.65723	no	H	H
389.1416016	n/a	99620.25	responseSmallH	correct	n/a	0.65723	no	n/a	n/a
390.2177734	n/a	99895.75	largeHSmallT	error	incongruent	0.50537	no	H	T
390.7231445	n/a	100025.125	responseSmallH	error	n/a	0.50537	no	n/a	n/a
391.7910156	n/a	100298.5	largeHSmallT	correct	incongruent	0.91504	no	H	T
392.7060547	n/a	100532.75	responseSmallT	correct	n/a	0.91504	no	n/a	n/a
393.7773438	n/a	100807	largeHSmallH	correct	congruent	0.52246	no	H	H
394.2998047	n/a	100940.75	responseSmallH	correct	n/a	0.52246	no	n/a	n/a
395.3642578	n/a	101213.25	largeTSmallT	correct	congruent	0.43652	no	T	T
395.8007812	n/a	101325	responseSmallT	correct	n/a	0.43652	no	n/a	n/a
396.8574219	n/a	101595.5	largeHSmallT	error	incongruent	0.34863	no	H	T
397.2060547	n/a	101684.75	responseSmallH	error	n/a	0.34863	no	n/a	n/a
398.2836914	n/a	101960.625	largeHSmallH	correct	congruent	0.71924	no	H	H
399.0029297	n/a	102144.75	responseSmallH	correct	n/a	0.71924	no	n/a	n/a
400.0839844	n/a	102421.5	largeTSmallT	correct	congruent	0.42383	no	T	T
400.5078125	n/a	102530	responseSmallT	correct	n/a	0.42383	no	n/a	n/a
401.5771484	n/a	102803.75	largeHSmallH	correct	congruent	0.56982	no	H	H
402.1469727	n/a	102949.625	responseSmallH	correct	n/a	0.56982	no	n/a	n/a
403.2172852	n/a	103223.625	largeHSmallT	correct	incongruent	0.40918	no	H	T
403.6264648	n/a	103328.375	responseSmallT	correct	n/a	0.40918	no	n/a	n/a
404.6972656	n/a	103602.5	largeTSmallH	correct	incongruent	0.65283	no	T	H
405.3500977	n/a	103769.625	responseSmallH	correct	n/a	0.65283	no	n/a	n/a
406.4306641	n/a	104046.25	largeHSmallT	correct	incongruent	0.56494	no	H	T
406.9956055	n/a	104190.875	responseSmallT	correct	n/a	0.56494	no	n/a	n/a
408.0703125	n/a	104466	largeTSmallH	correct	incongruent	0.78418	no	T	H
408.8544922	n/a	104666.75	responseSmallH	correct	n/a	0.78418	no	n/a	n/a
409.9238281	n/a	104940.5	largeTSmallT	correct	congruent	0.38525	no	T	T
410.309082	n/a	105039.125	responseSmallT	correct	n/a	0.38525	no	n/a	n/a
411.3901367	n/a	105315.875	largeHSmallH	correct	congruent	0.51514	no	H	H
411.9052734	n/a	105447.75	responseSmallH	correct	n/a	0.51514	no	n/a	n/a
412.9770508	n/a	105722.125	largeTSmallH	correct	incongruent	0.57227	no	T	H
413.5493164	n/a	105868.625	responseSmallH	correct	n/a	0.57227	no	n/a	n/a
414.6166992	n/a	106141.875	largeHSmallT	correct	incongruent	0.72852	no	H	T
415.3452148	n/a	106328.375	responseSmallT	correct	n/a	0.72852	no	n/a	n/a
416.4169922	n/a	106602.75	largeHSmallH	correct	congruent	0.70264	no	H	H
417.1196289	n/a	106782.625	responseSmallH	correct	n/a	0.70264	no	n/a	n/a
418.1899414	n/a	107056.625	largeTSmallH	correct	incongruent	0.65332	no	T	H
418.8432617	n/a	107223.875	responseSmallH	correct	n/a	0.65332	no	n/a	n/a
419.9233398	n/a	107500.375	largeHSmallT	correct	incongruent	0.49902	no	H	T
420.4223633	n/a	107628.125	responseSmallT	correct	n/a	0.49902	no	n/a	n/a
421.496582	n/a	107903.125	largeHSmallT	error	incongruent	0.36816	no	H	T
421.8647461	n/a	107997.375	responseSmallH	error	n/a	0.36816	no	n/a	n/a
422.9365234	n/a	108271.75	largeTSmallT	correct	congruent	0.6333	no	T	T
423.5698242	n/a	108433.875	responseSmallT	correct	n/a	0.6333	no	n/a	n/a
424.6430664	n/a	108708.625	largeHSmallH	correct	congruent	0.62402	no	H	H
425.2670898	n/a	108868.375	responseSmallH	correct	n/a	0.62402	no	n/a	n/a
426.3364258	n/a	109142.125	largeTSmallH	error	incongruent	0.35742	no	T	H
426.6938477	n/a	109233.625	responseSmallT	error	n/a	0.35742	no	n/a	n/a
427.7631836	n/a	109507.375	largeHSmallH	correct	congruent	0.64746	no	H	H
428.4106445	n/a	109673.125	responseSmallH	correct	n/a	0.64746	no	n/a	n/a
429.4833984	n/a	109947.75	largeTSmallH	correct	incongruent	0.36182	no	T	H
429.8452148	n/a	110040.375	responseSmallH	correct	n/a	0.36182	no	n/a	n/a
430.9233398	n/a	110316.375	largeTSmallT	correct	congruent	0.48193	no	T	T
431.4052734	n/a	110439.75	responseSmallT	correct	n/a	0.48193	no	n/a	n/a
432.4833984	n/a	110715.75	largeHSmallT	correct	incongruent	0.43701	no	H	T
432.9204102	n/a	110827.625	responseSmallT	correct	n/a	0.43701	no	n/a	n/a
433.9897461	n/a	111101.375	largeTSmallH	correct	incongruent	0.54834	no	T	H
434.5380859	n/a	111241.75	responseSmallH	correct	n/a	0.54834	no	n/a	n/a
435.6166992	n/a	111517.875	largeTSmallH	correct	incongruent	0.70605	no	T	H
436.3227539	n/a	111698.625	responseSmallH	correct	n/a	0.70605	no	n/a	n/a
437.3896484	n/a	111971.75	largeHSmallT	correct	incongruent	0.61816	no	H	T
438.0078125	n/a	112130	responseSmallT	correct	n/a	0.61816	no	n/a	n/a
439.0830078	n/a	112405.25	largeTSmallT	correct	congruent	1.0459	no	T	T
440.1289062	n/a	112673	responseSmallT	correct	n/a	1.0459	no	n/a	n/a
441.203125	n/a	112948	largeHSmallH	correct	congruent	0.56348	no	H	H
441.7666016	n/a	113092.25	responseSmallH	correct	n/a	0.56348	no	n/a	n/a
442.8427734	n/a	113367.75	largeTSmallH	correct	incongruent	0.43164	no	T	H
443.2744141	n/a	113478.25	responseSmallH	correct	n/a	0.43164	no	n/a	n/a
444.3496094	n/a	113753.5	largeTSmallT	correct	congruent	0.58398	no	T	T
444.9335938	n/a	113903	responseSmallT	correct	n/a	0.58398	no	n/a	n/a
446.0024414	n/a	114176.625	largeHSmallH	correct	congruent	0.43457	no	H	H
446.4370117	n/a	114287.875	responseSmallH	correct	n/a	0.43457	no	n/a	n/a
447.4960938	n/a	114559	largeHSmallH	correct	congruent	0.45117	no	H	H
447.9472656	n/a	114674.5	responseSmallH	correct	n/a	0.45117	no	n/a	n/a
449.0161133	n/a	114948.125	largeHSmallH	correct	congruent	0.63721	no	H	H
449.6533203	n/a	115111.25	responseSmallH	correct	n/a	0.63721	no	n/a	n/a
450.7358398	n/a	115388.375	largeHSmallT	correct	incongruent	0.69092	no	H	T
451.4267578	n/a	115565.25	responseSmallT	correct	n/a	0.69092	no	n/a	n/a
452.4960938	n/a	115839	largeTSmallH	correct	incongruent	0.60645	no	T	H
453.1025391	n/a	115994.25	responseSmallH	correct	n/a	0.60645	no	n/a	n/a
454.1757812	n/a	116269	largeTSmallT	correct	congruent	0.69141	no	T	T
454.8671875	n/a	116446	responseSmallT	correct	n/a	0.69141	no	n/a	n/a
455.9360352	n/a	116719.625	largeHSmallT	error	incongruent	0.4165	no	H	T
456.3525391	n/a	116826.25	responseSmallH	error	n/a	0.4165	no	n/a	n/a
457.4291992	n/a	117101.875	largeTSmallT	correct	congruent	0.97656	no	T	T
458.4057617	n/a	117351.875	responseSmallT	correct	n/a	0.97656	no	n/a	n/a
459.4824219	n/a	117627.5	largeHSmallT	correct	incongruent	0.38574	no	H	T
459.8681641	n/a	117726.25	responseSmallT	correct	n/a	0.38574	no	n/a	n/a
460.9355469	n/a	117999.5	largeTSmallH	error	incongruent	0.43799	no	T	H
461.3735352	n/a	118111.625	responseSmallT	error	n/a	0.43799	no	n/a	n/a
462.4423828	n/a	118385.25	largeHSmallT	correct	incongruent	0.69482	no	H	T
463.137207	n/a	118563.125	responseSmallT	correct	n/a	0.69482	no	n/a	n/a
464.2021484	n/a	118835.75	largeTSmallT	correct	congruent	0.44824	no	T	T
464.6503906	n/a	118950.5	responseSmallT	correct	n/a	0.44824	no	n/a	n/a
465.722168	n/a	119224.875	largeTSmallH	error	incongruent	0.38867	no	T	H
466.1108398	n/a	119324.375	responseSmallT	error	n/a	0.38867	no	n/a	n/a
467.1889648	n/a	119600.375	largeTSmallH	correct	incongruent	0.45361	no	T	H
467.6425781	n/a	119716.5	responseSmallH	correct	n/a	0.45361	no	n/a	n/a
468.722168	n/a	119992.875	largeTSmallT	correct	congruent	0.75732	no	T	T
469.4794922	n/a	120186.75	responseSmallT	correct	n/a	0.75732	no	n/a	n/a
470.5356445	n/a	120457.125	largeHSmallH	correct	congruent	0.44043	no	H	H
470.9760742	n/a	120569.875	responseSmallH	correct	n/a	0.44043	no	n/a	n/a
472.0419922	n/a	120842.75	largeHSmallT	correct	incongruent	0.38672	no	H	T
472.4287109	n/a	120941.75	responseSmallT	correct	n/a	0.38672	no	n/a	n/a
473.5087891	n/a	121218.25	largeTSmallH	correct	incongruent	0.60303	no	T	H
474.1118164	n/a	121372.625	responseSmallH	correct	n/a	0.60303	no	n/a	n/a
475.175293	n/a	121644.875	largeTSmallT	correct	congruent	0.44629	no	T	T
475.621582	n/a	121759.125	responseSmallT	correct	n/a	0.44629	no	n/a	n/a
476.6821289	n/a	122030.625	largeTSmallH	correct	incongruent	0.37598	no	T	H
477.0581055	n/a	122126.875	responseSmallH	correct	n/a	0.37598	no	n/a	n/a
478.1220703	n/a	122399.25	largeTSmallH	correct	incongruent	0.52539	no	T	H
478.6474609	n/a	122533.75	responseSmallH	correct	n/a	0.52539	no	n/a	n/a
479.7216797	n/a	122808.75	largeHSmallH	correct	congruent	0.54883	no	H	H
480.2705078	n/a	122949.25	responseSmallH	correct	n/a	0.54883	no	n/a	n/a
481.3349609	n/a	123221.75	largeTSmallH	correct	incongruent	0.66504	no	T	H
482	n/a	123392	responseSmallH	correct	n/a	0.66504	no	n/a	n/a
483.0683594	n/a	123665.5	largeTSmallH	correct	incongruent	0.40234	no	T	H
483.4707031	n/a	123768.5	responseSmallH	correct	n/a	0.40234	no	n/a	n/a
484.5351562	n/a	124041	largeTSmallH	correct	incongruent	0.38623	no	T	H
484.9213867	n/a	124139.875	responseSmallH	correct	n/a	0.38623	no	n/a	n/a
485.9882812	n/a	124413	largeTSmallH	correct	incongruent	0.37793	no	T	H
486.3662109	n/a	124509.75	responseSmallH	correct	n/a	0.37793	no	n/a	n/a
487.4418945	n/a	124785.125	largeHSmallT	error	incongruent	0.36768	no	H	T
487.8095703	n/a	124879.25	responseSmallH	error	n/a	0.36768	no	n/a	n/a
488.8681641	n/a	125150.25	largeHSmallT	correct	incongruent	0.44385	no	H	T
489.3120117	n/a	125263.875	responseSmallT	correct	n/a	0.44385	no	n/a	n/a
490.3881836	n/a	125539.375	largeTSmallH	correct	incongruent	0.53613	no	T	H
490.9243164	n/a	125676.625	responseSmallH	correct	n/a	0.53613	no	n/a	n/a
491.9882812	n/a	125949	largeTSmallT	correct	congruent	0.58643	no	T	T
492.574707	n/a	126099.125	responseSmallT	correct	n/a	0.58643	no	n/a	n/a
493.6416016	n/a	126372.25	largeHSmallH	correct	congruent	0.98779	no	H	H
494.6293945	n/a	126625.125	responseSmallH	correct	n/a	0.98779	no	n/a	n/a
495.7080078	n/a	126901.25	largeHSmallH	correct	congruent	1.5771	yes	H	H
497.2851562	n/a	127305	responseSmallH	correct	n/a	1.5771	yes	n/a	n/a
498.3613281	n/a	127580.5	largeTSmallH	correct	incongruent	0.68213	no	T	H
499.043457	n/a	127755.125	responseSmallH	correct	n/a	0.68213	no	n/a	n/a
500.1347656	n/a	128034.5	largeHSmallT	correct	incongruent	0.60107	no	H	T
500.7358398	n/a	128188.375	responseSmallT	correct	n/a	0.60107	no	n/a	n/a
501.8012695	n/a	128461.125	largeHSmallT	correct	incongruent	0.62451	no	H	T
502.4257812	n/a	128621	responseSmallT	correct	n/a	0.62451	no	n/a	n/a
503.4941406	n/a	128894.5	largeTSmallT	correct	congruent	0.3877	no	T	T
503.8818359	n/a	128993.75	responseSmallT	correct	n/a	0.3877	no	n/a	n/a
504.9614258	n/a	129270.125	largeHSmallH	correct	congruent	0.5376	no	H	H
505.4990234	n/a	129407.75	responseSmallH	correct	n/a	0.5376	no	n/a	n/a
506.5610352	n/a	129679.625	largeHSmallT	correct	incongruent	0.80518	no	H	T
507.3662109	n/a	129885.75	responseSmallT	correct	n/a	0.80518	no	n/a	n/a
508.4277344	n/a	130157.5	largeHSmallH	correct	congruent	0.62793	no	H	H
509.0556641	n/a	130318.25	responseSmallH	correct	n/a	0.62793	no	n/a	n/a
510.1210938	n/a	130591	largeTSmallT	correct	congruent	0.4502	no	T	T
510.5712891	n/a	130706.25	responseSmallT	correct	n/a	0.4502	no	n/a	n/a
511.6416016	n/a	130980.25	largeHSmallT	error	incongruent	0.38867	no	H	T
512.0302734	n/a	131079.75	responseSmallH	error	n/a	0.38867	no	n/a	n/a
513.0942383	n/a	131352.125	largeTSmallT	correct	congruent	1.1221	no	T	T
514.2163086	n/a	131639.375	responseSmallT	correct	n/a	1.1221	no	n/a	n/a
515.2807617	n/a	131911.875	largeHSmallH	correct	congruent	0.56787	no	H	H
515.8486328	n/a	132057.25	responseSmallH	correct	n/a	0.56787	no	n/a	n/a
516.9208984	n/a	132331.75	largeTSmallH	error	incongruent	0.36475	no	T	H
517.2856445	n/a	132425.125	responseSmallT	error	n/a	0.36475	no	n/a	n/a
518.3608398	n/a	132700.375	largeHSmallT	correct	incongruent	0.75635	no	H	T
519.1171875	n/a	132894	responseSmallT	correct	n/a	0.75635	no	n/a	n/a
520.1875	n/a	133168	largeHSmallH	correct	congruent	0.49268	no	H	H
520.6801758	n/a	133294.125	responseSmallH	correct	n/a	0.49268	no	n/a	n/a
521.7607422	n/a	133570.75	largeHSmallT	correct	incongruent	0.95117	no	H	T
522.7119141	n/a	133814.25	responseSmallT	correct	n/a	0.95117	no	n/a	n/a
523.7875977	n/a	134089.625	largeHSmallH	correct	congruent	0.61328	no	H	H
524.4008789	n/a	134246.625	responseSmallH	correct	n/a	0.61328	no	n/a	n/a
525.4672852	n/a	134519.625	largeTSmallH	correct	incongruent	1.147	no	T	H
526.6142578	n/a	134813.25	responseSmallH	correct	n/a	1.147	no	n/a	n/a
527.6806641	n/a	135086.25	largeTSmallT	correct	congruent	0.64258	no	T	T
528.3232422	n/a	135250.75	responseSmallT	correct	n/a	0.64258	no	n/a	n/a
529.4003906	n/a	135526.5	largeTSmallH	correct	incongruent	0.7666	no	T	H
530.1669922	n/a	135722.75	responseSmallH	correct	n/a	0.7666	no	n/a	n/a
531.2407227	n/a	135997.625	largeTSmallT	correct	congruent	0.64453	no	T	T
531.8852539	n/a	136162.625	responseSmallT	correct	n/a	0.64453	no	n/a	n/a
532.9604492	n/a	136437.875	largeTSmallT	correct	congruent	0.59912	no	T	T
533.5595703	n/a	136591.25	responseSmallT	correct	n/a	0.59912	no	n/a	n/a
534.6269531	n/a	136864.5	largeTSmallT	correct	congruent	0.53516	no	T	T
535.1621094	n/a	137001.5	responseSmallT	correct	n/a	0.53516	no	n/a	n/a
536.2402344	n/a	137277.5	largeTSmallH	correct	incongruent	0.52051	no	T	H
536.7607422	n/a	137410.75	responseSmallH	correct	n/a	0.52051	no	n/a	n/a
537.8271484	n/a	137683.75	largeHSmallH	correct	congruent	0.5874	no	H	H
538.4145508	n/a	137834.125	responseSmallH	correct	n/a	0.5874	no	n/a	n/a
539.4804688	n/a	138107	largeTSmallT	correct	congruent	0.58789	no	T	T
540.0683594	n/a	138257.5	responseSmallT	correct	n/a	0.58789	no	n/a	n/a
541.1337891	n/a	138530.25	largeHSmallH	correct	congruent	0.35352	no	H	H
541.4873047	n/a	138620.75	responseSmallH	correct	n/a	0.35352	no	n/a	n/a
542.5605469	n/a	138895.5	largeHSmallT	correct	incongruent	0.36133	no	H	T
542.921875	n/a	138988	responseSmallT	correct	n/a	0.36133	no	n/a	n/a
543.9868164	n/a	139260.625	largeTSmallT	error	congruent	0.35498	no	T	T
544.3417969	n/a	139351.5	responseSmallH	error	n/a	0.35498	no	n/a	n/a
545.4135742	n/a	139625.875	largeHSmallH	correct	congruent	0.5625	no	H	H
545.9760742	n/a	139769.875	responseSmallH	correct	n/a	0.5625	no	n/a	n/a
547.0400391	n/a	140042.25	largeTSmallT	correct	congruent	0.31592	no	T	T
547.355957	n/a	140123.125	responseSmallT	correct	n/a	0.31592	no	n/a	n/a
548.4399414	n/a	140400.625	largeHSmallT	error	incongruent	0.36621	no	H	T
548.8061523	n/a	140494.375	responseSmallH	error	n/a	0.36621	no	n/a	n/a
549.8666992	n/a	140765.875	largeHSmallT	correct	incongruent	0.64453	no	H	T
550.5112305	n/a	140930.875	responseSmallT	correct	n/a	0.64453	no	n/a	n/a
551.5864258	n/a	141206.125	largeHSmallT	correct	incongruent	0.34131	no	H	T
551.9277344	n/a	141293.5	responseSmallT	correct	n/a	0.34131	no	n/a	n/a
553	n/a	141568	largeHSmallH	correct	congruent	0.56982	no	H	H
553.5698242	n/a	141713.875	responseSmallH	correct	n/a	0.56982	no	n/a	n/a
554.6401367	n/a	141987.875	largeTSmallH	correct	incongruent	0.74854	no	T	H
555.3886719	n/a	142179.5	responseSmallH	correct	n/a	0.74854	no	n/a	n/a
556.453125	n/a	142452	largeHSmallT	correct	incongruent	0.77148	no	H	T
557.2246094	n/a	142649.5	responseSmallT	correct	n/a	0.77148	no	n/a	n/a
558.293457	n/a	142923.125	largeTSmallT	correct	congruent	0.42236	no	T	T
558.7158203	n/a	143031.25	responseSmallT	correct	n/a	0.42236	no	n/a	n/a
559.7866211	n/a	143305.375	largeHSmallH	correct	congruent	0.53125	no	H	H
560.3178711	n/a	143441.375	responseSmallH	correct	n/a	0.53125	no	n/a	n/a
561.3862305	n/a	143714.875	largeTSmallH	error	incongruent	0.33984	no	T	H
561.7260742	n/a	143801.875	responseSmallT	error	n/a	0.33984	no	n/a	n/a
562.7998047	n/a	144076.75	largeTSmallT	correct	congruent	0.69727	no	T	T
563.4970703	n/a	144255.25	responseSmallT	correct	n/a	0.69727	no	n/a	n/a
564.5595703	n/a	144527.25	largeTSmallT	correct	congruent	0.54004	no	T	T
565.0996094	n/a	144665.5	responseSmallT	correct	n/a	0.54004	no	n/a	n/a
566.1728516	n/a	144940.25	largeTSmallT	correct	congruent	0.53125	no	T	T
566.7041016	n/a	145076.25	responseSmallT	correct	n/a	0.53125	no	n/a	n/a
567.7729492	n/a	145349.875	largeHSmallH	correct	congruent	0.63428	no	H	H
568.4072266	n/a	145512.25	responseSmallH	correct	n/a	0.63428	no	n/a	n/a
569.4794922	n/a	145786.75	largeHSmallH	correct	congruent	0.37891	no	H	H
569.8583984	n/a	145883.75	responseSmallH	correct	n/a	0.37891	no	n/a	n/a
570.9326172	n/a	146158.75	largeHSmallT	error	incongruent	0.35156	no	H	T
571.2841797	n/a	146248.75	responseSmallH	error	n/a	0.35156	no	n/a	n/a
572.3461914	n/a	146520.625	largeTSmallT	correct	congruent	0.6333	no	T	T
572.9794922	n/a	146682.75	responseSmallT	correct	n/a	0.6333	no	n/a	n/a
574.0527344	n/a	146957.5	largeHSmallH	correct	congruent	0.67188	no	H	H
574.7246094	n/a	147129.5	responseSmallH	correct	n/a	0.67188	no	n/a	n/a
575.7993164	n/a	147404.625	largeTSmallT	correct	congruent	0.66895	no	T	T
576.4682617	n/a	147575.875	responseSmallT	correct	n/a	0.66895	no	n/a	n/a
577.5458984	n/a	147851.75	largeHSmallH	correct	congruent	0.396	no	H	H
577.9418945	n/a	147953.125	responseSmallH	correct	n/a	0.396	no	n/a	n/a
579.0126953	n/a	148227.25	largeHSmallH	correct	congruent	0.5249	no	H	H
579.5375977	n/a	148361.625	responseSmallH	correct	n/a	0.5249	no	n/a	n/a
580.612793	n/a	148636.875	largeHSmallH	correct	congruent	0.38721	no	H	H
581	n/a	148736	responseSmallH	correct	n/a	0.38721	no	n/a	n/a
582.065918	n/a	149008.875	largeTSmallT	error	congruent	0.47705	no	T	T
582.5429688	n/a	149131	responseSmallH	error	n/a	0.47705	no	n/a	n/a
583.6123047	n/a	149404.75	largeHSmallH	correct	congruent	0.44727	no	H	H
584.0595703	n/a	149519.25	responseSmallH	correct	n/a	0.44727	no	n/a	n/a
585.1191406	n/a	149790.5	largeHSmallT	correct	incongruent	0.44434	no	H	T
585.5634766	n/a	149904.25	responseSmallT	correct	n/a	0.44434	no	n/a	n/a
586.6391602	n/a	150179.625	largeTSmallH	correct	incongruent	0.60107	no	T	H
587.2402344	n/a	150333.5	responseSmallH	correct	n/a	0.60107	no	n/a	n/a
588.3061523	n/a	150606.375	largeHSmallT	correct	incongruent	0.59375	no	H	T
588.8999023	n/a	150758.375	responseSmallT	correct	n/a	0.59375	no	n/a	n/a
589.972168	n/a	151032.875	largeTSmallH	correct	incongruent	0.40234	no	T	H
590.3745117	n/a	151135.875	responseSmallH	correct	n/a	0.40234	no	n/a	n/a
591.4389648	n/a	151408.375	largeHSmallT	correct	incongruent	0.35889	no	H	T
591.7978516	n/a	151500.25	responseSmallT	correct	n/a	0.35889	no	n/a	n/a
592.8657227	n/a	151773.625	largeHSmallT	error	incongruent	0.35791	no	H	T
593.2236328	n/a	151865.25	responseSmallH	error	n/a	0.35791	no	n/a	n/a
594.2924805	n/a	152138.875	largeHSmallH	correct	congruent	0.60449	no	H	H
594.8969727	n/a	152293.625	responseSmallH	correct	n/a	0.60449	no	n/a	n/a
595.972168	n/a	152568.875	largeTSmallT	correct	congruent	0.58594	no	T	T
596.5581055	n/a	152718.875	responseSmallT	correct	n/a	0.58594	no	n/a	n/a
597.6386719	n/a	152995.5	largeHSmallT	correct	incongruent	0.56299	no	H	T
598.2016602	n/a	153139.625	responseSmallT	correct	n/a	0.56299	no	n/a	n/a
599.2788086	n/a	153415.375	largeHSmallT	correct	incongruent	0.43066	no	H	T
599.7094727	n/a	153525.625	responseSmallT	correct	n/a	0.43066	no	n/a	n/a
600.7856445	n/a	153801.125	largeHSmallT	correct	incongruent	0.40576	no	H	T
601.1914062	n/a	153905	responseSmallT	correct	n/a	0.40576	no	n/a	n/a
602.2651367	n/a	154179.875	largeTSmallT	correct	congruent	0.37061	no	T	T
602.6357422	n/a	154274.75	responseSmallT	correct	n/a	0.37061	no	n/a	n/a
603.7055664	n/a	154548.625	largeTSmallH	error	incongruent	0.40723	no	T	H
604.112793	n/a	154652.875	responseSmallT	error	n/a	0.40723	no	n/a	n/a
605.1855469	n/a	154927.5	largeTSmallH	correct	incongruent	0.58105	no	T	H
605.7666016	n/a	155076.25	responseSmallH	correct	n/a	0.58105	no	n/a	n/a
606.8383789	n/a	155350.625	largeTSmallH	correct	incongruent	0.33301	no	T	H
607.1713867	n/a	155435.875	responseSmallH	correct	n/a	0.33301	no	n/a	n/a
608.2382812	n/a	155709	largeHSmallT	correct	incongruent	0.64746	no	H	T
608.8857422	n/a	155874.75	responseSmallT	correct	n/a	0.64746	no	n/a	n/a
609.9584961	n/a	156149.375	largeTSmallT	correct	congruent	0.74854	no	T	T
610.7070312	n/a	156341	responseSmallT	correct	n/a	0.74854	no	n/a	n/a
611.7851562	n/a	156617	largeTSmallT	correct	congruent	0.52734	no	T	T
612.3125	n/a	156752	responseSmallT	correct	n/a	0.52734	no	n/a	n/a
613.371582	n/a	157023.125	largeTSmallT	correct	congruent	0.53906	no	T	T
613.9106445	n/a	157161.125	responseSmallT	correct	n/a	0.53906	no	n/a	n/a
614.9848633	n/a	157436.125	largeTSmallT	correct	congruent	0.53223	no	T	T
615.5170898	n/a	157572.375	responseSmallT	correct	n/a	0.53223	no	n/a	n/a
616.5849609	n/a	157845.75	largeTSmallT	correct	congruent	0.36816	no	T	T
616.953125	n/a	157940	responseSmallT	correct	n/a	0.36816	no	n/a	n/a
618.0249023	n/a	158214.375	largeHSmallT	correct	incongruent	0.3623	no	H	T
618.387207	n/a	158307.125	responseSmallT	correct	n/a	0.3623	no	n/a	n/a
619.4648438	n/a	158583	largeTSmallT	correct	congruent	0.37842	no	T	T
619.8432617	n/a	158679.875	responseSmallT	correct	n/a	0.37842	no	n/a	n/a
620.9047852	n/a	158951.625	largeTSmallT	correct	congruent	0.35254	no	T	T
621.2573242	n/a	159041.875	responseSmallT	correct	n/a	0.35254	no	n/a	n/a
622.331543	n/a	159316.875	largeHSmallH	error	congruent	0.31641	no	H	H
622.6479492	n/a	159397.875	responseSmallT	error	n/a	0.31641	no	n/a	n/a
623.7182617	n/a	159671.875	largeTSmallT	correct	congruent	0.57178	no	T	T
624.2900391	n/a	159818.25	responseSmallT	correct	n/a	0.57178	no	n/a	n/a
625.3579102	n/a	160091.625	largeTSmallH	correct	incongruent	1.0117	no	T	H
626.3696289	n/a	160350.625	responseSmallH	correct	n/a	1.0117	no	n/a	n/a
627.4516602	n/a	160627.625	largeHSmallH	correct	congruent	0.36914	no	H	H
627.8208008	n/a	160722.125	responseSmallH	correct	n/a	0.36914	no	n/a	n/a
628.8916016	n/a	160996.25	largeTSmallH	correct	incongruent	0.40771	no	T	H
629.2993164	n/a	161100.625	responseSmallH	correct	n/a	0.40771	no	n/a	n/a
630.3710938	n/a	161375	largeTSmallT	correct	congruent	0.50879	no	T	T
630.8798828	n/a	161505.25	responseSmallT	correct	n/a	0.50879	no	n/a	n/a
631.9580078	n/a	161781.25	largeTSmallH	correct	incongruent	0.3877	no	T	H
632.3457031	n/a	161880.5	responseSmallH	correct	n/a	0.3877	no	n/a	n/a
633.4243164	n/a	162156.625	largeTSmallH	correct	incongruent	0.58643	no	T	H
634.0107422	n/a	162306.75	responseSmallH	correct	n/a	0.58643	no	n/a	n/a
635.0776367	n/a	162579.875	largeHSmallH	correct	congruent	1.1602	no	H	H
636.237793	n/a	162876.875	responseSmallH	correct	n/a	1.1602	no	n/a	n/a
637.3041992	n/a	163149.875	largeHSmallH	correct	congruent	0.62012	no	H	H
637.9243164	n/a	163308.625	responseSmallH	correct	n/a	0.62012	no	n/a	n/a
638.9975586	n/a	163583.375	largeTSmallH	correct	incongruent	0.46826	no	T	H
639.4658203	n/a	163703.25	responseSmallH	correct	n/a	0.46826	no	n/a	n/a
640.53125	n/a	163976	largeHSmallT	correct	incongruent	0.58496	no	H	T
641.1162109	n/a	164125.75	responseSmallT	correct	n/a	0.58496	no	n/a	n/a
642.1977539	n/a	164402.625	largeHSmallH	correct	congruent	0.61816	no	H	H
642.815918	n/a	164560.875	responseSmallH	correct	n/a	0.61816	no	n/a	n/a
643.8911133	n/a	164836.125	largeHSmallH	error	congruent	0.41895	no	H	H
644.3100586	n/a	164943.375	responseSmallT	error	n/a	0.41895	no	n/a	n/a
645.3842773	n/a	165218.375	largeHSmallT	error	incongruent	0.35791	no	H	T
645.7421875	n/a	165310	responseSmallH	error	n/a	0.35791	no	n/a	n/a
646.8110352	n/a	165583.625	largeTSmallH	error	incongruent	0.65918	no	T	H
647.4702148	n/a	165752.375	responseSmallT	error	n/a	0.65918	no	n/a	n/a
648.5444336	n/a	166027.375	largeTSmallT	correct	congruent	0.6748	no	T	T
649.2192383	n/a	166200.125	responseSmallT	correct	n/a	0.6748	no	n/a	n/a
650.2910156	n/a	166474.5	largeHSmallT	correct	incongruent	0.57178	no	H	T
650.862793	n/a	166620.875	responseSmallT	correct	n/a	0.57178	no	n/a	n/a
651.9443359	n/a	166897.75	largeTSmallT	correct	congruent	0.45459	no	T	T
652.3989258	n/a	167014.125	responseSmallT	correct	n/a	0.45459	no	n/a	n/a
653.4638672	n/a	167286.75	largeTSmallH	error	incongruent	0.36133	no	T	H
653.8251953	n/a	167379.25	responseSmallT	error	n/a	0.36133	no	n/a	n/a
654.890625	n/a	167652	largeTSmallH	correct	incongruent	0.44238	no	T	H
655.3330078	n/a	167765.25	responseSmallH	correct	n/a	0.44238	no	n/a	n/a
656.3974609	n/a	168037.75	largeTSmallH	correct	incongruent	0.36914	no	T	H
656.7666016	n/a	168132.25	responseSmallH	correct	n/a	0.36914	no	n/a	n/a
657.8374023	n/a	168406.375	largeTSmallT	correct	congruent	0.55615	no	T	T
658.3935547	n/a	168548.75	responseSmallT	correct	n/a	0.55615	no	n/a	n/a
659.4638672	n/a	168822.75	largeHSmallT	correct	incongruent	0.50049	no	H	T
659.9643555	n/a	168950.875	responseSmallT	correct	n/a	0.50049	no	n/a	n/a
661.0371094	n/a	169225.5	largeHSmallT	error	incongruent	0.40283	no	H	T
661.4399414	n/a	169328.625	responseSmallH	error	n/a	0.40283	no	n/a	n/a
662.5170898	n/a	169604.375	largeTSmallT	correct	congruent	1.0518	no	T	T
663.5688477	n/a	169873.625	responseSmallT	correct	n/a	1.0518	no	n/a	n/a
664.637207	n/a	170147.125	largeTSmallH	error	incongruent	0.41797	no	T	H
665.0551758	n/a	170254.125	responseSmallT	error	n/a	0.41797	no	n/a	n/a
666.1171875	n/a	170526	largeHSmallH	correct	congruent	0.37158	no	H	H
666.4887695	n/a	170621.125	responseSmallH	correct	n/a	0.37158	no	n/a	n/a
667.5566406	n/a	170894.5	largeHSmallH	correct	congruent	0.33936	no	H	H
667.8959961	n/a	170981.375	responseSmallH	correct	n/a	0.33936	no	n/a	n/a
668.9570312	n/a	171253	largeHSmallH	correct	congruent	0.40869	no	H	H
669.3657227	n/a	171357.625	responseSmallH	correct	n/a	0.40869	no	n/a	n/a
670.4370117	n/a	171631.875	largeTSmallT	error	congruent	0.4292	no	T	T
670.8662109	n/a	171741.75	responseSmallH	error	n/a	0.4292	no	n/a	n/a
671.9438477	n/a	172017.625	largeTSmallH	correct	incongruent	1.0542	no	T	H
672.9980469	n/a	172287.5	responseSmallH	correct	n/a	1.0542	no	n/a	n/a
674.0766602	n/a	172563.625	largeHSmallT	correct	incongruent	0.56787	no	H	T
674.6445312	n/a	172709	responseSmallT	correct	n/a	0.56787	no	n/a	n/a
675.7167969	n/a	172983.5	largeTSmallH	correct	incongruent	0.6626	no	T	H
676.3793945	n/a	173153.125	responseSmallH	correct	n/a	0.6626	no	n/a	n/a
677.4501953	n/a	173427.25	largeHSmallH	correct	congruent	0.47363	no	H	H
677.9238281	n/a	173548.5	responseSmallH	correct	n/a	0.47363	no	n/a	n/a
678.996582	n/a	173823.125	largeHSmallT	correct	incongruent	0.51514	no	H	T
679.5117188	n/a	173955	responseSmallT	correct	n/a	0.51514	no	n/a	n/a
680.5834961	n/a	174229.375	largeHSmallH	correct	congruent	0.50537	no	H	H
681.0888672	n/a	174358.75	responseSmallH	correct	n/a	0.50537	no	n/a	n/a
682.1567383	n/a	174632.125	largeHSmallT	correct	incongruent	0.38232	no	H	T
682.5390625	n/a	174730	responseSmallT	correct	n/a	0.38232	no	n/a	n/a
683.6098633	n/a	175004.125	largeHSmallT	correct	incongruent	0.54688	no	H	T
684.1567383	n/a	175144.125	responseSmallT	correct	n/a	0.54688	no	n/a	n/a
685.2368164	n/a	175420.625	largeHSmallH	correct	congruent	0.39307	no	H	H
685.6298828	n/a	175521.25	responseSmallH	correct	n/a	0.39307	no	n/a	n/a
691.3027344	n/a	176973.5	largeTSmallT	correct	congruent	0.81885	no	T	T
692.121582	n/a	177183.125	responseLargeT	correct	n/a	0.81885	no	n/a	n/a
693.1831055	n/a	177454.875	largeTSmallH	error	incongruent	0.49902	no	T	H
693.6821289	n/a	177582.625	responseLargeH	error	n/a	0.49902	no	n/a	n/a
694.7426758	n/a	177854.125	largeHSmallH	correct	congruent	0.51416	no	H	H
695.2568359	n/a	177985.75	responseLargeH	correct	n/a	0.51416	no	n/a	n/a
696.3164062	n/a	178257	largeTSmallH	correct	incongruent	0.51416	no	T	H
696.8305664	n/a	178388.625	responseLargeT	correct	n/a	0.51416	no	n/a	n/a
697.902832	n/a	178663.125	largeTSmallT	correct	congruent	0.39014	no	T	T
698.2929688	n/a	178763	responseLargeT	correct	n/a	0.39014	no	n/a	n/a
699.3696289	n/a	179038.625	largeHSmallT	correct	incongruent	0.39404	no	H	T
699.7636719	n/a	179139.5	responseLargeH	correct	n/a	0.39404	no	n/a	n/a
700.8359375	n/a	179414	largeTSmallT	correct	congruent	0.35986	no	T	T
701.1958008	n/a	179506.125	responseLargeT	correct	n/a	0.35986	no	n/a	n/a
702.2626953	n/a	179779.25	largeHSmallT	correct	incongruent	0.34082	no	H	T
702.6035156	n/a	179866.5	responseLargeH	correct	n/a	0.34082	no	n/a	n/a
703.6630859	n/a	180137.75	largeTSmallH	correct	incongruent	0.32568	no	T	H
703.9887695	n/a	180221.125	responseLargeT	correct	n/a	0.32568	no	n/a	n/a
705.0625	n/a	180496	largeTSmallH	error	incongruent	0.36768	no	T	H
705.4301758	n/a	180590.125	responseLargeH	error	n/a	0.36768	no	n/a	n/a
706.4892578	n/a	180861.25	largeTSmallH	correct	incongruent	0.49561	no	T	H
706.9848633	n/a	180988.125	responseLargeT	correct	n/a	0.49561	no	n/a	n/a
708.0493164	n/a	181260.625	largeTSmallT	correct	congruent	0.38818	no	T	T
708.4375	n/a	181360	responseLargeT	correct	n/a	0.38818	no	n/a	n/a
709.5029297	n/a	181632.75	largeHSmallT	error	incongruent	0.35156	no	H	T
709.8544922	n/a	181722.75	responseLargeT	error	n/a	0.35156	no	n/a	n/a
710.9291992	n/a	181997.875	largeTSmallH	correct	incongruent	0.49121	no	T	H
711.4204102	n/a	182123.625	responseLargeT	correct	n/a	0.49121	no	n/a	n/a
712.4892578	n/a	182397.25	largeTSmallH	error	incongruent	0.34961	no	T	H
712.8388672	n/a	182486.75	responseLargeH	error	n/a	0.34961	no	n/a	n/a
713.9023438	n/a	182759	largeHSmallT	correct	incongruent	0.56641	no	H	T
714.46875	n/a	182904	responseLargeH	correct	n/a	0.56641	no	n/a	n/a
715.5424805	n/a	183178.875	largeTSmallH	correct	incongruent	0.49268	no	T	H
716.0351562	n/a	183305	responseLargeT	correct	n/a	0.49268	no	n/a	n/a
717.1025391	n/a	183578.25	largeTSmallH	error	incongruent	0.32812	no	T	H
717.4306641	n/a	183662.25	responseLargeH	error	n/a	0.32812	no	n/a	n/a
718.5024414	n/a	183936.625	largeTSmallH	correct	incongruent	0.57861	no	T	H
719.0810547	n/a	184084.75	responseLargeT	correct	n/a	0.57861	no	n/a	n/a
720.1557617	n/a	184359.875	largeTSmallT	correct	congruent	0.34668	no	T	T
720.5024414	n/a	184448.625	responseLargeT	correct	n/a	0.34668	no	n/a	n/a
721.5825195	n/a	184725.125	largeTSmallH	correct	incongruent	0.40234	no	T	H
721.9848633	n/a	184828.125	responseLargeT	correct	n/a	0.40234	no	n/a	n/a
723.0625	n/a	185104	largeHSmallT	correct	incongruent	0.57031	no	H	T
723.6328125	n/a	185250	responseLargeH	correct	n/a	0.57031	no	n/a	n/a
724.7021484	n/a	185523.75	largeHSmallH	correct	congruent	0.56934	no	H	H
725.2714844	n/a	185669.5	responseLargeH	correct	n/a	0.56934	no	n/a	n/a
726.3422852	n/a	185943.625	largeTSmallH	correct	incongruent	0.48535	no	T	H
726.8276367	n/a	186067.875	responseLargeT	correct	n/a	0.48535	no	n/a	n/a
727.9018555	n/a	186342.875	largeTSmallH	correct	incongruent	0.52197	no	T	H
728.4238281	n/a	186476.5	responseLargeT	correct	n/a	0.52197	no	n/a	n/a
729.4887695	n/a	186749.125	largeTSmallH	correct	incongruent	0.47119	no	T	H
729.9599609	n/a	186869.75	responseLargeT	correct	n/a	0.47119	no	n/a	n/a
731.0351562	n/a	187145	largeHSmallH	error	congruent	0.36572	no	H	H
731.4008789	n/a	187238.625	responseLargeT	error	n/a	0.36572	no	n/a	n/a
732.4755859	n/a	187513.75	largeTSmallH	correct	incongruent	0.51758	no	T	H
732.9931641	n/a	187646.25	responseLargeT	correct	n/a	0.51758	no	n/a	n/a
734.0620117	n/a	187919.875	largeHSmallH	error	congruent	0.44824	no	H	H
734.5102539	n/a	188034.625	responseLargeT	error	n/a	0.44824	no	n/a	n/a
735.5820312	n/a	188309	largeHSmallH	correct	congruent	0.54736	no	H	H
736.1293945	n/a	188449.125	responseLargeH	correct	n/a	0.54736	no	n/a	n/a
737.1953125	n/a	188722	largeTSmallH	correct	incongruent	0.55566	no	T	H
737.7509766	n/a	188864.25	responseLargeT	correct	n/a	0.55566	no	n/a	n/a
738.8217773	n/a	189138.375	largeHSmallH	correct	congruent	0.54541	no	H	H
739.3671875	n/a	189278	responseLargeH	correct	n/a	0.54541	no	n/a	n/a
740.4350586	n/a	189551.375	largeTSmallT	correct	congruent	1.2012	no	T	T
741.6362305	n/a	189858.875	responseLargeT	correct	n/a	1.2012	no	n/a	n/a
742.7016602	n/a	190131.625	largeTSmallH	correct	incongruent	0.60742	no	T	H
743.309082	n/a	190287.125	responseLargeT	correct	n/a	0.60742	no	n/a	n/a
744.3818359	n/a	190561.75	largeTSmallT	correct	congruent	0.32373	no	T	T
744.7055664	n/a	190644.625	responseLargeT	correct	n/a	0.32373	no	n/a	n/a
745.7680664	n/a	190916.625	largeHSmallT	correct	incongruent	0.61865	no	H	T
746.3867188	n/a	191075	responseLargeH	correct	n/a	0.61865	no	n/a	n/a
747.4614258	n/a	191350.125	largeTSmallH	correct	incongruent	0.7168	no	T	H
748.1782227	n/a	191533.625	responseLargeT	correct	n/a	0.7168	no	n/a	n/a
749.2485352	n/a	191807.625	largeHSmallT	error	incongruent	0.53809	no	H	T
749.7866211	n/a	191945.375	responseLargeT	error	n/a	0.53809	no	n/a	n/a
750.8618164	n/a	192220.625	largeTSmallT	correct	congruent	0.5459	no	T	T
751.4077148	n/a	192360.375	responseLargeT	correct	n/a	0.5459	no	n/a	n/a
752.4750977	n/a	192633.625	largeTSmallH	correct	incongruent	0.56934	no	T	H
753.0444336	n/a	192779.375	responseLargeT	correct	n/a	0.56934	no	n/a	n/a
754.1147461	n/a	193053.375	largeTSmallT	correct	congruent	0.38916	no	T	T
754.5039062	n/a	193153	responseLargeT	correct	n/a	0.38916	no	n/a	n/a
755.5678711	n/a	193425.375	largeHSmallH	correct	congruent	0.39111	no	H	H
755.9589844	n/a	193525.5	responseLargeH	correct	n/a	0.39111	no	n/a	n/a
757.0214844	n/a	193797.5	largeTSmallH	error	incongruent	0.43896	no	T	H
757.4604492	n/a	193909.875	responseLargeH	error	n/a	0.43896	no	n/a	n/a
758.527832	n/a	194183.125	largeTSmallH	correct	incongruent	0.4502	no	T	H
758.9780273	n/a	194298.375	responseLargeT	correct	n/a	0.4502	no	n/a	n/a
760.0478516	n/a	194572.25	largeTSmallH	correct	incongruent	0.38965	no	T	H
760.4375	n/a	194672	responseLargeT	correct	n/a	0.38965	no	n/a	n/a
761.5146484	n/a	194947.75	largeHSmallH	correct	congruent	0.52246	no	H	H
762.0371094	n/a	195081.5	responseLargeH	correct	n/a	0.52246	no	n/a	n/a
763.1010742	n/a	195353.875	largeTSmallT	correct	congruent	0.39893	no	T	T
763.5	n/a	195456	responseLargeT	correct	n/a	0.39893	no	n/a	n/a
764.5678711	n/a	195729.375	largeHSmallH	correct	congruent	0.5752	no	H	H
765.1430664	n/a	195876.625	responseLargeH	correct	n/a	0.5752	no	n/a	n/a
766.2080078	n/a	196149.25	largeHSmallT	correct	incongruent	0.49805	no	H	T
766.7060547	n/a	196276.75	responseLargeH	correct	n/a	0.49805	no	n/a	n/a
767.7680664	n/a	196548.625	largeTSmallH	error	incongruent	0.38135	no	T	H
768.1494141	n/a	196646.25	responseLargeH	error	n/a	0.38135	no	n/a	n/a
769.2211914	n/a	196920.625	largeHSmallH	correct	congruent	0.53027	no	H	H
769.7514648	n/a	197056.375	responseLargeH	correct	n/a	0.53027	no	n/a	n/a
770.8344727	n/a	197333.625	largeHSmallH	correct	congruent	0.63574	no	H	H
771.4702148	n/a	197496.375	responseLargeH	correct	n/a	0.63574	no	n/a	n/a
772.5410156	n/a	197770.5	largeTSmallH	correct	incongruent	0.55371	no	T	H
773.0947266	n/a	197912.25	responseLargeT	correct	n/a	0.55371	no	n/a	n/a
774.1674805	n/a	198186.875	largeHSmallH	correct	congruent	0.51318	no	H	H
774.6806641	n/a	198318.25	responseLargeH	correct	n/a	0.51318	no	n/a	n/a
775.7543945	n/a	198593.125	largeHSmallH	correct	congruent	0.52783	no	H	H
776.2822266	n/a	198728.25	responseLargeH	correct	n/a	0.52783	no	n/a	n/a
777.3540039	n/a	199002.625	largeTSmallT	correct	congruent	0.59131	no	T	T
777.9453125	n/a	199154	responseLargeT	correct	n/a	0.59131	no	n/a	n/a
779.0209961	n/a	199429.375	largeHSmallH	correct	congruent	0.44824	no	H	H
779.4692383	n/a	199544.125	responseLargeH	correct	n/a	0.44824	no	n/a	n/a
780.5410156	n/a	199818.5	largeTSmallH	correct	incongruent	0.63379	no	T	H
781.1748047	n/a	199980.75	responseLargeT	correct	n/a	0.63379	no	n/a	n/a
782.2475586	n/a	200255.375	largeHSmallT	correct	incongruent	0.77197	no	H	T
783.0195312	n/a	200453	responseLargeH	correct	n/a	0.77197	no	n/a	n/a
784.0874023	n/a	200726.375	largeTSmallT	correct	congruent	0.44434	no	T	T
784.5317383	n/a	200840.125	responseLargeT	correct	n/a	0.44434	no	n/a	n/a
785.6074219	n/a	201115.5	largeHSmallH	correct	congruent	0.37451	no	H	H
785.9819336	n/a	201211.375	responseLargeH	correct	n/a	0.37451	no	n/a	n/a
787.0473633	n/a	201484.125	largeTSmallH	correct	incongruent	0.6499	no	T	H
787.6972656	n/a	201650.5	responseLargeT	correct	n/a	0.6499	no	n/a	n/a
788.7675781	n/a	201924.5	largeHSmallT	correct	incongruent	0.3999	no	H	T
789.1674805	n/a	202026.875	responseLargeH	correct	n/a	0.3999	no	n/a	n/a
790.2338867	n/a	202299.875	largeHSmallH	correct	congruent	0.5791	no	H	H
790.8129883	n/a	202448.125	responseLargeH	correct	n/a	0.5791	no	n/a	n/a
791.887207	n/a	202723.125	largeHSmallT	correct	incongruent	0.48877	no	H	T
792.3759766	n/a	202848.25	responseLargeH	correct	n/a	0.48877	no	n/a	n/a
793.4472656	n/a	203122.5	largeTSmallT	correct	congruent	0.55811	no	T	T
794.0053711	n/a	203265.375	responseLargeT	correct	n/a	0.55811	no	n/a	n/a
795.0737305	n/a	203538.875	largeTSmallH	error	incongruent	0.37744	no	T	H
795.4511719	n/a	203635.5	responseLargeH	error	n/a	0.37744	no	n/a	n/a
796.5268555	n/a	203910.875	largeHSmallT	correct	incongruent	0.4502	no	H	T
796.9770508	n/a	204026.125	responseLargeH	correct	n/a	0.4502	no	n/a	n/a
798.046875	n/a	204300	largeTSmallH	correct	incongruent	0.375	no	T	H
798.421875	n/a	204396	responseLargeT	correct	n/a	0.375	no	n/a	n/a
799.4868164	n/a	204668.625	largeHSmallT	correct	incongruent	0.50244	no	H	T
799.9892578	n/a	204797.25	responseLargeH	correct	n/a	0.50244	no	n/a	n/a
801.0600586	n/a	205071.375	largeTSmallH	correct	incongruent	0.64648	no	T	H
801.706543	n/a	205236.875	responseLargeT	correct	n/a	0.64648	no	n/a	n/a
802.7802734	n/a	205511.75	largeHSmallH	correct	congruent	0.51758	no	H	H
803.2978516	n/a	205644.25	responseLargeH	correct	n/a	0.51758	no	n/a	n/a
804.3666992	n/a	205917.875	largeHSmallT	correct	incongruent	0.51611	no	H	T
804.8828125	n/a	206050	responseLargeH	correct	n/a	0.51611	no	n/a	n/a
805.9667969	n/a	206327.5	largeTSmallH	correct	incongruent	0.4292	no	T	H
806.3959961	n/a	206437.375	responseLargeT	correct	n/a	0.4292	no	n/a	n/a
807.4736328	n/a	206713.25	largeHSmallH	correct	congruent	0.45459	no	H	H
807.9282227	n/a	206829.625	responseLargeH	correct	n/a	0.45459	no	n/a	n/a
809.0063477	n/a	207105.625	largeTSmallT	correct	congruent	0.36182	no	T	T
809.3681641	n/a	207198.25	responseLargeT	correct	n/a	0.36182	no	n/a	n/a
810.4331055	n/a	207470.875	largeTSmallT	correct	congruent	0.53613	no	T	T
810.9692383	n/a	207608.125	responseLargeT	correct	n/a	0.53613	no	n/a	n/a
812.0463867	n/a	207883.875	largeTSmallT	error	congruent	0.33154	no	T	T
812.3779297	n/a	207968.75	responseLargeH	error	n/a	0.33154	no	n/a	n/a
813.4467773	n/a	208242.375	largeHSmallH	error	congruent	0.38916	no	H	H
813.8359375	n/a	208342	responseLargeT	error	n/a	0.38916	no	n/a	n/a
814.9130859	n/a	208617.75	largeTSmallT	correct	congruent	0.51465	no	T	T
815.4277344	n/a	208749.5	responseLargeT	correct	n/a	0.51465	no	n/a	n/a
816.4995117	n/a	209023.875	largeTSmallH	correct	incongruent	0.5874	no	T	H
817.0869141	n/a	209174.25	responseLargeT	correct	n/a	0.5874	no	n/a	n/a
818.152832	n/a	209447.125	largeTSmallT	error	congruent	0.39355	no	T	T
818.5463867	n/a	209547.875	responseLargeH	error	n/a	0.39355	no	n/a	n/a
819.6064453	n/a	209819.25	largeTSmallT	correct	congruent	0.50586	no	T	T
820.1123047	n/a	209948.75	responseLargeT	correct	n/a	0.50586	no	n/a	n/a
821.1796875	n/a	210222	largeTSmallT	correct	congruent	0.4873	no	T	T
821.6669922	n/a	210346.75	responseLargeT	correct	n/a	0.4873	no	n/a	n/a
822.7397461	n/a	210621.375	largeHSmallH	correct	congruent	0.50049	no	H	H
823.2402344	n/a	210749.5	responseLargeH	correct	n/a	0.50049	no	n/a	n/a
824.2998047	n/a	211020.75	largeHSmallT	error	incongruent	0.3623	no	H	T
824.6621094	n/a	211113.5	responseLargeT	error	n/a	0.3623	no	n/a	n/a
825.7397461	n/a	211389.375	largeTSmallT	correct	congruent	0.51953	no	T	T
826.2592773	n/a	211522.375	responseLargeT	correct	n/a	0.51953	no	n/a	n/a
827.3261719	n/a	211795.5	largeTSmallT	correct	congruent	0.53906	no	T	T
827.8652344	n/a	211933.5	responseLargeT	correct	n/a	0.53906	no	n/a	n/a
828.9394531	n/a	212208.5	largeHSmallT	correct	incongruent	0.47021	no	H	T
829.409668	n/a	212328.875	responseLargeH	correct	n/a	0.47021	no	n/a	n/a
830.4863281	n/a	212604.5	largeHSmallT	correct	incongruent	0.375	no	H	T
830.8613281	n/a	212700.5	responseLargeH	correct	n/a	0.375	no	n/a	n/a
831.9394531	n/a	212976.5	largeTSmallH	correct	incongruent	0.59619	no	T	H
832.5356445	n/a	213129.125	responseLargeT	correct	n/a	0.59619	no	n/a	n/a
833.605957	n/a	213403.125	largeHSmallH	correct	congruent	0.46582	no	H	H
834.0717773	n/a	213522.375	responseLargeH	correct	n/a	0.46582	no	n/a	n/a
835.152832	n/a	213799.125	largeTSmallH	correct	incongruent	0.47119	no	T	H
835.6240234	n/a	213919.75	responseLargeT	correct	n/a	0.47119	no	n/a	n/a
836.6860352	n/a	214191.625	largeHSmallT	correct	incongruent	0.38818	no	H	T
837.0742188	n/a	214291	responseLargeH	correct	n/a	0.38818	no	n/a	n/a
838.1391602	n/a	214563.625	largeHSmallT	error	incongruent	0.36572	no	H	T
838.5048828	n/a	214657.25	responseLargeT	error	n/a	0.36572	no	n/a	n/a
839.5791016	n/a	214932.25	largeTSmallH	error	incongruent	0.57227	no	T	H
840.1513672	n/a	215078.75	responseLargeH	error	n/a	0.57227	no	n/a	n/a
841.2192383	n/a	215352.125	largeHSmallT	correct	incongruent	0.57275	no	H	T
841.7919922	n/a	215498.75	responseLargeH	correct	n/a	0.57275	no	n/a	n/a
842.8725586	n/a	215775.375	largeTSmallH	correct	incongruent	0.61328	no	T	H
843.4858398	n/a	215932.375	responseLargeT	correct	n/a	0.61328	no	n/a	n/a
844.5522461	n/a	216205.375	largeHSmallT	correct	incongruent	0.53369	no	H	T
845.0859375	n/a	216342	responseLargeH	correct	n/a	0.53369	no	n/a	n/a
846.1655273	n/a	216618.375	largeHSmallT	error	incongruent	0.3833	no	H	T
846.5488281	n/a	216716.5	responseLargeT	error	n/a	0.3833	no	n/a	n/a
847.6323242	n/a	216993.875	largeTSmallT	correct	congruent	0.79492	no	T	T
848.4272461	n/a	217197.375	responseLargeT	correct	n/a	0.79492	no	n/a	n/a
849.4990234	n/a	217471.75	largeTSmallH	correct	incongruent	0.56006	no	T	H
850.059082	n/a	217615.125	responseLargeT	correct	n/a	0.56006	no	n/a	n/a
851.1386719	n/a	217891.5	largeHSmallT	error	incongruent	0.45459	no	H	T
851.5932617	n/a	218007.875	responseLargeT	error	n/a	0.45459	no	n/a	n/a
852.6591797	n/a	218280.75	largeHSmallT	correct	incongruent	0.60645	no	H	T
853.265625	n/a	218436	responseLargeH	correct	n/a	0.60645	no	n/a	n/a
854.3388672	n/a	218710.75	largeTSmallT	correct	congruent	0.62793	no	T	T
854.9667969	n/a	218871.5	responseLargeT	correct	n/a	0.62793	no	n/a	n/a
856.0327148	n/a	219144.375	largeHSmallT	correct	incongruent	0.3916	no	H	T
856.4243164	n/a	219244.625	responseLargeH	correct	n/a	0.3916	no	n/a	n/a
857.4985352	n/a	219519.625	largeHSmallT	error	incongruent	0.35254	no	H	T
857.8510742	n/a	219609.875	responseLargeT	error	n/a	0.35254	no	n/a	n/a
858.925293	n/a	219884.875	largeHSmallT	correct	incongruent	0.36426	no	H	T
859.2895508	n/a	219978.125	responseLargeH	correct	n/a	0.36426	no	n/a	n/a
860.3520508	n/a	220250.125	largeTSmallT	correct	congruent	0.69775	no	T	T
861.0498047	n/a	220428.75	responseLargeT	correct	n/a	0.69775	no	n/a	n/a
862.1118164	n/a	220700.625	largeHSmallH	correct	congruent	0.41553	no	H	H
862.5273438	n/a	220807	responseLargeH	correct	n/a	0.41553	no	n/a	n/a
863.6049805	n/a	221082.875	largeHSmallH	correct	congruent	0.39307	no	H	H
863.9980469	n/a	221183.5	responseLargeH	correct	n/a	0.39307	no	n/a	n/a
865.0717773	n/a	221458.375	largeTSmallT	correct	congruent	0.59229	no	T	T
865.6640625	n/a	221610	responseLargeT	correct	n/a	0.59229	no	n/a	n/a
866.7382812	n/a	221885	largeHSmallH	correct	congruent	0.63818	no	H	H
867.3764648	n/a	222048.375	responseLargeH	correct	n/a	0.63818	no	n/a	n/a
868.4584961	n/a	222325.375	largeHSmallT	correct	incongruent	0.52246	no	H	T
868.980957	n/a	222459.125	responseLargeH	correct	n/a	0.52246	no	n/a	n/a
870.0449219	n/a	222731.5	largeHSmallT	correct	incongruent	0.72705	no	H	T
870.7719727	n/a	222917.625	responseLargeH	correct	n/a	0.72705	no	n/a	n/a
871.8452148	n/a	223192.375	largeTSmallH	error	incongruent	0.4458	no	T	H
872.2910156	n/a	223306.5	responseLargeH	error	n/a	0.4458	no	n/a	n/a
873.3652344	n/a	223581.5	largeTSmallH	correct	incongruent	0.53955	no	T	H
873.9047852	n/a	223719.625	responseLargeT	correct	n/a	0.53955	no	n/a	n/a
874.9780273	n/a	223994.375	largeHSmallT	error	incongruent	0.46094	no	H	T
875.4389648	n/a	224112.375	responseLargeT	error	n/a	0.46094	no	n/a	n/a
876.4980469	n/a	224383.5	largeTSmallH	correct	incongruent	0.59717	no	T	H
877.0952148	n/a	224536.375	responseLargeT	correct	n/a	0.59717	no	n/a	n/a
878.1782227	n/a	224813.625	largeHSmallH	correct	congruent	0.43652	no	H	H
878.6147461	n/a	224925.375	responseLargeH	correct	n/a	0.43652	no	n/a	n/a
879.6850586	n/a	225199.375	largeTSmallT	correct	congruent	0.43652	no	T	T
880.121582	n/a	225311.125	responseLargeT	correct	n/a	0.43652	no	n/a	n/a
881.1918945	n/a	225585.125	largeHSmallH	correct	congruent	0.49658	no	H	H
881.6884766	n/a	225712.25	responseLargeH	correct	n/a	0.49658	no	n/a	n/a
882.7646484	n/a	225987.75	largeHSmallH	correct	congruent	0.53516	no	H	H
883.2998047	n/a	226124.75	responseLargeH	correct	n/a	0.53516	no	n/a	n/a
884.3647461	n/a	226397.375	largeHSmallT	correct	incongruent	0.4873	no	H	T
884.8520508	n/a	226522.125	responseLargeH	correct	n/a	0.4873	no	n/a	n/a
885.9248047	n/a	226796.75	largeHSmallT	correct	incongruent	0.41357	no	H	T
886.3383789	n/a	226902.625	responseLargeH	correct	n/a	0.41357	no	n/a	n/a
887.4047852	n/a	227175.625	largeHSmallH	correct	congruent	0.36084	no	H	H
887.765625	n/a	227268	responseLargeH	correct	n/a	0.36084	no	n/a	n/a
888.8447266	n/a	227544.25	largeHSmallT	correct	incongruent	0.37402	no	H	T
889.21875	n/a	227640	responseLargeH	correct	n/a	0.37402	no	n/a	n/a
890.2978516	n/a	227916.25	largeTSmallT	correct	congruent	0.56592	no	T	T
890.8637695	n/a	228061.125	responseLargeT	correct	n/a	0.56592	no	n/a	n/a
891.9379883	n/a	228336.125	largeTSmallT	correct	congruent	0.37598	no	T	T
892.3139648	n/a	228432.375	responseLargeT	correct	n/a	0.37598	no	n/a	n/a
893.3779297	n/a	228704.75	largeTSmallH	correct	incongruent	0.45068	no	T	H
893.8286133	n/a	228820.125	responseLargeT	correct	n/a	0.45068	no	n/a	n/a
894.8979492	n/a	229093.875	largeHSmallH	correct	congruent	0.56689	no	H	H
895.4648438	n/a	229239	responseLargeH	correct	n/a	0.56689	no	n/a	n/a
896.5375977	n/a	229513.625	largeHSmallH	correct	congruent	0.54785	no	H	H
897.0854492	n/a	229653.875	responseLargeH	correct	n/a	0.54785	no	n/a	n/a
898.1508789	n/a	229926.625	largeHSmallT	correct	incongruent	1.001	no	H	T
899.1518555	n/a	230182.875	responseLargeH	correct	n/a	1.001	no	n/a	n/a
900.2177734	n/a	230455.75	largeTSmallH	error	incongruent	0.38037	no	T	H
900.5981445	n/a	230553.125	responseLargeH	error	n/a	0.38037	no	n/a	n/a
901.6708984	n/a	230827.75	largeHSmallH	correct	congruent	0.48584	no	H	H
902.1567383	n/a	230952.125	responseLargeH	correct	n/a	0.48584	no	n/a	n/a
903.230957	n/a	231227.125	largeHSmallH	correct	congruent	0.60742	no	H	H
903.8383789	n/a	231382.625	responseLargeH	correct	n/a	0.60742	no	n/a	n/a
904.9106445	n/a	231657.125	largeHSmallH	correct	congruent	0.58057	no	H	H
905.4912109	n/a	231805.75	responseLargeH	correct	n/a	0.58057	no	n/a	n/a
906.5639648	n/a	232080.375	largeHSmallT	correct	incongruent	0.38818	no	H	T
906.9521484	n/a	232179.75	responseLargeH	correct	n/a	0.38818	no	n/a	n/a
908.0307617	n/a	232455.875	largeHSmallH	correct	congruent	0.35498	no	H	H
908.3857422	n/a	232546.75	responseLargeH	correct	n/a	0.35498	no	n/a	n/a
909.4575195	n/a	232821.125	largeHSmallH	correct	congruent	0.32666	no	H	H
909.7841797	n/a	232904.75	responseLargeH	correct	n/a	0.32666	no	n/a	n/a
910.8574219	n/a	233179.5	largeHSmallT	correct	incongruent	0.40234	no	H	T
911.2597656	n/a	233282.5	responseLargeH	correct	n/a	0.40234	no	n/a	n/a
912.3374023	n/a	233558.375	largeTSmallT	error	congruent	0.33936	no	T	T
912.6767578	n/a	233645.25	responseLargeH	error	n/a	0.33936	no	n/a	n/a
913.7509766	n/a	233920.25	largeTSmallT	correct	congruent	0.4248	no	T	T
914.1757812	n/a	234029	responseLargeT	correct	n/a	0.4248	no	n/a	n/a
915.2573242	n/a	234305.875	largeTSmallT	correct	congruent	0.37842	no	T	T
915.6357422	n/a	234402.75	responseLargeT	correct	n/a	0.37842	no	n/a	n/a
916.6972656	n/a	234674.5	largeTSmallT	correct	congruent	0.35742	no	T	T
917.0546875	n/a	234766	responseLargeT	correct	n/a	0.35742	no	n/a	n/a
918.1240234	n/a	235039.75	largeHSmallH	error	congruent	0.37842	no	H	H
918.5024414	n/a	235136.625	responseLargeT	error	n/a	0.37842	no	n/a	n/a
919.5771484	n/a	235411.75	largeTSmallH	error	incongruent	0.38574	no	T	H
919.9628906	n/a	235510.5	responseLargeH	error	n/a	0.38574	no	n/a	n/a
921.043457	n/a	235787.125	largeHSmallT	correct	incongruent	0.4834	no	H	T
921.5268555	n/a	235910.875	responseLargeH	correct	n/a	0.4834	no	n/a	n/a
922.6035156	n/a	236186.5	largeTSmallT	correct	congruent	0.51074	no	T	T
923.1142578	n/a	236317.25	responseLargeT	correct	n/a	0.51074	no	n/a	n/a
924.1904297	n/a	236592.75	largeTSmallT	correct	congruent	0.61133	no	T	T
924.8017578	n/a	236749.25	responseLargeT	correct	n/a	0.61133	no	n/a	n/a
925.8701172	n/a	237022.75	largeHSmallH	correct	congruent	0.34375	no	H	H
926.2138672	n/a	237110.75	responseLargeH	correct	n/a	0.34375	no	n/a	n/a
927.2836914	n/a	237384.625	largeTSmallT	correct	congruent	0.40869	no	T	T
927.6923828	n/a	237489.25	responseLargeT	correct	n/a	0.40869	no	n/a	n/a
928.7636719	n/a	237763.5	largeHSmallH	correct	congruent	0.40186	no	H	H
929.1655273	n/a	237866.375	responseLargeH	correct	n/a	0.40186	no	n/a	n/a
930.2299805	n/a	238138.875	largeTSmallT	correct	congruent	0.42383	no	T	T
930.6538086	n/a	238247.375	responseLargeT	correct	n/a	0.42383	no	n/a	n/a
931.7236328	n/a	238521.25	largeTSmallH	error	incongruent	0.35254	no	T	H
932.0761719	n/a	238611.5	responseLargeH	error	n/a	0.35254	no	n/a	n/a
933.1499023	n/a	238886.375	largeTSmallT	correct	congruent	0.41309	no	T	T
933.5629883	n/a	238992.125	responseLargeT	correct	n/a	0.41309	no	n/a	n/a
934.6298828	n/a	239265.25	largeHSmallH	correct	congruent	0.80273	no	H	H
935.4326172	n/a	239470.75	responseLargeH	correct	n/a	0.80273	no	n/a	n/a
936.496582	n/a	239743.125	largeTSmallT	correct	congruent	0.48047	no	T	T
936.9770508	n/a	239866.125	responseLargeT	correct	n/a	0.48047	no	n/a	n/a
938.043457	n/a	240139.125	largeHSmallH	correct	congruent	0.41113	no	H	H
938.4545898	n/a	240244.375	responseLargeH	correct	n/a	0.41113	no	n/a	n/a
939.5366211	n/a	240521.375	largeHSmallH	correct	congruent	0.38037	no	H	H
939.9169922	n/a	240618.75	responseLargeH	correct	n/a	0.38037	no	n/a	n/a
940.9897461	n/a	240893.375	largeHSmallT	correct	incongruent	0.4209	no	H	T
941.4106445	n/a	241001.125	responseLargeH	correct	n/a	0.4209	no	n/a	n/a
942.4697266	n/a	241272.25	largeHSmallH	correct	congruent	0.39209	no	H	H
942.8618164	n/a	241372.625	responseLargeH	correct	n/a	0.39209	no	n/a	n/a
943.9233398	n/a	241644.375	largeHSmallT	correct	incongruent	0.34619	no	H	T
944.2695312	n/a	241733	responseLargeH	correct	n/a	0.34619	no	n/a	n/a
945.3496094	n/a	242009.5	largeHSmallH	correct	congruent	0.3623	no	H	H
945.7119141	n/a	242102.25	responseLargeH	correct	n/a	0.3623	no	n/a	n/a
946.7763672	n/a	242374.75	largeTSmallH	correct	incongruent	0.51514	no	T	H
947.2915039	n/a	242506.625	responseLargeT	correct	n/a	0.51514	no	n/a	n/a
948.362793	n/a	242780.875	largeTSmallT	correct	congruent	0.5332	no	T	T
948.8959961	n/a	242917.375	responseLargeT	correct	n/a	0.5332	no	n/a	n/a
949.9628906	n/a	243190.5	largeTSmallT	correct	congruent	0.5498	no	T	T
950.5126953	n/a	243331.25	responseLargeT	correct	n/a	0.5498	no	n/a	n/a
951.5893555	n/a	243606.875	largeHSmallH	correct	congruent	0.46387	no	H	H
952.0532227	n/a	243725.625	responseLargeH	correct	n/a	0.46387	no	n/a	n/a
953.1362305	n/a	244002.875	largeTSmallH	correct	incongruent	0.39893	no	T	H
953.5351562	n/a	244105	responseLargeT	correct	n/a	0.39893	no	n/a	n/a
954.6162109	n/a	244381.75	largeHSmallH	correct	congruent	0.46094	no	H	H
955.0771484	n/a	244499.75	responseLargeH	correct	n/a	0.46094	no	n/a	n/a
956.1362305	n/a	244770.875	largeTSmallT	correct	congruent	0.43213	no	T	T
956.5683594	n/a	244881.5	responseLargeT	correct	n/a	0.43213	no	n/a	n/a
957.6425781	n/a	245156.5	largeTSmallH	error	incongruent	0.4209	no	T	H
958.0634766	n/a	245264.25	responseLargeH	error	n/a	0.4209	no	n/a	n/a
959.1362305	n/a	245538.875	largeHSmallT	error	incongruent	0.39014	no	H	T
959.5263672	n/a	245638.75	responseLargeT	error	n/a	0.39014	no	n/a	n/a
960.6030273	n/a	245914.375	largeHSmallT	correct	incongruent	0.39258	no	H	T
960.9956055	n/a	246014.875	responseLargeH	correct	n/a	0.39258	no	n/a	n/a
962.0693359	n/a	246289.75	largeHSmallH	correct	congruent	0.39209	no	H	H
962.4614258	n/a	246390.125	responseLargeH	correct	n/a	0.39209	no	n/a	n/a
963.5361328	n/a	246665.25	largeTSmallT	error	congruent	0.39551	no	T	T
963.9316406	n/a	246766.5	responseLargeH	error	n/a	0.39551	no	n/a	n/a
965.0024414	n/a	247040.625	largeHSmallT	correct	incongruent	0.43164	no	H	T
965.434082	n/a	247151.125	responseLargeH	correct	n/a	0.43164	no	n/a	n/a
966.4960938	n/a	247423	largeTSmallT	error	congruent	0.479	no	T	T
966.9750977	n/a	247545.625	responseLargeH	error	n/a	0.479	no	n/a	n/a
968.0424805	n/a	247818.875	largeHSmallT	correct	incongruent	0.74805	no	H	T
968.7905273	n/a	248010.375	responseLargeH	correct	n/a	0.74805	no	n/a	n/a
969.8691406	n/a	248286.5	largeHSmallT	correct	incongruent	0.87549	no	H	T
970.7446289	n/a	248510.625	responseLargeH	correct	n/a	0.87549	no	n/a	n/a
971.815918	n/a	248784.875	largeTSmallT	correct	congruent	0.38281	no	T	T
972.1987305	n/a	248882.875	responseLargeT	correct	n/a	0.38281	no	n/a	n/a
973.269043	n/a	249156.875	largeHSmallT	correct	incongruent	0.5752	no	H	T
973.8442383	n/a	249304.125	responseLargeH	correct	n/a	0.5752	no	n/a	n/a
974.9091797	n/a	249576.75	largeHSmallT	correct	incongruent	0.5835	no	H	T
975.4926758	n/a	249726.125	responseLargeH	correct	n/a	0.5835	no	n/a	n/a
976.5625	n/a	250000	largeTSmallH	correct	incongruent	0.55664	no	T	H
977.1191406	n/a	250142.5	responseLargeT	correct	n/a	0.55664	no	n/a	n/a
978.1889648	n/a	250416.375	largeHSmallT	correct	incongruent	0.52393	no	H	T
978.7128906	n/a	250550.5	responseLargeH	correct	n/a	0.52393	no	n/a	n/a
979.7890625	n/a	250826	largeTSmallT	correct	congruent	0.42285	no	T	T
980.2119141	n/a	250934.25	responseLargeT	correct	n/a	0.42285	no	n/a	n/a
981.2827148	n/a	251208.375	largeHSmallT	correct	incongruent	0.53516	no	H	T
981.8178711	n/a	251345.375	responseLargeH	correct	n/a	0.53516	no	n/a	n/a
982.8955078	n/a	251621.25	largeTSmallH	correct	incongruent	0.40625	no	T	H
983.3017578	n/a	251725.25	responseLargeT	correct	n/a	0.40625	no	n/a	n/a
984.3754883	n/a	252000.125	largeHSmallH	correct	congruent	0.38965	no	H	H
984.7651367	n/a	252099.875	responseLargeH	correct	n/a	0.38965	no	n/a	n/a
985.8422852	n/a	252375.625	largeTSmallT	correct	congruent	0.38281	no	T	T
986.2250977	n/a	252473.625	responseLargeT	correct	n/a	0.38281	no	n/a	n/a
987.2954102	n/a	252747.625	largeHSmallH	correct	congruent	0.8667	no	H	H
988.1621094	n/a	252969.5	responseLargeH	correct	n/a	0.8667	no	n/a	n/a
989.2285156	n/a	253242.5	largeTSmallT	correct	congruent	0.38867	no	T	T
989.6171875	n/a	253342	responseLargeT	correct	n/a	0.38867	no	n/a	n/a
990.6953125	n/a	253618	largeTSmallT	correct	congruent	0.66553	no	T	T
991.3608398	n/a	253788.375	responseLargeT	correct	n/a	0.66553	no	n/a	n/a
992.4282227	n/a	254061.625	largeHSmallH	correct	congruent	0.37256	no	H	H
992.8007812	n/a	254157	responseLargeH	correct	n/a	0.37256	no	n/a	n/a
993.8818359	n/a	254433.75	largeTSmallH	correct	incongruent	0.57715	no	T	H
994.4589844	n/a	254581.5	responseLargeT	correct	n/a	0.57715	no	n/a	n/a
995.5351562	n/a	254857	largeTSmallH	correct	incongruent	0.48145	no	T	H
996.0166016	n/a	254980.25	responseLargeT	correct	n/a	0.48145	no	n/a	n/a
997.0952148	n/a	255256.375	largeHSmallT	correct	incongruent	0.56104	no	H	T
997.65625	n/a	255400	responseLargeH	correct	n/a	0.56104	no	n/a	n/a
998.7348633	n/a	255676.125	largeHSmallT	error	incongruent	0.39111	no	H	T
999.1259766	n/a	255776.25	responseLargeT	error	n/a	0.39111	no	n/a	n/a
1000.20166	n/a	256051.625	largeTSmallT	correct	congruent	0.52979	no	T	T
1000.731445	n/a	256187.25	responseLargeT	correct	n/a	0.52979	no	n/a	n/a
1001.801758	n/a	256461.25	largeHSmallH	correct	congruent	0.44727	no	H	H
1002.249023	n/a	256575.75	responseLargeH	correct	n/a	0.44727	no	n/a	n/a
1005.228027	n/a	257338.375	largeHSmallH	correct	congruent	0.64307	no	H	H
1005.871094	n/a	257503	responseSmallH	correct	n/a	0.64307	no	n/a	n/a
1006.93457	n/a	257775.25	largeTSmallT	correct	congruent	0.48193	no	T	T
1007.416504	n/a	257898.625	responseSmallT	correct	n/a	0.48193	no	n/a	n/a
1008.494629	n/a	258174.625	largeTSmallH	correct	incongruent	0.44873	no	T	H
1008.943359	n/a	258289.5	responseSmallH	correct	n/a	0.44873	no	n/a	n/a
1010.014648	n/a	258563.75	largeTSmallH	correct	incongruent	0.37207	no	T	H
1010.386719	n/a	258659	responseSmallH	correct	n/a	0.37207	no	n/a	n/a
1011.45459	n/a	258932.375	largeHSmallH	correct	congruent	0.48193	no	H	H
1011.936523	n/a	259055.75	responseSmallH	correct	n/a	0.48193	no	n/a	n/a
1013.001465	n/a	259328.375	largeTSmallT	error	congruent	0.43506	no	T	T
1013.436523	n/a	259439.75	responseSmallH	error	n/a	0.43506	no	n/a	n/a
1014.494629	n/a	259710.625	largeHSmallT	correct	incongruent	0.7124	no	H	T
1015.207031	n/a	259893	responseSmallT	correct	n/a	0.7124	no	n/a	n/a
1016.28125	n/a	260168	largeTSmallH	error	incongruent	0.39648	no	T	H
1016.677734	n/a	260269.5	responseSmallT	error	n/a	0.39648	no	n/a	n/a
1017.748047	n/a	260543.5	largeHSmallH	correct	congruent	0.45361	no	H	H
1018.20166	n/a	260659.625	responseSmallH	correct	n/a	0.45361	no	n/a	n/a
1019.267578	n/a	260932.5	largeHSmallT	correct	incongruent	0.58496	no	H	T
1019.852539	n/a	261082.25	responseSmallT	correct	n/a	0.58496	no	n/a	n/a
1020.93457	n/a	261359.25	largeTSmallT	correct	congruent	0.87256	no	T	T
1021.807129	n/a	261582.625	responseSmallT	correct	n/a	0.87256	no	n/a	n/a
1022.880859	n/a	261857.5	largeHSmallT	correct	incongruent	0.49512	no	H	T
1023.375977	n/a	261984.25	responseSmallT	correct	n/a	0.49512	no	n/a	n/a
1024.454102	n/a	262260.25	largeHSmallH	correct	congruent	0.85889	no	H	H
1025.312988	n/a	262480.125	responseSmallH	correct	n/a	0.85889	no	n/a	n/a
1026.387695	n/a	262755.25	largeHSmallT	correct	incongruent	0.42285	no	H	T
1026.810547	n/a	262863.5	responseSmallT	correct	n/a	0.42285	no	n/a	n/a
1027.880859	n/a	263137.5	largeTSmallT	correct	congruent	0.46875	no	T	T
1028.349609	n/a	263257.5	responseSmallT	correct	n/a	0.46875	no	n/a	n/a
1029.414062	n/a	263530	largeHSmallT	correct	incongruent	0.72705	no	H	T
1030.141113	n/a	263716.125	responseSmallT	correct	n/a	0.72705	no	n/a	n/a
1031.214355	n/a	263990.875	largeHSmallT	correct	incongruent	0.52002	no	H	T
1031.734375	n/a	264124	responseSmallT	correct	n/a	0.52002	no	n/a	n/a
1032.800781	n/a	264397	largeHSmallH	correct	congruent	0.51514	no	H	H
1033.315918	n/a	264528.875	responseSmallH	correct	n/a	0.51514	no	n/a	n/a
1034.387695	n/a	264803.25	largeHSmallH	correct	congruent	0.55664	no	H	H
1034.944336	n/a	264945.75	responseSmallH	correct	n/a	0.55664	no	n/a	n/a
1036.01416	n/a	265219.625	largeHSmallT	error	incongruent	0.45996	no	H	T
1036.474121	n/a	265337.375	responseSmallH	error	n/a	0.45996	no	n/a	n/a
1037.547363	n/a	265612.125	largeHSmallH	correct	congruent	0.65674	no	H	H
1038.204102	n/a	265780.25	responseSmallH	correct	n/a	0.65674	no	n/a	n/a
1039.26709	n/a	266052.375	largeTSmallH	correct	incongruent	0.61328	no	T	H
1039.880371	n/a	266209.375	responseSmallH	correct	n/a	0.61328	no	n/a	n/a
1040.960449	n/a	266485.875	largeHSmallT	correct	incongruent	0.58887	no	H	T
1041.549316	n/a	266636.625	responseSmallT	correct	n/a	0.58887	no	n/a	n/a
1042.627441	n/a	266912.625	largeTSmallH	correct	incongruent	0.55127	no	T	H
1043.178711	n/a	267053.75	responseSmallH	correct	n/a	0.55127	no	n/a	n/a
1044.253906	n/a	267329	largeTSmallT	correct	congruent	0.42236	no	T	T
1044.67627	n/a	267437.125	responseSmallT	correct	n/a	0.42236	no	n/a	n/a
1045.74707	n/a	267711.25	largeHSmallH	correct	congruent	0.47461	no	H	H
1046.22168	n/a	267832.75	responseSmallH	correct	n/a	0.47461	no	n/a	n/a
1047.293945	n/a	268107.25	largeHSmallH	error	congruent	0.37939	no	H	H
1047.67334	n/a	268204.375	responseSmallT	error	n/a	0.37939	no	n/a	n/a
1048.74707	n/a	268479.25	largeHSmallH	correct	congruent	0.46045	no	H	H
1049.20752	n/a	268597.125	responseSmallH	correct	n/a	0.46045	no	n/a	n/a
1050.26709	n/a	268868.375	largeHSmallT	correct	incongruent	0.48584	no	H	T
1050.75293	n/a	268992.75	responseSmallT	correct	n/a	0.48584	no	n/a	n/a
1051.813477	n/a	269264.25	largeTSmallT	correct	congruent	0.51318	no	T	T
1052.32666	n/a	269395.625	responseSmallT	correct	n/a	0.51318	no	n/a	n/a
1053.386719	n/a	269667	largeTSmallT	error	congruent	0.4541	no	T	T
1053.84082	n/a	269783.25	responseSmallH	error	n/a	0.4541	no	n/a	n/a
1054.906738	n/a	270056.125	largeTSmallH	correct	incongruent	0.59668	no	T	H
1055.503418	n/a	270208.875	responseSmallH	correct	n/a	0.59668	no	n/a	n/a
1056.57373	n/a	270482.875	largeTSmallH	correct	incongruent	0.36523	no	T	H
1056.938965	n/a	270576.375	responseSmallH	correct	n/a	0.36523	no	n/a	n/a
1058.013184	n/a	270851.375	largeHSmallT	correct	incongruent	0.84717	no	H	T
1058.860352	n/a	271068.25	responseSmallT	correct	n/a	0.84717	no	n/a	n/a
1059.933594	n/a	271343	largeTSmallH	correct	incongruent	0.69531	no	T	H
1060.628906	n/a	271521	responseSmallH	correct	n/a	0.69531	no	n/a	n/a
1061.706543	n/a	271796.875	largeTSmallT	correct	congruent	0.45654	no	T	T
1062.163086	n/a	271913.75	responseSmallT	correct	n/a	0.45654	no	n/a	n/a
1063.239746	n/a	272189.375	largeHSmallH	correct	congruent	0.53418	no	H	H
1063.773926	n/a	272326.125	responseSmallH	correct	n/a	0.53418	no	n/a	n/a
1064.839844	n/a	272599	largeHSmallT	correct	incongruent	0.68945	no	H	T
1065.529297	n/a	272775.5	responseSmallT	correct	n/a	0.68945	no	n/a	n/a
1066.600098	n/a	273049.625	largeHSmallT	correct	incongruent	0.56104	no	H	T
1067.161133	n/a	273193.25	responseSmallT	correct	n/a	0.56104	no	n/a	n/a
1068.226562	n/a	273466	largeTSmallH	correct	incongruent	0.63232	no	T	H
1068.858887	n/a	273627.875	responseSmallH	correct	n/a	0.63232	no	n/a	n/a
1069.933105	n/a	273902.875	largeTSmallT	correct	congruent	0.46289	no	T	T
1070.395996	n/a	274021.375	responseSmallT	correct	n/a	0.46289	no	n/a	n/a
1071.466309	n/a	274295.375	largeHSmallH	correct	congruent	0.52979	no	H	H
1071.996094	n/a	274431	responseSmallH	correct	n/a	0.52979	no	n/a	n/a
1073.066406	n/a	274705	largeTSmallT	correct	congruent	0.36328	no	T	T
1073.429688	n/a	274798	responseSmallT	correct	n/a	0.36328	no	n/a	n/a
1074.493164	n/a	275070.25	largeTSmallH	correct	incongruent	0.41699	no	T	H
1074.910156	n/a	275177	responseSmallH	correct	n/a	0.41699	no	n/a	n/a
1075.986328	n/a	275452.5	largeHSmallT	correct	incongruent	0.38037	no	H	T
1076.366699	n/a	275549.875	responseSmallT	correct	n/a	0.38037	no	n/a	n/a
1077.42627	n/a	275821.125	largeHSmallT	error	incongruent	0.3501	no	H	T
1077.776367	n/a	275910.75	responseSmallH	error	n/a	0.3501	no	n/a	n/a
1078.853027	n/a	276186.375	largeHSmallT	correct	incongruent	0.94824	no	H	T
1079.80127	n/a	276429.125	responseSmallT	correct	n/a	0.94824	no	n/a	n/a
1080.879395	n/a	276705.125	largeTSmallT	correct	congruent	0.39551	no	T	T
1081.274902	n/a	276806.375	responseSmallT	correct	n/a	0.39551	no	n/a	n/a
1082.346191	n/a	277080.625	largeTSmallT	correct	congruent	0.37549	no	T	T
1082.72168	n/a	277176.75	responseSmallT	correct	n/a	0.37549	no	n/a	n/a
1083.799316	n/a	277452.625	largeTSmallT	correct	congruent	0.3877	no	T	T
1084.187012	n/a	277551.875	responseSmallT	correct	n/a	0.3877	no	n/a	n/a
1085.266113	n/a	277828.125	largeTSmallT	correct	congruent	0.39453	no	T	T
1085.660645	n/a	277929.125	responseSmallT	correct	n/a	0.39453	no	n/a	n/a
1086.73291	n/a	278203.625	largeTSmallT	correct	congruent	0.37549	no	T	T
1087.108398	n/a	278299.75	responseSmallT	correct	n/a	0.37549	no	n/a	n/a
1088.186035	n/a	278575.625	largeHSmallT	correct	incongruent	0.36084	no	H	T
1088.546875	n/a	278668	responseSmallT	correct	n/a	0.36084	no	n/a	n/a
1089.612793	n/a	278940.875	largeHSmallT	correct	incongruent	0.33105	no	H	T
1089.943848	n/a	279025.625	responseSmallT	correct	n/a	0.33105	no	n/a	n/a
1091.025879	n/a	279302.625	largeTSmallT	correct	congruent	0.31396	no	T	T
1091.339844	n/a	279383	responseSmallT	correct	n/a	0.31396	no	n/a	n/a
1092.412598	n/a	279657.625	largeTSmallH	error	incongruent	0.37695	no	T	H
1092.789551	n/a	279754.125	responseSmallT	error	n/a	0.37695	no	n/a	n/a
1093.852539	n/a	280026.25	largeHSmallH	correct	congruent	0.4165	no	H	H
1094.269043	n/a	280132.875	responseSmallH	correct	n/a	0.4165	no	n/a	n/a
1095.345703	n/a	280408.5	largeHSmallH	correct	congruent	0.34668	no	H	H
1095.692383	n/a	280497.25	responseSmallH	correct	n/a	0.34668	no	n/a	n/a
1096.759277	n/a	280770.375	largeTSmallH	correct	incongruent	0.36768	no	T	H
1097.126953	n/a	280864.5	responseSmallH	correct	n/a	0.36768	no	n/a	n/a
1098.199219	n/a	281139	largeHSmallT	correct	incongruent	0.75049	no	H	T
1098.949707	n/a	281331.125	responseSmallT	correct	n/a	0.75049	no	n/a	n/a
1100.025879	n/a	281606.625	largeTSmallH	correct	incongruent	0.69482	no	T	H
1100.720703	n/a	281784.5	responseSmallH	correct	n/a	0.69482	no	n/a	n/a
1101.798828	n/a	282060.5	largeTSmallH	correct	incongruent	0.60596	no	T	H
1102.404785	n/a	282215.625	responseSmallH	correct	n/a	0.60596	no	n/a	n/a
1103.46582	n/a	282487.25	largeHSmallT	error	incongruent	0.58691	no	H	T
1104.052734	n/a	282637.5	responseSmallH	error	n/a	0.58691	no	n/a	n/a
1105.132324	n/a	282913.875	largeTSmallH	correct	incongruent	0.81104	no	T	H
1105.943359	n/a	283121.5	responseSmallH	correct	n/a	0.81104	no	n/a	n/a
1107.012207	n/a	283395.125	largeTSmallH	correct	incongruent	0.82617	no	T	H
1107.838379	n/a	283606.625	responseSmallH	correct	n/a	0.82617	no	n/a	n/a
1108.918945	n/a	283883.25	largeHSmallT	correct	incongruent	0.5835	no	H	T
1109.502441	n/a	284032.625	responseSmallT	correct	n/a	0.5835	no	n/a	n/a
1110.585449	n/a	284309.875	largeTSmallT	correct	congruent	0.45215	no	T	T
1111.037598	n/a	284425.625	responseSmallT	correct	n/a	0.45215	no	n/a	n/a
1112.118652	n/a	284702.375	largeHSmallH	correct	congruent	0.38184	no	H	H
1112.500488	n/a	284800.125	responseSmallH	correct	n/a	0.38184	no	n/a	n/a
1113.571777	n/a	285074.375	largeTSmallT	correct	congruent	0.42285	no	T	T
1113.994629	n/a	285182.625	responseSmallT	correct	n/a	0.42285	no	n/a	n/a
1115.06543	n/a	285456.75	largeTSmallH	correct	incongruent	0.38867	no	T	H
1115.454102	n/a	285556.25	responseSmallH	correct	n/a	0.38867	no	n/a	n/a
1116.532227	n/a	285832.25	largeHSmallT	correct	incongruent	0.45361	no	H	T
1116.98584	n/a	285948.375	responseSmallT	correct	n/a	0.45361	no	n/a	n/a
1118.051758	n/a	286221.25	largeHSmallT	correct	incongruent	0.60205	no	H	T
1118.653809	n/a	286375.375	responseSmallT	correct	n/a	0.60205	no	n/a	n/a
1119.71875	n/a	286648	largeHSmallH	correct	congruent	0.41064	no	H	H
1120.129395	n/a	286753.125	responseSmallH	correct	n/a	0.41064	no	n/a	n/a
1121.198242	n/a	287026.75	largeHSmallH	correct	congruent	0.60352	no	H	H
1121.801758	n/a	287181.25	responseSmallH	correct	n/a	0.60352	no	n/a	n/a
1122.878418	n/a	287456.875	largeHSmallT	correct	incongruent	0.33398	no	H	T
1123.212402	n/a	287542.375	responseSmallT	correct	n/a	0.33398	no	n/a	n/a
1124.27832	n/a	287815.25	largeHSmallT	correct	incongruent	0.354	no	H	T
1124.632324	n/a	287905.875	responseSmallT	correct	n/a	0.354	no	n/a	n/a
1125.691895	n/a	288177.125	largeTSmallH	correct	incongruent	0.35498	no	T	H
1126.046875	n/a	288268	responseSmallH	correct	n/a	0.35498	no	n/a	n/a
1127.118164	n/a	288542.25	largeHSmallH	correct	congruent	0.60449	no	H	H
1127.722656	n/a	288697	responseSmallH	correct	n/a	0.60449	no	n/a	n/a
1128.785156	n/a	288969	largeHSmallT	correct	incongruent	0.33008	no	H	T
1129.115234	n/a	289053.5	responseSmallT	correct	n/a	0.33008	no	n/a	n/a
1130.185059	n/a	289327.375	largeHSmallH	correct	congruent	0.52393	no	H	H
1130.708984	n/a	289461.5	responseSmallH	correct	n/a	0.52393	no	n/a	n/a
1131.785156	n/a	289737	largeTSmallH	error	incongruent	0.34912	no	T	H
1132.134277	n/a	289826.375	responseSmallT	error	n/a	0.34912	no	n/a	n/a
1133.198242	n/a	290098.75	largeHSmallH	correct	congruent	0.3374	no	H	H
1133.535645	n/a	290185.125	responseSmallH	correct	n/a	0.3374	no	n/a	n/a
1134.611328	n/a	290460.5	largeTSmallT	correct	congruent	0.57666	no	T	T
1135.187988	n/a	290608.125	responseSmallT	correct	n/a	0.57666	no	n/a	n/a
1136.264648	n/a	290883.75	largeHSmallT	correct	incongruent	0.49414	no	H	T
1136.758789	n/a	291010.25	responseSmallT	correct	n/a	0.49414	no	n/a	n/a
1137.837891	n/a	291286.5	largeTSmallT	error	congruent	0.35742	no	T	T
1138.195312	n/a	291378	responseSmallH	error	n/a	0.35742	no	n/a	n/a
1139.264648	n/a	291651.75	largeHSmallT	correct	incongruent	0.33984	no	H	T
1139.604492	n/a	291738.75	responseSmallT	correct	n/a	0.33984	no	n/a	n/a
1140.678223	n/a	292013.625	largeHSmallH	correct	congruent	0.40625	no	H	H
1141.084473	n/a	292117.625	responseSmallH	correct	n/a	0.40625	no	n/a	n/a
1142.157715	n/a	292392.375	largeTSmallH	error	incongruent	0.38623	no	T	H
1142.543945	n/a	292491.25	responseSmallT	error	n/a	0.38623	no	n/a	n/a
1143.611328	n/a	292764.5	largeTSmallH	correct	incongruent	0.31299	no	T	H
1143.924316	n/a	292844.625	responseSmallH	correct	n/a	0.31299	no	n/a	n/a
1144.998047	n/a	293119.5	largeHSmallH	correct	congruent	0.37842	no	H	H
1145.376465	n/a	293216.375	responseSmallH	correct	n/a	0.37842	no	n/a	n/a
1146.451172	n/a	293491.5	largeHSmallT	error	incongruent	0.38965	no	H	T
1146.84082	n/a	293591.25	responseSmallH	error	n/a	0.38965	no	n/a	n/a
1147.917969	n/a	293867	largeHSmallH	correct	congruent	0.72021	no	H	H
1148.638184	n/a	294051.375	responseSmallH	correct	n/a	0.72021	no	n/a	n/a
1149.70459	n/a	294324.375	largeTSmallT	correct	congruent	0.35596	no	T	T
1150.060547	n/a	294415.5	responseSmallT	correct	n/a	0.35596	no	n/a	n/a
1151.118164	n/a	294686.25	largeHSmallT	correct	incongruent	0.4917	no	H	T
1151.609863	n/a	294812.125	responseSmallT	correct	n/a	0.4917	no	n/a	n/a
1152.690918	n/a	295088.875	largeTSmallH	correct	incongruent	0.35596	no	T	H
1153.046875	n/a	295180	responseSmallH	correct	n/a	0.35596	no	n/a	n/a
1154.117676	n/a	295454.125	largeTSmallT	correct	congruent	0.63281	no	T	T
1154.750488	n/a	295616.125	responseSmallT	correct	n/a	0.63281	no	n/a	n/a
1155.824219	n/a	295891	largeTSmallH	correct	incongruent	0.34521	no	T	H
1156.169434	n/a	295979.375	responseSmallH	correct	n/a	0.34521	no	n/a	n/a
