onset	duration	sample	value	response_type	congruence	response_time	response_out_of_range	largeletter	smallletter
6.46875	n/a	1656	largeTSmallT	correct	congruent	1.1641	no	T	T
7.6328125	n/a	1954	responseLargeT	correct	n/a	1.1641	no	n/a	n/a
8.70703125	n/a	2229	largeTSmallH	error	incongruent	0.58203	no	T	H
9.2890625	n/a	2378	responseLargeH	error	n/a	0.58203	no	n/a	n/a
10.359375	n/a	2652	largeHSmallT	n/a	incongruent	n/a	n/a	H	T
11.7734375	n/a	3014	largeHSmallH	error	congruent	0.52344	no	H	H
12.296875	n/a	3148	responseLargeT	error	n/a	0.52344	no	n/a	n/a
13.375	n/a	3424	largeHSmallH	error	congruent	0.42578	no	H	H
13.80078125	n/a	3533	responseLargeT	error	n/a	0.42578	no	n/a	n/a
14.8671875	n/a	3806	largeHSmallT	error	incongruent	0.80078	no	H	T
15.66796875	n/a	4011	responseLargeT	error	n/a	0.80078	no	n/a	n/a
16.734375	n/a	4284	largeTSmallT	correct	congruent	0.49609	no	T	T
17.23046875	n/a	4411	responseLargeT	correct	n/a	0.49609	no	n/a	n/a
18.29296875	n/a	4683	largeHSmallH	error	congruent	0.38281	no	H	H
18.67578125	n/a	4781	responseLargeT	error	n/a	0.38281	no	n/a	n/a
19.74609375	n/a	5055	largeHSmallH	error	congruent	0.36719	no	H	H
20.11328125	n/a	5149	responseLargeT	error	n/a	0.36719	no	n/a	n/a
21.1875	n/a	5424	largeHSmallT	error	incongruent	0.42969	no	H	T
21.6171875	n/a	5534	responseLargeT	error	n/a	0.42969	no	n/a	n/a
22.6796875	n/a	5806	largeHSmallH	error	congruent	0.34766	no	H	H
23.02734375	n/a	5895	responseLargeT	error	n/a	0.34766	no	n/a	n/a
24.10546875	n/a	6171	largeTSmallT	correct	congruent	0.44531	no	T	T
24.55078125	n/a	6285	responseLargeT	correct	n/a	0.44531	no	n/a	n/a
25.61328125	n/a	6557	largeHSmallH	error	congruent	0.41406	no	H	H
26.02734375	n/a	6663	responseLargeT	error	n/a	0.41406	no	n/a	n/a
27.09375	n/a	6936	largeTSmallH	correct	incongruent	0.47266	no	T	H
27.56640625	n/a	7057	responseLargeT	correct	n/a	0.47266	no	n/a	n/a
28.640625	n/a	7332	largeHSmallH	error	congruent	0.32422	no	H	H
28.96484375	n/a	7415	responseLargeT	error	n/a	0.32422	no	n/a	n/a
30.02734375	n/a	7687	largeTSmallT	correct	congruent	0.4375	no	T	T
30.46484375	n/a	7799	responseLargeT	correct	n/a	0.4375	no	n/a	n/a
31.51953125	n/a	8069	largeTSmallH	correct	incongruent	0.59375	no	T	H
32.11328125	n/a	8221	responseLargeT	correct	n/a	0.59375	no	n/a	n/a
33.171875	n/a	8492	largeTSmallH	correct	incongruent	0.52344	no	T	H
33.6953125	n/a	8626	responseLargeT	correct	n/a	0.52344	no	n/a	n/a
34.76171875	n/a	8899	largeTSmallH	correct	incongruent	0.56641	no	T	H
35.328125	n/a	9044	responseLargeT	correct	n/a	0.56641	no	n/a	n/a
36.3984375	n/a	9318	largeHSmallH	error	congruent	0.49219	no	H	H
36.890625	n/a	9444	responseLargeT	error	n/a	0.49219	no	n/a	n/a
37.9453125	n/a	9714	largeHSmallH	error	congruent	0.42188	no	H	H
38.3671875	n/a	9822	responseLargeT	error	n/a	0.42188	no	n/a	n/a
39.44140625	n/a	10097	largeHSmallH	error	congruent	0.39844	no	H	H
39.83984375	n/a	10199	responseLargeT	error	n/a	0.39844	no	n/a	n/a
40.90625	n/a	10472	largeTSmallH	correct	incongruent	0.48828	no	T	H
41.39453125	n/a	10597	responseLargeT	correct	n/a	0.48828	no	n/a	n/a
42.46875	n/a	10872	largeTSmallH	correct	incongruent	0.5625	no	T	H
43.03125	n/a	11016	responseLargeT	correct	n/a	0.5625	no	n/a	n/a
44.10546875	n/a	11291	largeHSmallH	error	congruent	0.44922	no	H	H
44.5546875	n/a	11406	responseLargeT	error	n/a	0.44922	no	n/a	n/a
45.61328125	n/a	11677	largeHSmallT	error	incongruent	0.44531	no	H	T
46.05859375	n/a	11791	responseLargeT	error	n/a	0.44531	no	n/a	n/a
47.12109375	n/a	12063	largeHSmallT	error	incongruent	0.42188	no	H	T
47.54296875	n/a	12171	responseLargeT	error	n/a	0.42188	no	n/a	n/a
48.61328125	n/a	12445	largeHSmallT	error	incongruent	0.41797	no	H	T
49.03125	n/a	12552	responseLargeT	error	n/a	0.41797	no	n/a	n/a
50.10546875	n/a	12827	largeTSmallH	correct	incongruent	0.47656	no	T	H
50.58203125	n/a	12949	responseLargeT	correct	n/a	0.47656	no	n/a	n/a
51.65234375	n/a	13223	largeHSmallT	error	incongruent	0.42969	no	H	T
52.08203125	n/a	13333	responseLargeT	error	n/a	0.42969	no	n/a	n/a
53.1484375	n/a	13606	largeTSmallT	correct	congruent	0.46875	no	T	T
53.6171875	n/a	13726	responseLargeT	correct	n/a	0.46875	no	n/a	n/a
54.6796875	n/a	13998	largeTSmallH	correct	incongruent	0.5	no	T	H
55.1796875	n/a	14126	responseLargeT	correct	n/a	0.5	no	n/a	n/a
56.25390625	n/a	14401	largeHSmallH	error	congruent	0.41406	no	H	H
56.66796875	n/a	14507	responseLargeT	error	n/a	0.41406	no	n/a	n/a
57.734375	n/a	14780	largeHSmallH	error	congruent	0.35156	no	H	H
58.0859375	n/a	14870	responseLargeT	error	n/a	0.35156	no	n/a	n/a
59.16015625	n/a	15145	largeTSmallH	correct	incongruent	0.37891	no	T	H
59.5390625	n/a	15242	responseLargeT	correct	n/a	0.37891	no	n/a	n/a
60.6015625	n/a	15514	largeHSmallT	error	incongruent	0.46875	no	H	T
61.0703125	n/a	15634	responseLargeT	error	n/a	0.46875	no	n/a	n/a
62.1328125	n/a	15906	largeTSmallT	correct	congruent	0.36328	no	T	T
62.49609375	n/a	15999	responseLargeT	correct	n/a	0.36328	no	n/a	n/a
63.57421875	n/a	16275	largeHSmallH	error	congruent	0.35938	no	H	H
63.93359375	n/a	16367	responseLargeT	error	n/a	0.35938	no	n/a	n/a
65	n/a	16640	largeHSmallT	error	incongruent	0.51562	no	H	T
65.515625	n/a	16772	responseLargeT	error	n/a	0.51562	no	n/a	n/a
66.5859375	n/a	17046	largeHSmallT	error	incongruent	0.45703	no	H	T
67.04296875	n/a	17163	responseLargeT	error	n/a	0.45703	no	n/a	n/a
68.10546875	n/a	17435	largeTSmallH	correct	incongruent	0.4375	no	T	H
68.54296875	n/a	17547	responseLargeT	correct	n/a	0.4375	no	n/a	n/a
69.59765625	n/a	17817	largeHSmallH	error	congruent	0.4375	no	H	H
70.03515625	n/a	17929	responseLargeT	error	n/a	0.4375	no	n/a	n/a
71.10546875	n/a	18203	largeTSmallT	correct	congruent	0.42188	no	T	T
71.52734375	n/a	18311	responseLargeT	correct	n/a	0.42188	no	n/a	n/a
72.59765625	n/a	18585	largeHSmallT	error	incongruent	0.35938	no	H	T
72.95703125	n/a	18677	responseLargeT	error	n/a	0.35938	no	n/a	n/a
74.02734375	n/a	18951	largeTSmallT	correct	congruent	0.42188	no	T	T
74.44921875	n/a	19059	responseLargeT	correct	n/a	0.42188	no	n/a	n/a
75.51953125	n/a	19333	largeHSmallT	error	incongruent	0.45312	no	H	T
75.97265625	n/a	19449	responseLargeT	error	n/a	0.45312	no	n/a	n/a
77.0390625	n/a	19722	largeHSmallT	error	incongruent	0.44922	no	H	T
77.48828125	n/a	19837	responseLargeT	error	n/a	0.44922	no	n/a	n/a
78.55859375	n/a	20111	largeTSmallH	correct	incongruent	0.43359	no	T	H
78.9921875	n/a	20222	responseLargeT	correct	n/a	0.43359	no	n/a	n/a
80.06640625	n/a	20497	largeTSmallH	correct	incongruent	0.44922	no	T	H
80.515625	n/a	20612	responseLargeT	correct	n/a	0.44922	no	n/a	n/a
81.5859375	n/a	20886	largeTSmallT	correct	congruent	0.38281	no	T	T
81.96875	n/a	20984	responseLargeT	correct	n/a	0.38281	no	n/a	n/a
83.0390625	n/a	21258	largeHSmallH	error	congruent	0.41797	no	H	H
83.45703125	n/a	21365	responseLargeT	error	n/a	0.41797	no	n/a	n/a
84.51953125	n/a	21637	largeTSmallT	correct	congruent	0.34375	no	T	T
84.86328125	n/a	21725	responseLargeT	correct	n/a	0.34375	no	n/a	n/a
85.9453125	n/a	22002	largeTSmallH	correct	incongruent	0.47266	no	T	H
86.41796875	n/a	22123	responseLargeT	correct	n/a	0.47266	no	n/a	n/a
87.48046875	n/a	22395	largeHSmallH	error	congruent	0.41016	no	H	H
87.890625	n/a	22500	responseLargeT	error	n/a	0.41016	no	n/a	n/a
88.97265625	n/a	22777	largeTSmallH	correct	incongruent	0.41406	no	T	H
89.38671875	n/a	22883	responseLargeT	correct	n/a	0.41406	no	n/a	n/a
90.453125	n/a	23156	largeHSmallH	error	congruent	0.37109	no	H	H
90.82421875	n/a	23251	responseLargeT	error	n/a	0.37109	no	n/a	n/a
91.87890625	n/a	23521	largeHSmallH	error	congruent	0.41406	no	H	H
92.29296875	n/a	23627	responseLargeT	error	n/a	0.41406	no	n/a	n/a
93.359375	n/a	23900	largeTSmallT	correct	congruent	0.38672	no	T	T
93.74609375	n/a	23999	responseLargeT	correct	n/a	0.38672	no	n/a	n/a
94.8125	n/a	24272	largeHSmallH	error	congruent	0.32422	no	H	H
95.13671875	n/a	24355	responseLargeT	error	n/a	0.32422	no	n/a	n/a
96.19921875	n/a	24627	largeHSmallT	error	incongruent	0.53125	no	H	T
96.73046875	n/a	24763	responseLargeT	error	n/a	0.53125	no	n/a	n/a
97.80078125	n/a	25037	largeTSmallT	correct	congruent	0.42969	no	T	T
98.23046875	n/a	25147	responseLargeT	correct	n/a	0.42969	no	n/a	n/a
99.29296875	n/a	25419	largeHSmallH	error	congruent	0.40625	no	H	H
99.69921875	n/a	25523	responseLargeT	error	n/a	0.40625	no	n/a	n/a
100.7734375	n/a	25798	largeHSmallT	error	incongruent	0.39062	no	H	T
101.1640625	n/a	25898	responseLargeT	error	n/a	0.39062	no	n/a	n/a
102.2265625	n/a	26170	largeTSmallT	correct	congruent	0.41406	no	T	T
102.640625	n/a	26276	responseLargeT	correct	n/a	0.41406	no	n/a	n/a
103.7070312	n/a	26549	largeHSmallT	error	incongruent	0.42578	no	H	T
104.1328125	n/a	26658	responseLargeT	error	n/a	0.42578	no	n/a	n/a
105.2109375	n/a	26934	largeHSmallT	error	incongruent	0.38281	no	H	T
105.59375	n/a	27032	responseLargeT	error	n/a	0.38281	no	n/a	n/a
106.6523438	n/a	27303	largeTSmallH	correct	incongruent	0.41016	no	T	H
107.0625	n/a	27408	responseLargeT	correct	n/a	0.41016	no	n/a	n/a
108.1171875	n/a	27678	largeTSmallT	correct	congruent	0.53516	no	T	T
108.6523438	n/a	27815	responseLargeT	correct	n/a	0.53516	no	n/a	n/a
109.71875	n/a	28088	largeTSmallH	correct	incongruent	0.51172	no	T	H
110.2304688	n/a	28219	responseLargeT	correct	n/a	0.51172	no	n/a	n/a
111.2929688	n/a	28491	largeTSmallH	correct	incongruent	0.54688	no	T	H
111.8398438	n/a	28631	responseLargeT	correct	n/a	0.54688	no	n/a	n/a
112.9179688	n/a	28907	largeTSmallT	correct	congruent	0.40625	no	T	T
113.3242188	n/a	29011	responseLargeT	correct	n/a	0.40625	no	n/a	n/a
114.3984375	n/a	29286	largeHSmallH	error	congruent	0.50781	no	H	H
114.90625	n/a	29416	responseLargeT	error	n/a	0.50781	no	n/a	n/a
115.9726562	n/a	29689	largeHSmallT	error	incongruent	0.52734	no	H	T
116.5	n/a	29824	responseLargeT	error	n/a	0.52734	no	n/a	n/a
117.5703125	n/a	30098	largeHSmallH	error	congruent	0.39453	no	H	H
117.9648438	n/a	30199	responseLargeT	error	n/a	0.39453	no	n/a	n/a
119.0234375	n/a	30470	largeHSmallT	error	incongruent	0.42578	no	H	T
119.4492188	n/a	30579	responseLargeT	error	n/a	0.42578	no	n/a	n/a
120.5039062	n/a	30849	largeHSmallH	error	congruent	0.46484	no	H	H
120.96875	n/a	30968	responseLargeT	error	n/a	0.46484	no	n/a	n/a
122.0390625	n/a	31242	largeHSmallH	error	congruent	0.39062	no	H	H
122.4296875	n/a	31342	responseLargeT	error	n/a	0.39062	no	n/a	n/a
123.5039062	n/a	31617	largeHSmallT	error	incongruent	0.39062	no	H	T
123.8945312	n/a	31717	responseLargeT	error	n/a	0.39062	no	n/a	n/a
124.9570312	n/a	31989	largeHSmallT	error	incongruent	0.41016	no	H	T
125.3671875	n/a	32094	responseLargeT	error	n/a	0.41016	no	n/a	n/a
126.4375	n/a	32368	largeTSmallH	correct	incongruent	0.53125	no	T	H
126.96875	n/a	32504	responseLargeT	correct	n/a	0.53125	no	n/a	n/a
128.0234375	n/a	32774	largeTSmallT	correct	congruent	0.38281	no	T	T
128.40625	n/a	32872	responseLargeT	correct	n/a	0.38281	no	n/a	n/a
129.4765625	n/a	33146	largeHSmallH	error	congruent	0.48047	no	H	H
129.9570312	n/a	33269	responseLargeT	error	n/a	0.48047	no	n/a	n/a
131.0234375	n/a	33542	largeTSmallT	correct	congruent	0.44141	no	T	T
131.4648438	n/a	33655	responseLargeT	correct	n/a	0.44141	no	n/a	n/a
132.53125	n/a	33928	largeHSmallH	error	congruent	0.41797	no	H	H
132.9492188	n/a	34035	responseLargeT	error	n/a	0.41797	no	n/a	n/a
134.0234375	n/a	34310	largeTSmallT	correct	congruent	0.39453	no	T	T
134.4179688	n/a	34411	responseLargeT	correct	n/a	0.39453	no	n/a	n/a
135.4921875	n/a	34686	largeTSmallT	correct	congruent	0.54297	no	T	T
136.0351562	n/a	34825	responseLargeT	correct	n/a	0.54297	no	n/a	n/a
137.1054688	n/a	35099	largeTSmallT	correct	congruent	0.375	no	T	T
137.4804688	n/a	35195	responseLargeT	correct	n/a	0.375	no	n/a	n/a
138.5429688	n/a	35467	largeTSmallT	correct	congruent	0.42578	no	T	T
138.96875	n/a	35576	responseLargeT	correct	n/a	0.42578	no	n/a	n/a
140.0390625	n/a	35850	largeHSmallH	error	congruent	0.49609	no	H	H
140.5351562	n/a	35977	responseLargeT	error	n/a	0.49609	no	n/a	n/a
141.5976562	n/a	36249	largeTSmallT	correct	congruent	0.41406	no	T	T
142.0117188	n/a	36355	responseLargeT	correct	n/a	0.41406	no	n/a	n/a
143.078125	n/a	36628	largeTSmallT	correct	congruent	0.35938	no	T	T
143.4375	n/a	36720	responseLargeT	correct	n/a	0.35938	no	n/a	n/a
144.5039062	n/a	36993	largeTSmallT	correct	congruent	0.41406	no	T	T
144.9179688	n/a	37099	responseLargeT	correct	n/a	0.41406	no	n/a	n/a
145.984375	n/a	37372	largeHSmallT	error	incongruent	0.41406	no	H	T
146.3984375	n/a	37478	responseLargeT	error	n/a	0.41406	no	n/a	n/a
147.4648438	n/a	37751	largeTSmallH	correct	incongruent	0.48047	no	T	H
147.9453125	n/a	37874	responseLargeT	correct	n/a	0.48047	no	n/a	n/a
149.0117188	n/a	38147	largeTSmallH	correct	incongruent	0.63281	no	T	H
149.6445312	n/a	38309	responseLargeT	correct	n/a	0.63281	no	n/a	n/a
150.71875	n/a	38584	largeHSmallH	error	congruent	0.44531	no	H	H
151.1640625	n/a	38698	responseLargeT	error	n/a	0.44531	no	n/a	n/a
152.2382812	n/a	38973	largeTSmallT	correct	congruent	0.45312	no	T	T
152.6914062	n/a	39089	responseLargeT	correct	n/a	0.45312	no	n/a	n/a
153.7578125	n/a	39362	largeTSmallH	correct	incongruent	0.58984	no	T	H
154.3476562	n/a	39513	responseLargeT	correct	n/a	0.58984	no	n/a	n/a
155.4101562	n/a	39785	largeHSmallT	error	incongruent	0.50781	no	H	T
155.9179688	n/a	39915	responseLargeT	error	n/a	0.50781	no	n/a	n/a
156.984375	n/a	40188	largeTSmallT	correct	congruent	0.37891	no	T	T
157.3632812	n/a	40285	responseLargeT	correct	n/a	0.37891	no	n/a	n/a
158.4375	n/a	40560	largeHSmallH	error	congruent	0.44922	no	H	H
158.8867188	n/a	40675	responseLargeT	error	n/a	0.44922	no	n/a	n/a
159.9570312	n/a	40949	largeTSmallH	correct	incongruent	0.33984	no	T	H
160.296875	n/a	41036	responseLargeT	correct	n/a	0.33984	no	n/a	n/a
161.3710938	n/a	41311	largeHSmallH	error	congruent	0.36328	no	H	H
161.734375	n/a	41404	responseLargeT	error	n/a	0.36328	no	n/a	n/a
162.796875	n/a	41676	largeTSmallH	correct	incongruent	0.39062	no	T	H
163.1875	n/a	41776	responseLargeT	correct	n/a	0.39062	no	n/a	n/a
164.25	n/a	42048	largeTSmallT	correct	congruent	0.47266	no	T	T
164.7226562	n/a	42169	responseLargeT	correct	n/a	0.47266	no	n/a	n/a
165.7851562	n/a	42441	largeHSmallT	error	incongruent	0.45312	no	H	T
166.2382812	n/a	42557	responseLargeT	error	n/a	0.45312	no	n/a	n/a
167.3046875	n/a	42830	largeHSmallH	error	congruent	0.43359	no	H	H
167.7382812	n/a	42941	responseLargeT	error	n/a	0.43359	no	n/a	n/a
168.8125	n/a	43216	largeTSmallT	correct	congruent	0.46094	no	T	T
169.2734375	n/a	43334	responseLargeT	correct	n/a	0.46094	no	n/a	n/a
170.3320312	n/a	43605	largeTSmallT	correct	congruent	0.36328	no	T	T
170.6953125	n/a	43698	responseLargeT	correct	n/a	0.36328	no	n/a	n/a
171.7578125	n/a	43970	largeTSmallH	correct	incongruent	0.37891	no	T	H
172.1367188	n/a	44067	responseLargeT	correct	n/a	0.37891	no	n/a	n/a
173.2109375	n/a	44342	largeTSmallH	correct	incongruent	0.46875	no	T	H
173.6796875	n/a	44462	responseLargeT	correct	n/a	0.46875	no	n/a	n/a
174.7578125	n/a	44738	largeTSmallT	correct	congruent	0.40625	no	T	T
175.1640625	n/a	44842	responseLargeT	correct	n/a	0.40625	no	n/a	n/a
176.2382812	n/a	45117	largeHSmallH	error	congruent	0.4375	no	H	H
176.6757812	n/a	45229	responseLargeT	error	n/a	0.4375	no	n/a	n/a
177.7421875	n/a	45502	largeHSmallH	error	congruent	0.39453	no	H	H
178.1367188	n/a	45603	responseLargeT	error	n/a	0.39453	no	n/a	n/a
179.2109375	n/a	45878	largeTSmallH	correct	incongruent	0.51562	no	T	H
179.7265625	n/a	46010	responseLargeT	correct	n/a	0.51562	no	n/a	n/a
180.8085938	n/a	46287	largeHSmallH	error	congruent	0.42969	no	H	H
181.2382812	n/a	46397	responseLargeT	error	n/a	0.42969	no	n/a	n/a
182.3046875	n/a	46670	largeHSmallT	error	incongruent	0.46484	no	H	T
182.7695312	n/a	46789	responseLargeT	error	n/a	0.46484	no	n/a	n/a
183.8515625	n/a	47066	largeTSmallT	correct	congruent	0.46484	no	T	T
184.3164062	n/a	47185	responseLargeT	correct	n/a	0.46484	no	n/a	n/a
185.3984375	n/a	47462	largeTSmallH	correct	incongruent	0.47656	no	T	H
185.875	n/a	47584	responseLargeT	correct	n/a	0.47656	no	n/a	n/a
186.9453125	n/a	47858	largeTSmallT	correct	congruent	0.50391	no	T	T
187.4492188	n/a	47987	responseLargeT	correct	n/a	0.50391	no	n/a	n/a
188.5039062	n/a	48257	largeHSmallH	error	congruent	0.52734	no	H	H
189.03125	n/a	48392	responseLargeT	error	n/a	0.52734	no	n/a	n/a
190.1015625	n/a	48666	largeHSmallT	error	incongruent	0.42578	no	H	T
190.5273438	n/a	48775	responseLargeT	error	n/a	0.42578	no	n/a	n/a
191.5976562	n/a	49049	largeHSmallH	error	congruent	0.35156	no	H	H
191.9492188	n/a	49139	responseLargeT	error	n/a	0.35156	no	n/a	n/a
193.0234375	n/a	49414	largeTSmallT	correct	congruent	0.48828	no	T	T
193.5117188	n/a	49539	responseLargeT	correct	n/a	0.48828	no	n/a	n/a
194.5820312	n/a	49813	largeTSmallH	correct	incongruent	0.40234	no	T	H
194.984375	n/a	49916	responseLargeT	correct	n/a	0.40234	no	n/a	n/a
196.0507812	n/a	50189	largeHSmallT	error	incongruent	0.52734	no	H	T
196.578125	n/a	50324	responseLargeT	error	n/a	0.52734	no	n/a	n/a
197.6484375	n/a	50598	largeTSmallH	correct	incongruent	0.45703	no	T	H
198.1054688	n/a	50715	responseLargeT	correct	n/a	0.45703	no	n/a	n/a
199.1835938	n/a	50991	largeHSmallT	error	incongruent	0.39062	no	H	T
199.5742188	n/a	51091	responseLargeT	error	n/a	0.39062	no	n/a	n/a
200.6484375	n/a	51366	largeTSmallT	correct	congruent	0.36328	no	T	T
201.0117188	n/a	51459	responseLargeT	correct	n/a	0.36328	no	n/a	n/a
202.078125	n/a	51732	largeHSmallH	error	congruent	0.38281	no	H	H
202.4609375	n/a	51830	responseLargeT	error	n/a	0.38281	no	n/a	n/a
203.53125	n/a	52104	largeHSmallT	error	incongruent	0.34375	no	H	T
203.875	n/a	52192	responseLargeT	error	n/a	0.34375	no	n/a	n/a
204.9414062	n/a	52465	largeHSmallH	error	congruent	0.51562	no	H	H
205.4570312	n/a	52597	responseLargeT	error	n/a	0.51562	no	n/a	n/a
206.53125	n/a	52872	largeHSmallH	error	congruent	0.39062	no	H	H
206.921875	n/a	52972	responseLargeT	error	n/a	0.39062	no	n/a	n/a
207.9960938	n/a	53247	largeTSmallT	correct	congruent	0.48828	no	T	T
208.484375	n/a	53372	responseLargeT	correct	n/a	0.48828	no	n/a	n/a
209.5546875	n/a	53646	largeTSmallH	correct	incongruent	0.51953	no	T	H
210.0742188	n/a	53779	responseLargeT	correct	n/a	0.51953	no	n/a	n/a
211.1445312	n/a	54053	largeTSmallT	correct	congruent	0.39844	no	T	T
211.5429688	n/a	54155	responseLargeT	correct	n/a	0.39844	no	n/a	n/a
212.609375	n/a	54428	largeTSmallT	correct	congruent	0.39844	no	T	T
213.0078125	n/a	54530	responseLargeT	correct	n/a	0.39844	no	n/a	n/a
214.078125	n/a	54804	largeHSmallT	error	incongruent	0.42969	no	H	T
214.5078125	n/a	54914	responseLargeT	error	n/a	0.42969	no	n/a	n/a
215.5703125	n/a	55186	largeTSmallH	correct	incongruent	0.49219	no	T	H
216.0625	n/a	55312	responseLargeT	correct	n/a	0.49219	no	n/a	n/a
217.1445312	n/a	55589	largeTSmallH	correct	incongruent	0.33594	no	T	H
217.4804688	n/a	55675	responseLargeT	correct	n/a	0.33594	no	n/a	n/a
218.5429688	n/a	55947	largeTSmallH	correct	incongruent	0.45703	no	T	H
219	n/a	56064	responseLargeT	correct	n/a	0.45703	no	n/a	n/a
220.0625	n/a	56336	largeTSmallH	correct	incongruent	0.41406	no	T	H
220.4765625	n/a	56442	responseLargeT	correct	n/a	0.41406	no	n/a	n/a
221.5546875	n/a	56718	largeHSmallH	error	congruent	0.46875	no	H	H
222.0234375	n/a	56838	responseLargeT	error	n/a	0.46875	no	n/a	n/a
223.0898438	n/a	57111	largeTSmallH	correct	incongruent	0.39844	no	T	H
223.4882812	n/a	57213	responseLargeT	correct	n/a	0.39844	no	n/a	n/a
224.5546875	n/a	57486	largeHSmallT	error	incongruent	0.42578	no	H	T
224.9804688	n/a	57595	responseLargeT	error	n/a	0.42578	no	n/a	n/a
226.0507812	n/a	57869	largeHSmallT	error	incongruent	0.44531	no	H	T
226.4960938	n/a	57983	responseLargeT	error	n/a	0.44531	no	n/a	n/a
227.5546875	n/a	58254	largeHSmallH	error	congruent	0.36328	no	H	H
227.9179688	n/a	58347	responseLargeT	error	n/a	0.36328	no	n/a	n/a
228.9960938	n/a	58623	largeTSmallH	correct	incongruent	0.47266	no	T	H
229.46875	n/a	58744	responseLargeT	correct	n/a	0.47266	no	n/a	n/a
230.53125	n/a	59016	largeHSmallT	error	incongruent	0.42969	no	H	T
230.9609375	n/a	59126	responseLargeT	error	n/a	0.42969	no	n/a	n/a
232.0351562	n/a	59401	largeTSmallT	correct	congruent	0.37109	no	T	T
232.40625	n/a	59496	responseLargeT	correct	n/a	0.37109	no	n/a	n/a
233.4609375	n/a	59766	largeHSmallT	error	incongruent	0.41016	no	H	T
233.8710938	n/a	59871	responseLargeT	error	n/a	0.41016	no	n/a	n/a
234.9296875	n/a	60142	largeTSmallH	correct	incongruent	0.45312	no	T	H
235.3828125	n/a	60258	responseLargeT	correct	n/a	0.45312	no	n/a	n/a
236.4492188	n/a	60531	largeHSmallT	error	incongruent	0.39453	no	H	T
236.84375	n/a	60632	responseLargeT	error	n/a	0.39453	no	n/a	n/a
237.9140625	n/a	60906	largeTSmallH	correct	incongruent	0.34766	no	T	H
238.2617188	n/a	60995	responseLargeT	correct	n/a	0.34766	no	n/a	n/a
239.34375	n/a	61272	largeTSmallH	correct	incongruent	0.5	no	T	H
239.84375	n/a	61400	responseLargeT	correct	n/a	0.5	no	n/a	n/a
240.9140625	n/a	61674	largeHSmallT	error	incongruent	0.5625	no	H	T
241.4765625	n/a	61818	responseLargeT	error	n/a	0.5625	no	n/a	n/a
242.5429688	n/a	62091	largeHSmallH	error	congruent	0.47266	no	H	H
243.015625	n/a	62212	responseLargeT	error	n/a	0.47266	no	n/a	n/a
244.0742188	n/a	62483	largeTSmallT	correct	congruent	0.43359	no	T	T
244.5078125	n/a	62594	responseLargeT	correct	n/a	0.43359	no	n/a	n/a
245.5703125	n/a	62866	largeTSmallH	correct	incongruent	0.53906	no	T	H
246.109375	n/a	63004	responseLargeT	correct	n/a	0.53906	no	n/a	n/a
247.1835938	n/a	63279	largeTSmallH	correct	incongruent	0.44922	no	T	H
247.6328125	n/a	63394	responseLargeT	correct	n/a	0.44922	no	n/a	n/a
248.6875	n/a	63664	largeHSmallT	error	incongruent	0.45312	no	H	T
249.140625	n/a	63780	responseLargeT	error	n/a	0.45312	no	n/a	n/a
250.2070312	n/a	64053	largeTSmallH	correct	incongruent	0.5625	no	T	H
250.7695312	n/a	64197	responseLargeT	correct	n/a	0.5625	no	n/a	n/a
251.8476562	n/a	64473	largeTSmallH	correct	incongruent	0.43359	no	T	H
252.28125	n/a	64584	responseLargeT	correct	n/a	0.43359	no	n/a	n/a
253.3398438	n/a	64855	largeTSmallT	correct	congruent	0.41406	no	T	T
253.7539062	n/a	64961	responseLargeT	correct	n/a	0.41406	no	n/a	n/a
254.8203125	n/a	65234	largeHSmallH	error	congruent	0.43359	no	H	H
255.2539062	n/a	65345	responseLargeT	error	n/a	0.43359	no	n/a	n/a
256.328125	n/a	65620	largeTSmallT	correct	congruent	0.62891	no	T	T
256.9570312	n/a	65781	responseLargeT	correct	n/a	0.62891	no	n/a	n/a
258.0234375	n/a	66054	largeHSmallT	error	incongruent	0.39844	no	H	T
258.421875	n/a	66156	responseLargeT	error	n/a	0.39844	no	n/a	n/a
259.4882812	n/a	66429	largeTSmallT	correct	congruent	0.34375	no	T	T
259.8320312	n/a	66517	responseLargeT	correct	n/a	0.34375	no	n/a	n/a
260.9023438	n/a	66791	largeHSmallT	error	incongruent	0.48047	no	H	T
261.3828125	n/a	66914	responseLargeT	error	n/a	0.48047	no	n/a	n/a
262.4609375	n/a	67190	largeHSmallT	error	incongruent	0.44531	no	H	T
262.90625	n/a	67304	responseLargeT	error	n/a	0.44531	no	n/a	n/a
263.9804688	n/a	67579	largeHSmallT	error	incongruent	0.34766	no	H	T
264.328125	n/a	67668	responseLargeT	error	n/a	0.34766	no	n/a	n/a
265.3945312	n/a	67941	largeHSmallT	error	incongruent	0.39062	no	H	T
265.7851562	n/a	68041	responseLargeT	error	n/a	0.39062	no	n/a	n/a
266.8632812	n/a	68317	largeHSmallT	error	incongruent	0.37109	no	H	T
267.234375	n/a	68412	responseLargeT	error	n/a	0.37109	no	n/a	n/a
268.3007812	n/a	68685	largeHSmallH	error	congruent	0.32812	no	H	H
268.6289062	n/a	68769	responseLargeT	error	n/a	0.32812	no	n/a	n/a
269.6875	n/a	69040	largeTSmallH	correct	incongruent	0.55078	no	T	H
270.2382812	n/a	69181	responseLargeT	correct	n/a	0.55078	no	n/a	n/a
271.3007812	n/a	69453	largeTSmallT	correct	congruent	0.38672	no	T	T
271.6875	n/a	69552	responseLargeT	correct	n/a	0.38672	no	n/a	n/a
272.7539062	n/a	69825	largeTSmallT	correct	congruent	0.41406	no	T	T
273.1679688	n/a	69931	responseLargeT	correct	n/a	0.41406	no	n/a	n/a
274.234375	n/a	70204	largeHSmallT	error	incongruent	0.53125	no	H	T
274.765625	n/a	70340	responseLargeT	error	n/a	0.53125	no	n/a	n/a
275.8359375	n/a	70614	largeTSmallT	correct	congruent	0.43359	no	T	T
276.2695312	n/a	70725	responseLargeT	correct	n/a	0.43359	no	n/a	n/a
277.3398438	n/a	70999	largeHSmallT	error	incongruent	0.39062	no	H	T
277.7304688	n/a	71099	responseLargeT	error	n/a	0.39062	no	n/a	n/a
278.8085938	n/a	71375	largeTSmallH	correct	incongruent	0.53125	no	T	H
279.3398438	n/a	71511	responseLargeT	correct	n/a	0.53125	no	n/a	n/a
280.4101562	n/a	71785	largeTSmallT	correct	congruent	0.45312	no	T	T
280.8632812	n/a	71901	responseLargeT	correct	n/a	0.45312	no	n/a	n/a
281.9414062	n/a	72177	largeHSmallT	error	incongruent	0.47266	no	H	T
282.4140625	n/a	72298	responseLargeT	error	n/a	0.47266	no	n/a	n/a
283.4882812	n/a	72573	largeTSmallT	correct	congruent	0.35156	no	T	T
283.8398438	n/a	72663	responseLargeT	correct	n/a	0.35156	no	n/a	n/a
284.9023438	n/a	72935	largeHSmallH	error	congruent	0.42188	no	H	H
285.3242188	n/a	73043	responseLargeT	error	n/a	0.42188	no	n/a	n/a
286.3828125	n/a	73314	largeTSmallH	correct	incongruent	0.33984	no	T	H
286.7226562	n/a	73401	responseLargeT	correct	n/a	0.33984	no	n/a	n/a
287.7929688	n/a	73675	largeTSmallH	correct	incongruent	0.45312	no	T	H
288.2460938	n/a	73791	responseLargeT	correct	n/a	0.45312	no	n/a	n/a
289.3164062	n/a	74065	largeHSmallH	error	congruent	0.37891	no	H	H
289.6953125	n/a	74162	responseLargeT	error	n/a	0.37891	no	n/a	n/a
290.7695312	n/a	74437	largeTSmallT	correct	congruent	0.32812	no	T	T
291.0976562	n/a	74521	responseLargeT	correct	n/a	0.32812	no	n/a	n/a
292.1679688	n/a	74795	largeHSmallH	error	congruent	0.37891	no	H	H
292.546875	n/a	74892	responseLargeT	error	n/a	0.37891	no	n/a	n/a
293.609375	n/a	75164	largeHSmallT	error	incongruent	0.51172	no	H	T
294.1210938	n/a	75295	responseLargeT	error	n/a	0.51172	no	n/a	n/a
295.1796875	n/a	75566	largeHSmallH	error	congruent	0.50781	no	H	H
295.6875	n/a	75696	responseLargeT	error	n/a	0.50781	no	n/a	n/a
296.7539062	n/a	75969	largeTSmallH	correct	incongruent	0.42188	no	T	H
297.1757812	n/a	76077	responseLargeT	correct	n/a	0.42188	no	n/a	n/a
298.2460938	n/a	76351	largeTSmallT	correct	congruent	0.55078	no	T	T
298.796875	n/a	76492	responseLargeT	correct	n/a	0.55078	no	n/a	n/a
299.859375	n/a	76764	largeTSmallH	correct	incongruent	0.45312	no	T	H
300.3125	n/a	76880	responseLargeT	correct	n/a	0.45312	no	n/a	n/a
301.3828125	n/a	77154	largeHSmallT	error	incongruent	0.53516	no	H	T
301.9179688	n/a	77291	responseLargeT	error	n/a	0.53516	no	n/a	n/a
302.9804688	n/a	77563	largeHSmallT	error	incongruent	0.51172	no	H	T
303.4921875	n/a	77694	responseLargeT	error	n/a	0.51172	no	n/a	n/a
304.5546875	n/a	77966	largeTSmallT	correct	congruent	0.36719	no	T	T
304.921875	n/a	78060	responseLargeT	correct	n/a	0.36719	no	n/a	n/a
305.9960938	n/a	78335	largeHSmallT	error	incongruent	0.37891	no	H	T
306.375	n/a	78432	responseLargeT	error	n/a	0.37891	no	n/a	n/a
307.4492188	n/a	78707	largeHSmallH	error	congruent	0.4375	no	H	H
307.8867188	n/a	78819	responseLargeT	error	n/a	0.4375	no	n/a	n/a
311.9414062	n/a	79857	largeTSmallH	correct	incongruent	1.3281	no	T	H
313.2695312	n/a	80197	responseSmallH	correct	n/a	1.3281	no	n/a	n/a
314.3398438	n/a	80471	largeTSmallH	correct	incongruent	2.1641	yes	T	H
316.5039062	n/a	81025	responseSmallH	correct	n/a	2.1641	yes	n/a	n/a
317.5664062	n/a	81297	largeHSmallT	correct	incongruent	1.0234	no	H	T
318.5898438	n/a	81559	responseSmallT	correct	n/a	1.0234	no	n/a	n/a
319.6601562	n/a	81833	largeHSmallH	correct	congruent	0.75	no	H	H
320.4101562	n/a	82025	responseSmallH	correct	n/a	0.75	no	n/a	n/a
321.4726562	n/a	82297	largeTSmallT	correct	congruent	1.1055	no	T	T
322.578125	n/a	82580	responseSmallT	correct	n/a	1.1055	no	n/a	n/a
323.6484375	n/a	82854	largeTSmallH	correct	incongruent	0.44531	no	T	H
324.09375	n/a	82968	responseSmallH	correct	n/a	0.44531	no	n/a	n/a
325.1679688	n/a	83243	largeHSmallH	correct	congruent	0.625	no	H	H
325.7929688	n/a	83403	responseSmallH	correct	n/a	0.625	no	n/a	n/a
326.859375	n/a	83676	largeTSmallH	correct	incongruent	0.66406	no	T	H
327.5234375	n/a	83846	responseSmallH	correct	n/a	0.66406	no	n/a	n/a
328.59375	n/a	84120	largeTSmallH	correct	incongruent	0.47656	no	T	H
329.0703125	n/a	84242	responseSmallH	correct	n/a	0.47656	no	n/a	n/a
330.140625	n/a	84516	largeTSmallT	correct	congruent	0.49609	no	T	T
330.6367188	n/a	84643	responseSmallT	correct	n/a	0.49609	no	n/a	n/a
331.6992188	n/a	84915	largeHSmallH	correct	congruent	0.45312	no	H	H
332.1523438	n/a	85031	responseSmallH	correct	n/a	0.45312	no	n/a	n/a
333.21875	n/a	85304	largeHSmallH	correct	congruent	0.48438	no	H	H
333.703125	n/a	85428	responseSmallH	correct	n/a	0.48438	no	n/a	n/a
334.78125	n/a	85704	largeHSmallH	correct	congruent	0.42578	no	H	H
335.2070312	n/a	85813	responseSmallH	correct	n/a	0.42578	no	n/a	n/a
336.2734375	n/a	86086	largeTSmallH	correct	incongruent	0.46484	no	T	H
336.7382812	n/a	86205	responseSmallH	correct	n/a	0.46484	no	n/a	n/a
337.8085938	n/a	86479	largeHSmallT	correct	incongruent	0.51562	no	H	T
338.3242188	n/a	86611	responseSmallT	correct	n/a	0.51562	no	n/a	n/a
339.3945312	n/a	86885	largeTSmallH	correct	incongruent	0.54297	no	T	H
339.9375	n/a	87024	responseSmallH	correct	n/a	0.54297	no	n/a	n/a
341.0078125	n/a	87298	largeTSmallH	correct	incongruent	0.45703	no	T	H
341.4648438	n/a	87415	responseSmallH	correct	n/a	0.45703	no	n/a	n/a
342.5273438	n/a	87687	largeTSmallH	correct	incongruent	0.39062	no	T	H
342.9179688	n/a	87787	responseSmallH	correct	n/a	0.39062	no	n/a	n/a
343.9804688	n/a	88059	largeHSmallT	correct	incongruent	0.60547	no	H	T
344.5859375	n/a	88214	responseSmallT	correct	n/a	0.60547	no	n/a	n/a
345.6484375	n/a	88486	largeTSmallH	correct	incongruent	0.51562	no	T	H
346.1640625	n/a	88618	responseSmallH	correct	n/a	0.51562	no	n/a	n/a
347.21875	n/a	88888	largeTSmallH	correct	incongruent	0.44531	no	T	H
347.6640625	n/a	89002	responseSmallH	correct	n/a	0.44531	no	n/a	n/a
348.7265625	n/a	89274	largeTSmallT	correct	congruent	0.55469	no	T	T
349.28125	n/a	89416	responseSmallT	correct	n/a	0.55469	no	n/a	n/a
350.3398438	n/a	89687	largeHSmallT	correct	incongruent	0.60938	no	H	T
350.9492188	n/a	89843	responseSmallT	correct	n/a	0.60938	no	n/a	n/a
352.0195312	n/a	90117	largeTSmallH	correct	incongruent	0.51562	no	T	H
352.5351562	n/a	90249	responseSmallH	correct	n/a	0.51562	no	n/a	n/a
353.6054688	n/a	90523	largeHSmallT	correct	incongruent	0.38281	no	H	T
353.9882812	n/a	90621	responseSmallT	correct	n/a	0.38281	no	n/a	n/a
355.0585938	n/a	90895	largeHSmallH	correct	congruent	0.73047	no	H	H
355.7890625	n/a	91082	responseSmallH	correct	n/a	0.73047	no	n/a	n/a
356.8476562	n/a	91353	largeHSmallT	correct	incongruent	0.44141	no	H	T
357.2890625	n/a	91466	responseSmallT	correct	n/a	0.44141	no	n/a	n/a
358.3671875	n/a	91742	largeHSmallH	correct	congruent	0.43359	no	H	H
358.8007812	n/a	91853	responseSmallH	correct	n/a	0.43359	no	n/a	n/a
359.859375	n/a	92124	largeTSmallH	correct	incongruent	0.52734	no	T	H
360.3867188	n/a	92259	responseSmallH	correct	n/a	0.52734	no	n/a	n/a
361.4453125	n/a	92530	largeTSmallH	correct	incongruent	0.61719	no	T	H
362.0625	n/a	92688	responseSmallH	correct	n/a	0.61719	no	n/a	n/a
363.1132812	n/a	92957	largeHSmallT	correct	incongruent	0.42578	no	H	T
363.5390625	n/a	93066	responseSmallT	correct	n/a	0.42578	no	n/a	n/a
364.6054688	n/a	93339	largeHSmallT	correct	incongruent	0.46484	no	H	T
365.0703125	n/a	93458	responseSmallT	correct	n/a	0.46484	no	n/a	n/a
366.125	n/a	93728	largeHSmallT	correct	incongruent	0.39453	no	H	T
366.5195312	n/a	93829	responseSmallT	correct	n/a	0.39453	no	n/a	n/a
367.578125	n/a	94100	largeTSmallT	correct	congruent	0.42578	no	T	T
368.0039062	n/a	94209	responseSmallT	correct	n/a	0.42578	no	n/a	n/a
369.0585938	n/a	94479	largeHSmallT	correct	incongruent	0.41797	no	H	T
369.4765625	n/a	94586	responseSmallT	correct	n/a	0.41797	no	n/a	n/a
370.5546875	n/a	94862	largeHSmallH	correct	congruent	0.45312	no	H	H
371.0078125	n/a	94978	responseSmallH	correct	n/a	0.45312	no	n/a	n/a
372.0742188	n/a	95251	largeTSmallT	correct	congruent	0.43359	no	T	T
372.5078125	n/a	95362	responseSmallT	correct	n/a	0.43359	no	n/a	n/a
373.578125	n/a	95636	largeHSmallT	correct	incongruent	0.62109	no	H	T
374.1992188	n/a	95795	responseSmallT	correct	n/a	0.62109	no	n/a	n/a
375.2734375	n/a	96070	largeTSmallT	correct	congruent	0.4375	no	T	T
375.7109375	n/a	96182	responseSmallT	correct	n/a	0.4375	no	n/a	n/a
376.7929688	n/a	96459	largeHSmallH	correct	congruent	0.47266	no	H	H
377.265625	n/a	96580	responseSmallH	correct	n/a	0.47266	no	n/a	n/a
378.328125	n/a	96852	largeTSmallH	correct	incongruent	0.4375	no	T	H
378.765625	n/a	96964	responseSmallH	correct	n/a	0.4375	no	n/a	n/a
379.8320312	n/a	97237	largeHSmallH	correct	congruent	0.40625	no	H	H
380.2382812	n/a	97341	responseSmallH	correct	n/a	0.40625	no	n/a	n/a
381.3125	n/a	97616	largeTSmallT	correct	congruent	0.51172	no	T	T
381.8242188	n/a	97747	responseSmallT	correct	n/a	0.51172	no	n/a	n/a
382.8867188	n/a	98019	largeHSmallT	correct	incongruent	0.42578	no	H	T
383.3125	n/a	98128	responseSmallT	correct	n/a	0.42578	no	n/a	n/a
384.3789062	n/a	98401	largeHSmallH	correct	congruent	0.49609	no	H	H
384.875	n/a	98528	responseSmallH	correct	n/a	0.49609	no	n/a	n/a
385.9375	n/a	98800	largeHSmallT	correct	incongruent	0.42188	no	H	T
386.359375	n/a	98908	responseSmallT	correct	n/a	0.42188	no	n/a	n/a
387.4179688	n/a	99179	largeTSmallH	correct	incongruent	0.46875	no	T	H
387.8867188	n/a	99299	responseSmallH	correct	n/a	0.46875	no	n/a	n/a
388.953125	n/a	99572	largeHSmallH	correct	congruent	0.44922	no	H	H
389.4023438	n/a	99687	responseSmallH	correct	n/a	0.44922	no	n/a	n/a
390.4726562	n/a	99961	largeHSmallH	correct	congruent	0.375	no	H	H
390.8476562	n/a	100057	responseSmallH	correct	n/a	0.375	no	n/a	n/a
391.9257812	n/a	100333	largeHSmallH	correct	congruent	0.41016	no	H	H
392.3359375	n/a	100438	responseSmallH	correct	n/a	0.41016	no	n/a	n/a
393.40625	n/a	100712	largeTSmallT	correct	congruent	0.57812	no	T	T
393.984375	n/a	100860	responseSmallT	correct	n/a	0.57812	no	n/a	n/a
395.0585938	n/a	101135	largeTSmallT	correct	congruent	0.42578	no	T	T
395.484375	n/a	101244	responseSmallT	correct	n/a	0.42578	no	n/a	n/a
396.5507812	n/a	101517	largeTSmallT	correct	congruent	0.42188	no	T	T
396.9726562	n/a	101625	responseSmallT	correct	n/a	0.42188	no	n/a	n/a
398.03125	n/a	101896	largeTSmallT	correct	congruent	0.46094	no	T	T
398.4921875	n/a	102014	responseSmallT	correct	n/a	0.46094	no	n/a	n/a
399.5664062	n/a	102289	largeHSmallT	correct	incongruent	0.56641	no	H	T
400.1328125	n/a	102434	responseSmallT	correct	n/a	0.56641	no	n/a	n/a
401.2070312	n/a	102709	largeHSmallT	correct	incongruent	0.41406	no	H	T
401.6210938	n/a	102815	responseSmallT	correct	n/a	0.41406	no	n/a	n/a
402.6875	n/a	103088	largeTSmallH	correct	incongruent	0.46875	no	T	H
403.15625	n/a	103208	responseSmallH	correct	n/a	0.46875	no	n/a	n/a
404.2304688	n/a	103483	largeHSmallT	correct	incongruent	0.50781	no	H	T
404.7382812	n/a	103613	responseSmallT	correct	n/a	0.50781	no	n/a	n/a
405.8046875	n/a	103886	largeHSmallT	correct	incongruent	0.44531	no	H	T
406.25	n/a	104000	responseSmallT	correct	n/a	0.44531	no	n/a	n/a
407.3125	n/a	104272	largeHSmallH	correct	congruent	0.45703	no	H	H
407.7695312	n/a	104389	responseSmallH	correct	n/a	0.45703	no	n/a	n/a
408.8320312	n/a	104661	largeTSmallT	correct	congruent	0.46094	no	T	T
409.2929688	n/a	104779	responseSmallT	correct	n/a	0.46094	no	n/a	n/a
410.3515625	n/a	105050	largeTSmallH	correct	incongruent	0.40234	no	T	H
410.7539062	n/a	105153	responseSmallH	correct	n/a	0.40234	no	n/a	n/a
411.8203125	n/a	105426	largeTSmallT	correct	congruent	0.43359	no	T	T
412.2539062	n/a	105537	responseSmallT	correct	n/a	0.43359	no	n/a	n/a
413.3242188	n/a	105811	largeHSmallH	correct	congruent	0.34375	no	H	H
413.6679688	n/a	105899	responseSmallH	correct	n/a	0.34375	no	n/a	n/a
414.7382812	n/a	106173	largeHSmallT	correct	incongruent	0.48828	no	H	T
415.2265625	n/a	106298	responseSmallT	correct	n/a	0.48828	no	n/a	n/a
416.2851562	n/a	106569	largeTSmallH	correct	incongruent	0.58984	no	T	H
416.875	n/a	106720	responseSmallH	correct	n/a	0.58984	no	n/a	n/a
417.9375	n/a	106992	largeTSmallT	correct	congruent	0.41406	no	T	T
418.3515625	n/a	107098	responseSmallT	correct	n/a	0.41406	no	n/a	n/a
419.4179688	n/a	107371	largeHSmallT	correct	incongruent	0.41797	no	H	T
419.8359375	n/a	107478	responseSmallT	correct	n/a	0.41797	no	n/a	n/a
420.8984375	n/a	107750	largeTSmallH	correct	incongruent	0.4375	no	T	H
421.3359375	n/a	107862	responseSmallH	correct	n/a	0.4375	no	n/a	n/a
422.40625	n/a	108136	largeTSmallT	correct	congruent	0.44141	no	T	T
422.8476562	n/a	108249	responseSmallT	correct	n/a	0.44141	no	n/a	n/a
423.9101562	n/a	108521	largeTSmallT	correct	congruent	0.40625	no	T	T
424.3164062	n/a	108625	responseSmallT	correct	n/a	0.40625	no	n/a	n/a
425.3789062	n/a	108897	largeTSmallT	correct	congruent	0.42578	no	T	T
425.8046875	n/a	109006	responseSmallT	correct	n/a	0.42578	no	n/a	n/a
426.8710938	n/a	109279	largeHSmallH	correct	congruent	0.44922	no	H	H
427.3203125	n/a	109394	responseSmallH	correct	n/a	0.44922	no	n/a	n/a
428.390625	n/a	109668	largeTSmallT	correct	congruent	0.40234	no	T	T
428.7929688	n/a	109771	responseSmallT	correct	n/a	0.40234	no	n/a	n/a
429.859375	n/a	110044	largeTSmallH	correct	incongruent	0.39453	no	T	H
430.2539062	n/a	110145	responseSmallH	correct	n/a	0.39453	no	n/a	n/a
431.3242188	n/a	110419	largeHSmallH	correct	congruent	0.60156	no	H	H
431.9257812	n/a	110573	responseSmallH	correct	n/a	0.60156	no	n/a	n/a
432.9921875	n/a	110846	largeTSmallH	correct	incongruent	0.4375	no	T	H
433.4296875	n/a	110958	responseSmallH	correct	n/a	0.4375	no	n/a	n/a
434.484375	n/a	111228	largeTSmallT	correct	congruent	0.45312	no	T	T
434.9375	n/a	111344	responseSmallT	correct	n/a	0.45312	no	n/a	n/a
436.0039062	n/a	111617	largeHSmallH	correct	congruent	0.38672	no	H	H
436.390625	n/a	111716	responseSmallH	correct	n/a	0.38672	no	n/a	n/a
437.4570312	n/a	111989	largeTSmallH	correct	incongruent	0.50391	no	T	H
437.9609375	n/a	112118	responseSmallH	correct	n/a	0.50391	no	n/a	n/a
439.03125	n/a	112392	largeTSmallH	correct	incongruent	0.41016	no	T	H
439.4414062	n/a	112497	responseSmallH	correct	n/a	0.41016	no	n/a	n/a
440.5117188	n/a	112771	largeHSmallT	correct	incongruent	0.44922	no	H	T
440.9609375	n/a	112886	responseSmallT	correct	n/a	0.44922	no	n/a	n/a
442.03125	n/a	113160	largeHSmallT	correct	incongruent	0.46094	no	H	T
442.4921875	n/a	113278	responseSmallT	correct	n/a	0.46094	no	n/a	n/a
443.5507812	n/a	113549	largeTSmallT	correct	congruent	0.41016	no	T	T
443.9609375	n/a	113654	responseSmallT	correct	n/a	0.41016	no	n/a	n/a
445.0195312	n/a	113925	largeHSmallH	correct	congruent	0.44141	no	H	H
445.4609375	n/a	114038	responseSmallH	correct	n/a	0.44141	no	n/a	n/a
446.5390625	n/a	114314	largeHSmallT	correct	incongruent	0.53516	no	H	T
447.0742188	n/a	114451	responseSmallT	correct	n/a	0.53516	no	n/a	n/a
448.1367188	n/a	114723	largeTSmallH	correct	incongruent	0.47656	no	T	H
448.6132812	n/a	114845	responseSmallH	correct	n/a	0.47656	no	n/a	n/a
449.6835938	n/a	115119	largeHSmallH	correct	congruent	0.55469	no	H	H
450.2382812	n/a	115261	responseSmallH	correct	n/a	0.55469	no	n/a	n/a
451.3125	n/a	115536	largeHSmallH	correct	congruent	0.38281	no	H	H
451.6953125	n/a	115634	responseSmallH	correct	n/a	0.38281	no	n/a	n/a
452.765625	n/a	115908	largeHSmallT	correct	incongruent	0.45312	no	H	T
453.21875	n/a	116024	responseSmallT	correct	n/a	0.45312	no	n/a	n/a
454.2851562	n/a	116297	largeTSmallT	correct	congruent	0.4375	no	T	T
454.7226562	n/a	116409	responseSmallT	correct	n/a	0.4375	no	n/a	n/a
455.7929688	n/a	116683	largeTSmallT	correct	congruent	0.49609	no	T	T
456.2890625	n/a	116810	responseSmallT	correct	n/a	0.49609	no	n/a	n/a
457.3632812	n/a	117085	largeTSmallT	correct	congruent	0.42578	no	T	T
457.7890625	n/a	117194	responseSmallT	correct	n/a	0.42578	no	n/a	n/a
458.859375	n/a	117468	largeHSmallT	correct	incongruent	0.51562	no	H	T
459.375	n/a	117600	responseSmallT	correct	n/a	0.51562	no	n/a	n/a
460.4570312	n/a	117877	largeTSmallT	correct	congruent	0.41016	no	T	T
460.8671875	n/a	117982	responseSmallT	correct	n/a	0.41016	no	n/a	n/a
461.9375	n/a	118256	largeHSmallH	correct	congruent	0.48438	no	H	H
462.421875	n/a	118380	responseSmallH	correct	n/a	0.48438	no	n/a	n/a
463.4960938	n/a	118655	largeTSmallT	correct	congruent	0.50391	no	T	T
464	n/a	118784	responseSmallT	correct	n/a	0.50391	no	n/a	n/a
465.0703125	n/a	119058	largeTSmallH	correct	incongruent	0.5	no	T	H
465.5703125	n/a	119186	responseSmallH	correct	n/a	0.5	no	n/a	n/a
466.6445312	n/a	119461	largeHSmallH	correct	congruent	0.53906	no	H	H
467.1835938	n/a	119599	responseSmallH	correct	n/a	0.53906	no	n/a	n/a
468.2421875	n/a	119870	largeTSmallT	correct	congruent	0.44922	no	T	T
468.6914062	n/a	119985	responseSmallT	correct	n/a	0.44922	no	n/a	n/a
469.765625	n/a	120260	largeTSmallH	correct	incongruent	0.39453	no	T	H
470.1601562	n/a	120361	responseSmallH	correct	n/a	0.39453	no	n/a	n/a
471.2304688	n/a	120635	largeTSmallH	correct	incongruent	0.46875	no	T	H
471.6992188	n/a	120755	responseSmallH	correct	n/a	0.46875	no	n/a	n/a
472.7773438	n/a	121031	largeHSmallT	correct	incongruent	0.42969	no	H	T
473.2070312	n/a	121141	responseSmallT	correct	n/a	0.42969	no	n/a	n/a
474.2695312	n/a	121413	largeHSmallH	correct	congruent	0.41016	no	H	H
474.6796875	n/a	121518	responseSmallH	correct	n/a	0.41016	no	n/a	n/a
475.75	n/a	121792	largeTSmallH	correct	incongruent	0.49219	no	T	H
476.2421875	n/a	121918	responseSmallH	correct	n/a	0.49219	no	n/a	n/a
477.3085938	n/a	122191	largeTSmallH	correct	incongruent	0.49609	no	T	H
477.8046875	n/a	122318	responseSmallH	correct	n/a	0.49609	no	n/a	n/a
478.8710938	n/a	122591	largeTSmallH	correct	incongruent	0.45703	no	T	H
479.328125	n/a	122708	responseSmallH	correct	n/a	0.45703	no	n/a	n/a
480.4023438	n/a	122983	largeTSmallT	correct	congruent	0.52734	no	T	T
480.9296875	n/a	123118	responseSmallT	correct	n/a	0.52734	no	n/a	n/a
481.9921875	n/a	123390	largeTSmallT	correct	congruent	0.42969	no	T	T
482.421875	n/a	123500	responseSmallT	correct	n/a	0.42969	no	n/a	n/a
483.4960938	n/a	123775	largeHSmallH	correct	congruent	0.42578	no	H	H
483.921875	n/a	123884	responseSmallH	correct	n/a	0.42578	no	n/a	n/a
484.9921875	n/a	124158	largeTSmallT	correct	congruent	0.51953	no	T	T
485.5117188	n/a	124291	responseSmallT	correct	n/a	0.51953	no	n/a	n/a
486.578125	n/a	124564	largeHSmallH	correct	congruent	0.33203	no	H	H
486.9101562	n/a	124649	responseSmallH	correct	n/a	0.33203	no	n/a	n/a
487.9765625	n/a	124922	largeTSmallT	correct	congruent	0.42578	no	T	T
488.4023438	n/a	125031	responseSmallT	correct	n/a	0.42578	no	n/a	n/a
489.46875	n/a	125304	largeTSmallT	correct	congruent	0.47656	no	T	T
489.9453125	n/a	125426	responseSmallT	correct	n/a	0.47656	no	n/a	n/a
491.0039062	n/a	125697	largeHSmallT	correct	incongruent	0.57422	no	H	T
491.578125	n/a	125844	responseSmallT	correct	n/a	0.57422	no	n/a	n/a
492.6445312	n/a	126117	largeHSmallH	correct	congruent	0.50781	no	H	H
493.1523438	n/a	126247	responseSmallH	correct	n/a	0.50781	no	n/a	n/a
494.2304688	n/a	126523	largeHSmallT	correct	incongruent	0.39453	no	H	T
494.625	n/a	126624	responseSmallT	correct	n/a	0.39453	no	n/a	n/a
495.6835938	n/a	126895	largeTSmallH	correct	incongruent	0.37109	no	T	H
496.0546875	n/a	126990	responseSmallH	correct	n/a	0.37109	no	n/a	n/a
497.125	n/a	127264	largeTSmallT	correct	congruent	0.35156	no	T	T
497.4765625	n/a	127354	responseSmallT	correct	n/a	0.35156	no	n/a	n/a
498.5507812	n/a	127629	largeHSmallT	correct	incongruent	0.4375	no	H	T
498.9882812	n/a	127741	responseSmallT	correct	n/a	0.4375	no	n/a	n/a
500.0585938	n/a	128015	largeHSmallT	correct	incongruent	0.43359	no	H	T
500.4921875	n/a	128126	responseSmallT	correct	n/a	0.43359	no	n/a	n/a
501.5625	n/a	128400	largeHSmallT	correct	incongruent	0.39453	no	H	T
501.9570312	n/a	128501	responseSmallT	correct	n/a	0.39453	no	n/a	n/a
503.015625	n/a	128772	largeTSmallH	correct	incongruent	0.5	no	T	H
503.515625	n/a	128900	responseSmallH	correct	n/a	0.5	no	n/a	n/a
504.578125	n/a	129172	largeHSmallH	correct	congruent	0.45312	no	H	H
505.03125	n/a	129288	responseSmallH	correct	n/a	0.45312	no	n/a	n/a
506.0976562	n/a	129561	largeHSmallT	correct	incongruent	0.52344	no	H	T
506.6210938	n/a	129695	responseSmallT	correct	n/a	0.52344	no	n/a	n/a
507.6835938	n/a	129967	largeHSmallH	correct	congruent	0.49609	no	H	H
508.1796875	n/a	130094	responseSmallH	correct	n/a	0.49609	no	n/a	n/a
509.2421875	n/a	130366	largeTSmallT	correct	congruent	0.35938	no	T	T
509.6015625	n/a	130458	responseSmallT	correct	n/a	0.35938	no	n/a	n/a
510.6679688	n/a	130731	largeHSmallT	correct	incongruent	0.42188	no	H	T
511.0898438	n/a	130839	responseSmallT	correct	n/a	0.42188	no	n/a	n/a
512.1640625	n/a	131114	largeHSmallT	correct	incongruent	0.40625	no	H	T
512.5703125	n/a	131218	responseSmallT	correct	n/a	0.40625	no	n/a	n/a
513.6289062	n/a	131489	largeHSmallT	correct	incongruent	0.38281	no	H	T
514.0117188	n/a	131587	responseSmallT	correct	n/a	0.38281	no	n/a	n/a
515.0820312	n/a	131861	largeTSmallT	correct	congruent	0.40625	no	T	T
515.4882812	n/a	131965	responseSmallT	correct	n/a	0.40625	no	n/a	n/a
516.5625	n/a	132240	largeHSmallT	correct	incongruent	0.44531	no	H	T
517.0078125	n/a	132354	responseSmallT	correct	n/a	0.44531	no	n/a	n/a
518.0703125	n/a	132626	largeTSmallT	correct	congruent	0.39844	no	T	T
518.46875	n/a	132728	responseSmallT	correct	n/a	0.39844	no	n/a	n/a
519.5351562	n/a	133001	largeHSmallT	correct	incongruent	0.40625	no	H	T
519.9414062	n/a	133105	responseSmallT	correct	n/a	0.40625	no	n/a	n/a
521.015625	n/a	133380	largeHSmallH	correct	congruent	0.48047	no	H	H
521.4960938	n/a	133503	responseSmallH	correct	n/a	0.48047	no	n/a	n/a
522.578125	n/a	133780	largeHSmallT	correct	incongruent	0.39062	no	H	T
522.96875	n/a	133880	responseSmallT	correct	n/a	0.39062	no	n/a	n/a
524.03125	n/a	134152	largeTSmallT	correct	congruent	0.37891	no	T	T
524.4101562	n/a	134249	responseSmallT	correct	n/a	0.37891	no	n/a	n/a
525.46875	n/a	134520	largeTSmallH	correct	incongruent	0.50391	no	T	H
525.9726562	n/a	134649	responseSmallH	correct	n/a	0.50391	no	n/a	n/a
527.0429688	n/a	134923	largeHSmallT	correct	incongruent	0.35547	no	H	T
527.3984375	n/a	135014	responseSmallT	correct	n/a	0.35547	no	n/a	n/a
528.46875	n/a	135288	largeTSmallH	correct	incongruent	0.46875	no	T	H
528.9375	n/a	135408	responseSmallH	correct	n/a	0.46875	no	n/a	n/a
530.015625	n/a	135684	largeTSmallH	correct	incongruent	0.5	no	T	H
530.515625	n/a	135812	responseSmallH	correct	n/a	0.5	no	n/a	n/a
531.5898438	n/a	136087	largeHSmallH	correct	congruent	0.49609	no	H	H
532.0859375	n/a	136214	responseSmallH	correct	n/a	0.49609	no	n/a	n/a
533.1640625	n/a	136490	largeTSmallT	correct	congruent	0.42188	no	T	T
533.5859375	n/a	136598	responseSmallT	correct	n/a	0.42188	no	n/a	n/a
534.65625	n/a	136872	largeHSmallH	correct	congruent	0.42578	no	H	H
535.0820312	n/a	136981	responseSmallH	correct	n/a	0.42578	no	n/a	n/a
536.1640625	n/a	137258	largeHSmallT	correct	incongruent	0.48828	no	H	T
536.6523438	n/a	137383	responseSmallT	correct	n/a	0.48828	no	n/a	n/a
537.7226562	n/a	137657	largeHSmallH	correct	congruent	0.39453	no	H	H
538.1171875	n/a	137758	responseSmallH	correct	n/a	0.39453	no	n/a	n/a
539.1875	n/a	138032	largeHSmallH	correct	congruent	0.49609	no	H	H
539.6835938	n/a	138159	responseSmallH	correct	n/a	0.49609	no	n/a	n/a
540.7617188	n/a	138435	largeTSmallT	correct	congruent	0.41797	no	T	T
541.1796875	n/a	138542	responseSmallT	correct	n/a	0.41797	no	n/a	n/a
542.2421875	n/a	138814	largeTSmallH	correct	incongruent	0.39844	no	T	H
542.640625	n/a	138916	responseSmallH	correct	n/a	0.39844	no	n/a	n/a
543.7109375	n/a	139190	largeHSmallH	correct	congruent	0.51562	no	H	H
544.2265625	n/a	139322	responseSmallH	correct	n/a	0.51562	no	n/a	n/a
545.296875	n/a	139596	largeTSmallH	correct	incongruent	0.39453	no	T	H
545.6914062	n/a	139697	responseSmallH	correct	n/a	0.39453	no	n/a	n/a
546.75	n/a	139968	largeTSmallH	correct	incongruent	0.46484	no	T	H
547.2148438	n/a	140087	responseSmallH	correct	n/a	0.46484	no	n/a	n/a
548.28125	n/a	140360	largeTSmallT	correct	congruent	0.42578	no	T	T
548.7070312	n/a	140469	responseSmallT	correct	n/a	0.42578	no	n/a	n/a
549.7773438	n/a	140743	largeHSmallT	correct	incongruent	0.45703	no	H	T
550.234375	n/a	140860	responseSmallT	correct	n/a	0.45703	no	n/a	n/a
551.3085938	n/a	141135	largeTSmallT	correct	congruent	0.46094	no	T	T
551.7695312	n/a	141253	responseSmallT	correct	n/a	0.46094	no	n/a	n/a
552.828125	n/a	141524	largeTSmallH	correct	incongruent	0.46094	no	T	H
553.2890625	n/a	141642	responseSmallH	correct	n/a	0.46094	no	n/a	n/a
554.3632812	n/a	141917	largeHSmallH	correct	congruent	0.60547	no	H	H
554.96875	n/a	142072	responseSmallH	correct	n/a	0.60547	no	n/a	n/a
556.0273438	n/a	142343	largeHSmallT	correct	incongruent	0.43359	no	H	T
556.4609375	n/a	142454	responseSmallT	correct	n/a	0.43359	no	n/a	n/a
557.5351562	n/a	142729	largeHSmallH	correct	congruent	0.47656	no	H	H
558.0117188	n/a	142851	responseSmallH	correct	n/a	0.47656	no	n/a	n/a
559.0703125	n/a	143122	largeHSmallH	correct	congruent	0.50391	no	H	H
559.5742188	n/a	143251	responseSmallH	correct	n/a	0.50391	no	n/a	n/a
560.65625	n/a	143528	largeHSmallH	correct	congruent	0.48828	no	H	H
561.1445312	n/a	143653	responseSmallH	correct	n/a	0.48828	no	n/a	n/a
562.2148438	n/a	143927	largeTSmallT	correct	congruent	0.44531	no	T	T
562.6601562	n/a	144041	responseSmallT	correct	n/a	0.44531	no	n/a	n/a
563.7226562	n/a	144313	largeTSmallH	correct	incongruent	0.43359	no	T	H
564.15625	n/a	144424	responseSmallH	correct	n/a	0.43359	no	n/a	n/a
565.2148438	n/a	144695	largeHSmallT	correct	incongruent	0.42969	no	H	T
565.6445312	n/a	144805	responseSmallT	correct	n/a	0.42969	no	n/a	n/a
566.7226562	n/a	145081	largeTSmallH	correct	incongruent	0.44922	no	T	H
567.171875	n/a	145196	responseSmallH	correct	n/a	0.44922	no	n/a	n/a
568.2421875	n/a	145470	largeTSmallT	correct	congruent	0.47656	no	T	T
568.71875	n/a	145592	responseSmallT	correct	n/a	0.47656	no	n/a	n/a
569.7890625	n/a	145866	largeHSmallT	correct	incongruent	0.53516	no	H	T
570.3242188	n/a	146003	responseSmallT	correct	n/a	0.53516	no	n/a	n/a
571.4023438	n/a	146279	largeHSmallH	correct	congruent	0.48047	no	H	H
571.8828125	n/a	146402	responseSmallH	correct	n/a	0.48047	no	n/a	n/a
572.9609375	n/a	146678	largeTSmallT	correct	congruent	0.53125	no	T	T
573.4921875	n/a	146814	responseSmallT	correct	n/a	0.53125	no	n/a	n/a
574.5625	n/a	147088	largeTSmallT	correct	congruent	0.60156	no	T	T
575.1640625	n/a	147242	responseSmallT	correct	n/a	0.60156	no	n/a	n/a
576.2265625	n/a	147514	largeHSmallH	correct	congruent	0.45703	no	H	H
576.6835938	n/a	147631	responseSmallH	correct	n/a	0.45703	no	n/a	n/a
577.75	n/a	147904	largeTSmallT	correct	congruent	0.36719	no	T	T
578.1171875	n/a	147998	responseSmallT	correct	n/a	0.36719	no	n/a	n/a
579.1757812	n/a	148269	largeHSmallH	correct	congruent	0.41016	no	H	H
579.5859375	n/a	148374	responseSmallH	correct	n/a	0.41016	no	n/a	n/a
580.640625	n/a	148644	largeHSmallT	correct	incongruent	0.58984	no	H	T
581.2304688	n/a	148795	responseSmallT	correct	n/a	0.58984	no	n/a	n/a
582.2929688	n/a	149067	largeTSmallH	correct	incongruent	0.39844	no	T	H
582.6914062	n/a	149169	responseSmallH	correct	n/a	0.39844	no	n/a	n/a
583.7734375	n/a	149446	largeTSmallH	correct	incongruent	0.53516	no	T	H
584.3085938	n/a	149583	responseSmallH	correct	n/a	0.53516	no	n/a	n/a
585.375	n/a	149856	largeTSmallT	correct	congruent	0.37109	no	T	T
585.7460938	n/a	149951	responseSmallT	correct	n/a	0.37109	no	n/a	n/a
586.8164062	n/a	150225	largeHSmallT	error	incongruent	0.60156	no	H	T
587.4179688	n/a	150379	responseSmallH	error	n/a	0.60156	no	n/a	n/a
588.4804688	n/a	150651	largeTSmallH	correct	incongruent	0.59375	no	T	H
589.0742188	n/a	150803	responseSmallH	correct	n/a	0.59375	no	n/a	n/a
590.1367188	n/a	151075	largeHSmallH	correct	congruent	0.57031	no	H	H
590.7070312	n/a	151221	responseSmallH	correct	n/a	0.57031	no	n/a	n/a
591.7734375	n/a	151494	largeHSmallT	correct	incongruent	0.4375	no	H	T
592.2109375	n/a	151606	responseSmallT	correct	n/a	0.4375	no	n/a	n/a
593.28125	n/a	151880	largeHSmallH	correct	congruent	0.43359	no	H	H
593.7148438	n/a	151991	responseSmallH	correct	n/a	0.43359	no	n/a	n/a
594.7890625	n/a	152266	largeHSmallH	correct	congruent	0.52734	no	H	H
595.3164062	n/a	152401	responseSmallH	correct	n/a	0.52734	no	n/a	n/a
596.3867188	n/a	152675	largeHSmallH	correct	congruent	0.47656	no	H	H
596.8632812	n/a	152797	responseSmallH	correct	n/a	0.47656	no	n/a	n/a
597.9335938	n/a	153071	largeHSmallT	correct	incongruent	0.47266	no	H	T
598.40625	n/a	153192	responseSmallT	correct	n/a	0.47266	no	n/a	n/a
599.4804688	n/a	153467	largeTSmallT	correct	congruent	0.57812	no	T	T
600.0585938	n/a	153615	responseSmallT	correct	n/a	0.57812	no	n/a	n/a
601.1328125	n/a	153890	largeTSmallH	correct	incongruent	0.46484	no	T	H
601.5976562	n/a	154009	responseSmallH	correct	n/a	0.46484	no	n/a	n/a
602.65625	n/a	154280	largeHSmallH	correct	congruent	0.48047	no	H	H
603.1367188	n/a	154403	responseSmallH	correct	n/a	0.48047	no	n/a	n/a
604.1992188	n/a	154675	largeTSmallH	correct	incongruent	0.48047	no	T	H
604.6796875	n/a	154798	responseSmallH	correct	n/a	0.48047	no	n/a	n/a
605.7460938	n/a	155071	largeHSmallH	correct	congruent	0.42188	no	H	H
606.1679688	n/a	155179	responseSmallH	correct	n/a	0.42188	no	n/a	n/a
607.2265625	n/a	155450	largeTSmallH	correct	incongruent	0.45312	no	T	H
607.6796875	n/a	155566	responseSmallH	correct	n/a	0.45312	no	n/a	n/a
608.7460938	n/a	155839	largeHSmallT	correct	incongruent	0.45312	no	H	T
609.1992188	n/a	155955	responseSmallT	correct	n/a	0.45312	no	n/a	n/a
610.28125	n/a	156232	largeHSmallT	correct	incongruent	0.41406	no	H	T
610.6953125	n/a	156338	responseSmallT	correct	n/a	0.41406	no	n/a	n/a
611.7617188	n/a	156611	largeTSmallT	correct	congruent	0.42969	no	T	T
612.1914062	n/a	156721	responseSmallT	correct	n/a	0.42969	no	n/a	n/a
613.265625	n/a	156996	largeTSmallH	correct	incongruent	0.49609	no	T	H
613.7617188	n/a	157123	responseSmallH	correct	n/a	0.49609	no	n/a	n/a
614.828125	n/a	157396	largeTSmallH	correct	incongruent	0.41016	no	T	H
615.2382812	n/a	157501	responseSmallH	correct	n/a	0.41016	no	n/a	n/a
616.3085938	n/a	157775	largeTSmallT	correct	congruent	0.48047	no	T	T
616.7890625	n/a	157898	responseSmallT	correct	n/a	0.48047	no	n/a	n/a
617.8554688	n/a	158171	largeHSmallT	correct	incongruent	0.50391	no	H	T
618.359375	n/a	158300	responseSmallT	correct	n/a	0.50391	no	n/a	n/a
619.4257812	n/a	158573	largeHSmallH	correct	congruent	0.79297	no	H	H
620.21875	n/a	158776	responseSmallH	correct	n/a	0.79297	no	n/a	n/a
621.28125	n/a	159048	largeTSmallT	correct	congruent	0.57031	no	T	T
621.8515625	n/a	159194	responseSmallT	correct	n/a	0.57031	no	n/a	n/a
626.1601562	n/a	160297	largeHSmallH	correct	congruent	1.0195	no	H	H
627.1796875	n/a	160558	responseLargeH	correct	n/a	1.0195	no	n/a	n/a
628.2421875	n/a	160830	largeHSmallT	correct	incongruent	0.75391	no	H	T
628.9960938	n/a	161023	responseLargeH	correct	n/a	0.75391	no	n/a	n/a
630.0664062	n/a	161297	largeHSmallH	correct	congruent	0.66797	no	H	H
630.734375	n/a	161468	responseLargeH	correct	n/a	0.66797	no	n/a	n/a
631.8007812	n/a	161741	largeHSmallT	correct	incongruent	1.3828	no	H	T
633.1835938	n/a	162095	responseLargeH	correct	n/a	1.3828	no	n/a	n/a
634.2539062	n/a	162369	largeHSmallT	error	incongruent	0.88281	no	H	T
635.1367188	n/a	162595	responseLargeT	error	n/a	0.88281	no	n/a	n/a
636.1992188	n/a	162867	largeTSmallT	n/a	congruent	n/a	n/a	T	T
638.6015625	n/a	163482	largeHSmallT	error	incongruent	0.14844	yes	H	T
638.75	n/a	163520	responseLargeT	error	n/a	0.14844	yes	n/a	n/a
639.828125	n/a	163796	largeTSmallH	correct	incongruent	0.71094	no	T	H
640.5390625	n/a	163978	responseLargeT	correct	n/a	0.71094	no	n/a	n/a
641.6132812	n/a	164253	largeHSmallH	correct	congruent	0.6875	no	H	H
642.3007812	n/a	164429	responseLargeH	correct	n/a	0.6875	no	n/a	n/a
643.359375	n/a	164700	largeTSmallT	correct	congruent	0.75781	no	T	T
644.1171875	n/a	164894	responseLargeT	correct	n/a	0.75781	no	n/a	n/a
645.1875	n/a	165168	largeHSmallH	correct	congruent	0.42188	no	H	H
645.609375	n/a	165276	responseLargeH	correct	n/a	0.42188	no	n/a	n/a
646.6796875	n/a	165550	largeHSmallH	correct	congruent	0.5625	no	H	H
647.2421875	n/a	165694	responseLargeH	correct	n/a	0.5625	no	n/a	n/a
648.3085938	n/a	165967	largeTSmallT	correct	congruent	0.52344	no	T	T
648.8320312	n/a	166101	responseLargeT	correct	n/a	0.52344	no	n/a	n/a
649.8945312	n/a	166373	largeHSmallT	correct	incongruent	0.64844	no	H	T
650.5429688	n/a	166539	responseLargeH	correct	n/a	0.64844	no	n/a	n/a
651.6132812	n/a	166813	largeTSmallT	correct	congruent	0.52344	no	T	T
652.1367188	n/a	166947	responseLargeT	correct	n/a	0.52344	no	n/a	n/a
653.1992188	n/a	167219	largeHSmallH	correct	congruent	0.36719	no	H	H
653.5664062	n/a	167313	responseLargeH	correct	n/a	0.36719	no	n/a	n/a
654.640625	n/a	167588	largeTSmallT	correct	congruent	0.39453	no	T	T
655.0351562	n/a	167689	responseLargeT	correct	n/a	0.39453	no	n/a	n/a
656.1054688	n/a	167963	largeHSmallT	correct	incongruent	0.58594	no	H	T
656.6914062	n/a	168113	responseLargeH	correct	n/a	0.58594	no	n/a	n/a
657.7617188	n/a	168387	largeTSmallT	correct	congruent	0.42188	no	T	T
658.1835938	n/a	168495	responseLargeT	correct	n/a	0.42188	no	n/a	n/a
659.2539062	n/a	168769	largeHSmallT	correct	incongruent	0.35547	no	H	T
659.609375	n/a	168860	responseLargeH	correct	n/a	0.35547	no	n/a	n/a
660.6796875	n/a	169134	largeHSmallT	correct	incongruent	0.57812	no	H	T
661.2578125	n/a	169282	responseLargeH	correct	n/a	0.57812	no	n/a	n/a
662.3320312	n/a	169557	largeHSmallT	correct	incongruent	0.42969	no	H	T
662.7617188	n/a	169667	responseLargeH	correct	n/a	0.42969	no	n/a	n/a
663.828125	n/a	169940	largeHSmallT	correct	incongruent	0.55078	no	H	T
664.3789062	n/a	170081	responseLargeH	correct	n/a	0.55078	no	n/a	n/a
665.453125	n/a	170356	largeTSmallH	correct	incongruent	0.51172	no	T	H
665.9648438	n/a	170487	responseLargeT	correct	n/a	0.51172	no	n/a	n/a
667.0273438	n/a	170759	largeHSmallT	correct	incongruent	0.46094	no	H	T
667.4882812	n/a	170877	responseLargeH	correct	n/a	0.46094	no	n/a	n/a
668.5585938	n/a	171151	largeTSmallH	error	incongruent	0.42969	no	T	H
668.9882812	n/a	171261	responseLargeH	error	n/a	0.42969	no	n/a	n/a
670.0546875	n/a	171534	largeHSmallT	correct	incongruent	0.5	no	H	T
670.5546875	n/a	171662	responseLargeH	correct	n/a	0.5	no	n/a	n/a
671.6132812	n/a	171933	largeHSmallT	correct	incongruent	0.57812	no	H	T
672.1914062	n/a	172081	responseLargeH	correct	n/a	0.57812	no	n/a	n/a
673.2539062	n/a	172353	largeHSmallH	correct	congruent	0.89453	no	H	H
674.1484375	n/a	172582	responseLargeH	correct	n/a	0.89453	no	n/a	n/a
675.2109375	n/a	172854	largeHSmallH	correct	congruent	0.41016	no	H	H
675.6210938	n/a	172959	responseLargeH	correct	n/a	0.41016	no	n/a	n/a
676.6796875	n/a	173230	largeTSmallH	correct	incongruent	0.40625	no	T	H
677.0859375	n/a	173334	responseLargeT	correct	n/a	0.40625	no	n/a	n/a
678.1445312	n/a	173605	largeHSmallT	correct	incongruent	0.46094	no	H	T
678.6054688	n/a	173723	responseLargeH	correct	n/a	0.46094	no	n/a	n/a
679.6796875	n/a	173998	largeTSmallT	correct	congruent	0.43359	no	T	T
680.1132812	n/a	174109	responseLargeT	correct	n/a	0.43359	no	n/a	n/a
681.171875	n/a	174380	largeHSmallH	correct	congruent	0.36328	no	H	H
681.5351562	n/a	174473	responseLargeH	correct	n/a	0.36328	no	n/a	n/a
682.6132812	n/a	174749	largeTSmallT	correct	congruent	0.35547	no	T	T
682.96875	n/a	174840	responseLargeT	correct	n/a	0.35547	no	n/a	n/a
684.0273438	n/a	175111	largeHSmallH	correct	congruent	0.42578	no	H	H
684.453125	n/a	175220	responseLargeH	correct	n/a	0.42578	no	n/a	n/a
685.53125	n/a	175496	largeTSmallT	correct	congruent	0.46094	no	T	T
685.9921875	n/a	175614	responseLargeT	correct	n/a	0.46094	no	n/a	n/a
687.0507812	n/a	175885	largeTSmallT	correct	congruent	0.42188	no	T	T
687.4726562	n/a	175993	responseLargeT	correct	n/a	0.42188	no	n/a	n/a
688.53125	n/a	176264	largeHSmallT	correct	incongruent	0.45312	no	H	T
688.984375	n/a	176380	responseLargeH	correct	n/a	0.45312	no	n/a	n/a
690.0507812	n/a	176653	largeTSmallH	correct	incongruent	0.41016	no	T	H
690.4609375	n/a	176758	responseLargeT	correct	n/a	0.41016	no	n/a	n/a
691.53125	n/a	177032	largeTSmallT	correct	congruent	0.46094	no	T	T
691.9921875	n/a	177150	responseLargeT	correct	n/a	0.46094	no	n/a	n/a
693.0664062	n/a	177425	largeHSmallT	correct	incongruent	0.47656	no	H	T
693.5429688	n/a	177547	responseLargeH	correct	n/a	0.47656	no	n/a	n/a
694.6132812	n/a	177821	largeHSmallT	correct	incongruent	0.40625	no	H	T
695.0195312	n/a	177925	responseLargeH	correct	n/a	0.40625	no	n/a	n/a
696.09375	n/a	178200	largeTSmallH	correct	incongruent	0.44141	no	T	H
696.5351562	n/a	178313	responseLargeT	correct	n/a	0.44141	no	n/a	n/a
697.5976562	n/a	178585	largeHSmallT	correct	incongruent	0.61328	no	H	T
698.2109375	n/a	178742	responseLargeH	correct	n/a	0.61328	no	n/a	n/a
699.2929688	n/a	179019	largeHSmallT	correct	incongruent	0.45703	no	H	T
699.75	n/a	179136	responseLargeH	correct	n/a	0.45703	no	n/a	n/a
700.8125	n/a	179408	largeTSmallH	correct	incongruent	0.39844	no	T	H
701.2109375	n/a	179510	responseLargeT	correct	n/a	0.39844	no	n/a	n/a
702.2773438	n/a	179783	largeHSmallH	correct	congruent	0.4375	no	H	H
702.7148438	n/a	179895	responseLargeH	correct	n/a	0.4375	no	n/a	n/a
703.7734375	n/a	180166	largeTSmallT	correct	congruent	0.40234	no	T	T
704.1757812	n/a	180269	responseLargeT	correct	n/a	0.40234	no	n/a	n/a
705.2539062	n/a	180545	largeTSmallH	correct	incongruent	0.49219	no	T	H
705.7460938	n/a	180671	responseLargeT	correct	n/a	0.49219	no	n/a	n/a
706.8242188	n/a	180947	largeHSmallH	correct	congruent	0.41016	no	H	H
707.234375	n/a	181052	responseLargeH	correct	n/a	0.41016	no	n/a	n/a
708.3046875	n/a	181326	largeTSmallH	correct	incongruent	0.38281	no	T	H
708.6875	n/a	181424	responseLargeT	correct	n/a	0.38281	no	n/a	n/a
709.7578125	n/a	181698	largeTSmallT	correct	congruent	0.44531	no	T	T
710.203125	n/a	181812	responseLargeT	correct	n/a	0.44531	no	n/a	n/a
711.265625	n/a	182084	largeTSmallH	correct	incongruent	0.42969	no	T	H
711.6953125	n/a	182194	responseLargeT	correct	n/a	0.42969	no	n/a	n/a
712.7578125	n/a	182466	largeTSmallT	correct	congruent	0.37891	no	T	T
713.1367188	n/a	182563	responseLargeT	correct	n/a	0.37891	no	n/a	n/a
714.1992188	n/a	182835	largeTSmallT	correct	congruent	0.38672	no	T	T
714.5859375	n/a	182934	responseLargeT	correct	n/a	0.38672	no	n/a	n/a
715.6523438	n/a	183207	largeTSmallT	correct	congruent	0.39453	no	T	T
716.046875	n/a	183308	responseLargeT	correct	n/a	0.39453	no	n/a	n/a
717.1171875	n/a	183582	largeHSmallH	correct	congruent	0.42969	no	H	H
717.546875	n/a	183692	responseLargeH	correct	n/a	0.42969	no	n/a	n/a
718.6132812	n/a	183965	largeHSmallT	correct	incongruent	0.38672	no	H	T
719	n/a	184064	responseLargeH	correct	n/a	0.38672	no	n/a	n/a
720.0664062	n/a	184337	largeTSmallH	correct	incongruent	0.46094	no	T	H
720.5273438	n/a	184455	responseLargeT	correct	n/a	0.46094	no	n/a	n/a
721.5976562	n/a	184729	largeTSmallT	correct	congruent	0.40625	no	T	T
722.0039062	n/a	184833	responseLargeT	correct	n/a	0.40625	no	n/a	n/a
723.078125	n/a	185108	largeTSmallH	correct	incongruent	0.61328	no	T	H
723.6914062	n/a	185265	responseLargeT	correct	n/a	0.61328	no	n/a	n/a
724.7578125	n/a	185538	largeHSmallT	correct	incongruent	0.55859	no	H	T
725.3164062	n/a	185681	responseLargeH	correct	n/a	0.55859	no	n/a	n/a
726.3867188	n/a	185955	largeTSmallH	correct	incongruent	0.63672	no	T	H
727.0234375	n/a	186118	responseLargeT	correct	n/a	0.63672	no	n/a	n/a
728.078125	n/a	186388	largeHSmallH	correct	congruent	0.58203	no	H	H
728.6601562	n/a	186537	responseLargeH	correct	n/a	0.58203	no	n/a	n/a
729.71875	n/a	186808	largeHSmallH	correct	congruent	0.73438	no	H	H
730.453125	n/a	186996	responseLargeH	correct	n/a	0.73438	no	n/a	n/a
731.5195312	n/a	187269	largeHSmallT	correct	incongruent	0.52344	no	H	T
732.0429688	n/a	187403	responseLargeH	correct	n/a	0.52344	no	n/a	n/a
733.1054688	n/a	187675	largeTSmallH	correct	incongruent	0.45312	no	T	H
733.5585938	n/a	187791	responseLargeT	correct	n/a	0.45312	no	n/a	n/a
734.625	n/a	188064	largeTSmallT	correct	congruent	0.45312	no	T	T
735.078125	n/a	188180	responseLargeT	correct	n/a	0.45312	no	n/a	n/a
736.1445312	n/a	188453	largeHSmallH	correct	congruent	0.45312	no	H	H
736.5976562	n/a	188569	responseLargeH	correct	n/a	0.45312	no	n/a	n/a
737.6640625	n/a	188842	largeTSmallT	correct	congruent	0.46094	no	T	T
738.125	n/a	188960	responseLargeT	correct	n/a	0.46094	no	n/a	n/a
739.1835938	n/a	189231	largeTSmallH	correct	incongruent	0.39844	no	T	H
739.5820312	n/a	189333	responseLargeT	correct	n/a	0.39844	no	n/a	n/a
740.6640625	n/a	189610	largeHSmallT	correct	incongruent	0.47656	no	H	T
741.140625	n/a	189732	responseLargeH	correct	n/a	0.47656	no	n/a	n/a
742.1992188	n/a	190003	largeHSmallH	correct	congruent	0.37891	no	H	H
742.578125	n/a	190100	responseLargeH	correct	n/a	0.37891	no	n/a	n/a
743.6367188	n/a	190371	largeHSmallT	correct	incongruent	0.36719	no	H	T
744.0039062	n/a	190465	responseLargeH	correct	n/a	0.36719	no	n/a	n/a
745.078125	n/a	190740	largeTSmallH	correct	incongruent	0.45703	no	T	H
745.5351562	n/a	190857	responseLargeT	correct	n/a	0.45703	no	n/a	n/a
746.5976562	n/a	191129	largeHSmallH	correct	congruent	0.45703	no	H	H
747.0546875	n/a	191246	responseLargeH	correct	n/a	0.45703	no	n/a	n/a
748.1328125	n/a	191522	largeHSmallT	correct	incongruent	0.52734	no	H	T
748.6601562	n/a	191657	responseLargeH	correct	n/a	0.52734	no	n/a	n/a
749.71875	n/a	191928	largeTSmallH	correct	incongruent	0.4375	no	T	H
750.15625	n/a	192040	responseLargeT	correct	n/a	0.4375	no	n/a	n/a
751.2226562	n/a	192313	largeTSmallH	correct	incongruent	0.42969	no	T	H
751.6523438	n/a	192423	responseLargeT	correct	n/a	0.42969	no	n/a	n/a
752.71875	n/a	192696	largeHSmallH	correct	congruent	0.44531	no	H	H
753.1640625	n/a	192810	responseLargeH	correct	n/a	0.44531	no	n/a	n/a
754.2265625	n/a	193082	largeTSmallT	correct	congruent	0.37891	no	T	T
754.6054688	n/a	193179	responseLargeT	correct	n/a	0.37891	no	n/a	n/a
755.6640625	n/a	193450	largeHSmallT	correct	incongruent	0.47266	no	H	T
756.1367188	n/a	193571	responseLargeH	correct	n/a	0.47266	no	n/a	n/a
757.2109375	n/a	193846	largeTSmallH	correct	incongruent	0.39453	no	T	H
757.6054688	n/a	193947	responseLargeT	correct	n/a	0.39453	no	n/a	n/a
758.6757812	n/a	194221	largeTSmallH	correct	incongruent	0.41016	no	T	H
759.0859375	n/a	194326	responseLargeT	correct	n/a	0.41016	no	n/a	n/a
760.15625	n/a	194600	largeTSmallT	correct	congruent	0.38672	no	T	T
760.5429688	n/a	194699	responseLargeT	correct	n/a	0.38672	no	n/a	n/a
761.609375	n/a	194972	largeHSmallT	correct	incongruent	0.45312	no	H	T
762.0625	n/a	195088	responseLargeH	correct	n/a	0.45312	no	n/a	n/a
763.1445312	n/a	195365	largeHSmallH	correct	congruent	0.42578	no	H	H
763.5703125	n/a	195474	responseLargeH	correct	n/a	0.42578	no	n/a	n/a
764.6367188	n/a	195747	largeHSmallT	correct	incongruent	0.36719	no	H	T
765.0039062	n/a	195841	responseLargeH	correct	n/a	0.36719	no	n/a	n/a
766.0625	n/a	196112	largeTSmallT	correct	congruent	0.40234	no	T	T
766.4648438	n/a	196215	responseLargeT	correct	n/a	0.40234	no	n/a	n/a
767.53125	n/a	196488	largeHSmallH	correct	congruent	0.50781	no	H	H
768.0390625	n/a	196618	responseLargeH	correct	n/a	0.50781	no	n/a	n/a
769.1171875	n/a	196894	largeHSmallH	correct	congruent	0.45703	no	H	H
769.5742188	n/a	197011	responseLargeH	correct	n/a	0.45703	no	n/a	n/a
770.6367188	n/a	197283	largeTSmallH	correct	incongruent	0.41797	no	T	H
771.0546875	n/a	197390	responseLargeT	correct	n/a	0.41797	no	n/a	n/a
772.1171875	n/a	197662	largeHSmallH	correct	congruent	0.43359	no	H	H
772.5507812	n/a	197773	responseLargeH	correct	n/a	0.43359	no	n/a	n/a
773.625	n/a	198048	largeHSmallT	correct	incongruent	0.43359	no	H	T
774.0585938	n/a	198159	responseLargeH	correct	n/a	0.43359	no	n/a	n/a
775.1171875	n/a	198430	largeTSmallT	correct	congruent	0.41016	no	T	T
775.5273438	n/a	198535	responseLargeT	correct	n/a	0.41016	no	n/a	n/a
776.5976562	n/a	198809	largeHSmallH	correct	congruent	0.42969	no	H	H
777.0273438	n/a	198919	responseLargeH	correct	n/a	0.42969	no	n/a	n/a
778.1054688	n/a	199195	largeTSmallT	correct	congruent	0.41406	no	T	T
778.5195312	n/a	199301	responseLargeT	correct	n/a	0.41406	no	n/a	n/a
779.5820312	n/a	199573	largeTSmallT	correct	congruent	0.44531	no	T	T
780.0273438	n/a	199687	responseLargeT	correct	n/a	0.44531	no	n/a	n/a
781.0898438	n/a	199959	largeTSmallH	correct	incongruent	0.44531	no	T	H
781.5351562	n/a	200073	responseLargeT	correct	n/a	0.44531	no	n/a	n/a
782.609375	n/a	200348	largeTSmallT	correct	congruent	0.375	no	T	T
782.984375	n/a	200444	responseLargeT	correct	n/a	0.375	no	n/a	n/a
784.0625	n/a	200720	largeTSmallH	correct	incongruent	0.42578	no	T	H
784.4882812	n/a	200829	responseLargeT	correct	n/a	0.42578	no	n/a	n/a
785.5585938	n/a	201103	largeTSmallH	correct	incongruent	0.36719	no	T	H
785.9257812	n/a	201197	responseLargeT	correct	n/a	0.36719	no	n/a	n/a
786.9960938	n/a	201471	largeHSmallT	correct	incongruent	0.47656	no	H	T
787.4726562	n/a	201593	responseLargeH	correct	n/a	0.47656	no	n/a	n/a
788.53125	n/a	201864	largeHSmallH	correct	congruent	0.42188	no	H	H
788.953125	n/a	201972	responseLargeH	correct	n/a	0.42188	no	n/a	n/a
790.0234375	n/a	202246	largeHSmallH	correct	congruent	0.36719	no	H	H
790.390625	n/a	202340	responseLargeH	correct	n/a	0.36719	no	n/a	n/a
791.4492188	n/a	202611	largeHSmallH	correct	congruent	0.39844	no	H	H
791.8476562	n/a	202713	responseLargeH	correct	n/a	0.39844	no	n/a	n/a
792.9179688	n/a	202987	largeTSmallH	correct	incongruent	0.44141	no	T	H
793.359375	n/a	203100	responseLargeT	correct	n/a	0.44141	no	n/a	n/a
794.4375	n/a	203376	largeTSmallH	correct	incongruent	0.48828	no	T	H
794.9257812	n/a	203501	responseLargeT	correct	n/a	0.48828	no	n/a	n/a
795.9960938	n/a	203775	largeTSmallH	correct	incongruent	0.36328	no	T	H
796.359375	n/a	203868	responseLargeT	correct	n/a	0.36328	no	n/a	n/a
797.421875	n/a	204140	largeHSmallH	correct	congruent	0.4375	no	H	H
797.859375	n/a	204252	responseLargeH	correct	n/a	0.4375	no	n/a	n/a
798.9296875	n/a	204526	largeTSmallH	correct	incongruent	0.40625	no	T	H
799.3359375	n/a	204630	responseLargeT	correct	n/a	0.40625	no	n/a	n/a
800.4101562	n/a	204905	largeHSmallT	correct	incongruent	0.46875	no	H	T
800.8789062	n/a	205025	responseLargeH	correct	n/a	0.46875	no	n/a	n/a
801.9453125	n/a	205298	largeHSmallT	correct	incongruent	0.42188	no	H	T
802.3671875	n/a	205406	responseLargeH	correct	n/a	0.42188	no	n/a	n/a
803.4375	n/a	205680	largeTSmallH	correct	incongruent	0.43359	no	T	H
803.8710938	n/a	205791	responseLargeT	correct	n/a	0.43359	no	n/a	n/a
804.9414062	n/a	206065	largeHSmallT	correct	incongruent	0.40625	no	H	T
805.3476562	n/a	206169	responseLargeH	correct	n/a	0.40625	no	n/a	n/a
806.4101562	n/a	206441	largeTSmallT	error	congruent	0.45312	no	T	T
806.8632812	n/a	206557	responseLargeH	error	n/a	0.45312	no	n/a	n/a
807.9296875	n/a	206830	largeTSmallT	correct	congruent	0.50391	no	T	T
808.4335938	n/a	206959	responseLargeT	correct	n/a	0.50391	no	n/a	n/a
809.5039062	n/a	207233	largeHSmallH	correct	congruent	0.45703	no	H	H
809.9609375	n/a	207350	responseLargeH	correct	n/a	0.45703	no	n/a	n/a
811.0351562	n/a	207625	largeTSmallH	correct	incongruent	0.40625	no	T	H
811.4414062	n/a	207729	responseLargeT	correct	n/a	0.40625	no	n/a	n/a
812.515625	n/a	208004	largeHSmallH	correct	congruent	0.45312	no	H	H
812.96875	n/a	208120	responseLargeH	correct	n/a	0.45312	no	n/a	n/a
814.0351562	n/a	208393	largeTSmallH	correct	incongruent	0.36719	no	T	H
814.4023438	n/a	208487	responseLargeT	correct	n/a	0.36719	no	n/a	n/a
815.4765625	n/a	208762	largeTSmallH	correct	incongruent	0.49219	no	T	H
815.96875	n/a	208888	responseLargeT	correct	n/a	0.49219	no	n/a	n/a
817.0351562	n/a	209161	largeTSmallH	correct	incongruent	0.40234	no	T	H
817.4375	n/a	209264	responseLargeT	correct	n/a	0.40234	no	n/a	n/a
818.5039062	n/a	209537	largeTSmallH	correct	incongruent	0.35547	no	T	H
818.859375	n/a	209628	responseLargeT	correct	n/a	0.35547	no	n/a	n/a
819.9179688	n/a	209899	largeTSmallT	correct	congruent	0.39453	no	T	T
820.3125	n/a	210000	responseLargeT	correct	n/a	0.39453	no	n/a	n/a
821.3828125	n/a	210274	largeHSmallT	correct	incongruent	0.49609	no	H	T
821.8789062	n/a	210401	responseLargeH	correct	n/a	0.49609	no	n/a	n/a
822.9570312	n/a	210677	largeHSmallH	correct	congruent	0.41406	no	H	H
823.3710938	n/a	210783	responseLargeH	correct	n/a	0.41406	no	n/a	n/a
824.4375	n/a	211056	largeTSmallT	correct	congruent	0.47656	no	T	T
824.9140625	n/a	211178	responseLargeT	correct	n/a	0.47656	no	n/a	n/a
825.984375	n/a	211452	largeHSmallT	correct	incongruent	0.57812	no	H	T
826.5625	n/a	211600	responseLargeH	correct	n/a	0.57812	no	n/a	n/a
827.6367188	n/a	211875	largeTSmallH	correct	incongruent	0.35547	no	T	H
827.9921875	n/a	211966	responseLargeT	correct	n/a	0.35547	no	n/a	n/a
829.0625	n/a	212240	largeTSmallT	correct	congruent	0.36328	no	T	T
829.4257812	n/a	212333	responseLargeT	correct	n/a	0.36328	no	n/a	n/a
830.5039062	n/a	212609	largeTSmallH	correct	incongruent	0.35547	no	T	H
830.859375	n/a	212700	responseLargeT	correct	n/a	0.35547	no	n/a	n/a
831.9179688	n/a	212971	largeTSmallT	correct	congruent	0.37109	no	T	T
832.2890625	n/a	213066	responseLargeT	correct	n/a	0.37109	no	n/a	n/a
833.3554688	n/a	213339	largeTSmallH	correct	incongruent	0.37109	no	T	H
833.7265625	n/a	213434	responseLargeT	correct	n/a	0.37109	no	n/a	n/a
834.78125	n/a	213704	largeTSmallH	correct	incongruent	0.37891	no	T	H
835.1601562	n/a	213801	responseLargeT	correct	n/a	0.37891	no	n/a	n/a
836.2226562	n/a	214073	largeTSmallT	correct	congruent	0.41797	no	T	T
836.640625	n/a	214180	responseLargeT	correct	n/a	0.41797	no	n/a	n/a
837.703125	n/a	214452	largeTSmallT	correct	congruent	0.38672	no	T	T
838.0898438	n/a	214551	responseLargeT	correct	n/a	0.38672	no	n/a	n/a
839.15625	n/a	214824	largeTSmallT	correct	congruent	0.36328	no	T	T
839.5195312	n/a	214917	responseLargeT	correct	n/a	0.36328	no	n/a	n/a
840.5976562	n/a	215193	largeHSmallH	correct	congruent	0.73047	no	H	H
841.328125	n/a	215380	responseLargeH	correct	n/a	0.73047	no	n/a	n/a
842.4101562	n/a	215657	largeTSmallH	correct	incongruent	0.40625	no	T	H
842.8164062	n/a	215761	responseLargeT	correct	n/a	0.40625	no	n/a	n/a
843.890625	n/a	216036	largeTSmallT	correct	congruent	0.42578	no	T	T
844.3164062	n/a	216145	responseLargeT	correct	n/a	0.42578	no	n/a	n/a
845.3828125	n/a	216418	largeHSmallH	correct	congruent	0.48828	no	H	H
845.8710938	n/a	216543	responseLargeH	correct	n/a	0.48828	no	n/a	n/a
846.9414062	n/a	216817	largeHSmallT	correct	incongruent	0.53906	no	H	T
847.4804688	n/a	216955	responseLargeH	correct	n/a	0.53906	no	n/a	n/a
848.5429688	n/a	217227	largeHSmallT	correct	incongruent	0.41797	no	H	T
848.9609375	n/a	217334	responseLargeH	correct	n/a	0.41797	no	n/a	n/a
850.0351562	n/a	217609	largeHSmallH	correct	congruent	0.48828	no	H	H
850.5234375	n/a	217734	responseLargeH	correct	n/a	0.48828	no	n/a	n/a
851.59375	n/a	218008	largeHSmallT	correct	incongruent	0.41016	no	H	T
852.0039062	n/a	218113	responseLargeH	correct	n/a	0.41016	no	n/a	n/a
853.0742188	n/a	218387	largeHSmallH	correct	congruent	0.36719	no	H	H
853.4414062	n/a	218481	responseLargeH	correct	n/a	0.36719	no	n/a	n/a
854.5	n/a	218752	largeHSmallT	correct	incongruent	0.38672	no	H	T
854.8867188	n/a	218851	responseLargeH	correct	n/a	0.38672	no	n/a	n/a
855.9570312	n/a	219125	largeHSmallH	correct	congruent	0.40234	no	H	H
856.359375	n/a	219228	responseLargeH	correct	n/a	0.40234	no	n/a	n/a
857.421875	n/a	219500	largeHSmallH	correct	congruent	0.37109	no	H	H
857.7929688	n/a	219595	responseLargeH	correct	n/a	0.37109	no	n/a	n/a
858.8632812	n/a	219869	largeTSmallH	correct	incongruent	0.44141	no	T	H
859.3046875	n/a	219982	responseLargeT	correct	n/a	0.44141	no	n/a	n/a
860.3671875	n/a	220254	largeTSmallT	correct	congruent	0.39453	no	T	T
860.7617188	n/a	220355	responseLargeT	correct	n/a	0.39453	no	n/a	n/a
861.8203125	n/a	220626	largeHSmallT	correct	incongruent	0.49219	no	H	T
862.3125	n/a	220752	responseLargeH	correct	n/a	0.49219	no	n/a	n/a
863.3828125	n/a	221026	largeTSmallT	correct	congruent	0.44531	no	T	T
863.828125	n/a	221140	responseLargeT	correct	n/a	0.44531	no	n/a	n/a
864.9023438	n/a	221415	largeTSmallH	correct	incongruent	0.44141	no	T	H
865.34375	n/a	221528	responseLargeT	correct	n/a	0.44141	no	n/a	n/a
866.4101562	n/a	221801	largeTSmallT	correct	congruent	0.375	no	T	T
866.7851562	n/a	221897	responseLargeT	correct	n/a	0.375	no	n/a	n/a
867.8632812	n/a	222173	largeTSmallT	correct	congruent	0.36719	no	T	T
868.2304688	n/a	222267	responseLargeT	correct	n/a	0.36719	no	n/a	n/a
869.3007812	n/a	222541	largeTSmallT	correct	congruent	0.38672	no	T	T
869.6875	n/a	222640	responseLargeT	correct	n/a	0.38672	no	n/a	n/a
870.7539062	n/a	222913	largeTSmallT	correct	congruent	0.33984	no	T	T
871.09375	n/a	223000	responseLargeT	correct	n/a	0.33984	no	n/a	n/a
872.1679688	n/a	223275	largeHSmallT	correct	incongruent	0.5	no	H	T
872.6679688	n/a	223403	responseLargeH	correct	n/a	0.5	no	n/a	n/a
873.7421875	n/a	223678	largeTSmallH	correct	incongruent	0.41016	no	T	H
874.1523438	n/a	223783	responseLargeT	correct	n/a	0.41016	no	n/a	n/a
875.2226562	n/a	224057	largeHSmallH	correct	congruent	0.375	no	H	H
875.5976562	n/a	224153	responseLargeH	correct	n/a	0.375	no	n/a	n/a
876.6601562	n/a	224425	largeHSmallH	error	congruent	0.38672	no	H	H
877.046875	n/a	224524	responseLargeT	error	n/a	0.38672	no	n/a	n/a
878.1132812	n/a	224797	largeHSmallH	correct	congruent	0.52344	no	H	H
878.6367188	n/a	224931	responseLargeH	correct	n/a	0.52344	no	n/a	n/a
879.703125	n/a	225204	largeTSmallT	correct	congruent	0.4375	no	T	T
880.140625	n/a	225316	responseLargeT	correct	n/a	0.4375	no	n/a	n/a
881.2226562	n/a	225593	largeTSmallH	correct	incongruent	0.39062	no	T	H
881.6132812	n/a	225693	responseLargeT	correct	n/a	0.39062	no	n/a	n/a
882.6757812	n/a	225965	largeHSmallH	correct	congruent	0.45703	no	H	H
883.1328125	n/a	226082	responseLargeH	correct	n/a	0.45703	no	n/a	n/a
884.1953125	n/a	226354	largeHSmallT	correct	incongruent	0.41406	no	H	T
884.609375	n/a	226460	responseLargeH	correct	n/a	0.41406	no	n/a	n/a
885.6757812	n/a	226733	largeTSmallH	correct	incongruent	0.48438	no	T	H
886.1601562	n/a	226857	responseLargeT	correct	n/a	0.48438	no	n/a	n/a
887.2226562	n/a	227129	largeHSmallT	correct	incongruent	0.59375	no	H	T
887.8164062	n/a	227281	responseLargeH	correct	n/a	0.59375	no	n/a	n/a
888.8867188	n/a	227555	largeTSmallH	correct	incongruent	0.43359	no	T	H
889.3203125	n/a	227666	responseLargeT	correct	n/a	0.43359	no	n/a	n/a
890.3828125	n/a	227938	largeTSmallT	correct	congruent	0.39453	no	T	T
890.7773438	n/a	228039	responseLargeT	correct	n/a	0.39453	no	n/a	n/a
891.8359375	n/a	228310	largeHSmallT	correct	incongruent	0.42578	no	H	T
892.2617188	n/a	228419	responseLargeH	correct	n/a	0.42578	no	n/a	n/a
893.3398438	n/a	228695	largeTSmallH	correct	incongruent	0.49219	no	T	H
893.8320312	n/a	228821	responseLargeT	correct	n/a	0.49219	no	n/a	n/a
894.9023438	n/a	229095	largeHSmallH	correct	congruent	0.60547	no	H	H
895.5078125	n/a	229250	responseLargeH	correct	n/a	0.60547	no	n/a	n/a
896.5820312	n/a	229525	largeTSmallH	correct	incongruent	0.32422	no	T	H
896.90625	n/a	229608	responseLargeT	correct	n/a	0.32422	no	n/a	n/a
897.96875	n/a	229880	largeTSmallT	correct	congruent	0.37891	no	T	T
898.3476562	n/a	229977	responseLargeT	correct	n/a	0.37891	no	n/a	n/a
899.421875	n/a	230252	largeTSmallT	correct	congruent	0.375	no	T	T
899.796875	n/a	230348	responseLargeT	correct	n/a	0.375	no	n/a	n/a
900.875	n/a	230624	largeHSmallT	correct	incongruent	0.44922	no	H	T
901.3242188	n/a	230739	responseLargeH	correct	n/a	0.44922	no	n/a	n/a
902.3945312	n/a	231013	largeTSmallT	correct	congruent	0.41016	no	T	T
902.8046875	n/a	231118	responseLargeT	correct	n/a	0.41016	no	n/a	n/a
903.859375	n/a	231388	largeHSmallT	correct	incongruent	0.33984	no	H	T
904.1992188	n/a	231475	responseLargeH	correct	n/a	0.33984	no	n/a	n/a
905.2734375	n/a	231750	largeHSmallT	error	incongruent	0.32031	no	H	T
905.59375	n/a	231832	responseLargeT	error	n/a	0.32031	no	n/a	n/a
906.6601562	n/a	232105	largeHSmallH	correct	congruent	0.44141	no	H	H
907.1015625	n/a	232218	responseLargeH	correct	n/a	0.44141	no	n/a	n/a
908.1679688	n/a	232491	largeTSmallT	correct	congruent	0.44922	no	T	T
908.6171875	n/a	232606	responseLargeT	correct	n/a	0.44922	no	n/a	n/a
909.6875	n/a	232880	largeHSmallH	correct	congruent	0.46484	no	H	H
910.1523438	n/a	232999	responseLargeH	correct	n/a	0.46484	no	n/a	n/a
911.2070312	n/a	233269	largeTSmallT	correct	congruent	0.41016	no	T	T
911.6171875	n/a	233374	responseLargeT	correct	n/a	0.41016	no	n/a	n/a
912.6757812	n/a	233645	largeTSmallT	correct	congruent	0.42188	no	T	T
913.0976562	n/a	233753	responseLargeT	correct	n/a	0.42188	no	n/a	n/a
914.1679688	n/a	234027	largeTSmallH	error	incongruent	0.47266	no	T	H
914.640625	n/a	234148	responseLargeH	error	n/a	0.47266	no	n/a	n/a
915.7148438	n/a	234423	largeHSmallH	correct	congruent	0.45312	no	H	H
916.1679688	n/a	234539	responseLargeH	correct	n/a	0.45312	no	n/a	n/a
917.234375	n/a	234812	largeHSmallH	correct	congruent	0.41016	no	H	H
917.6445312	n/a	234917	responseLargeH	correct	n/a	0.41016	no	n/a	n/a
918.7148438	n/a	235191	largeTSmallH	correct	incongruent	0.44922	no	T	H
919.1640625	n/a	235306	responseLargeT	correct	n/a	0.44922	no	n/a	n/a
920.234375	n/a	235580	largeHSmallH	correct	congruent	0.39453	no	H	H
920.6289062	n/a	235681	responseLargeH	correct	n/a	0.39453	no	n/a	n/a
921.6992188	n/a	235955	largeHSmallH	correct	congruent	0.39844	no	H	H
922.0976562	n/a	236057	responseLargeH	correct	n/a	0.39844	no	n/a	n/a
923.1679688	n/a	236331	largeHSmallT	correct	incongruent	0.39453	no	H	T
923.5625	n/a	236432	responseLargeH	correct	n/a	0.39453	no	n/a	n/a
924.6328125	n/a	236706	largeHSmallT	correct	incongruent	0.38281	no	H	T
925.015625	n/a	236804	responseLargeH	correct	n/a	0.38281	no	n/a	n/a
926.0859375	n/a	237078	largeHSmallH	correct	congruent	0.37109	no	H	H
926.4570312	n/a	237173	responseLargeH	correct	n/a	0.37109	no	n/a	n/a
927.5273438	n/a	237447	largeTSmallH	correct	incongruent	0.41406	no	T	H
927.9414062	n/a	237553	responseLargeT	correct	n/a	0.41406	no	n/a	n/a
929.0195312	n/a	237829	largeHSmallT	correct	incongruent	0.51172	no	H	T
929.53125	n/a	237960	responseLargeH	correct	n/a	0.51172	no	n/a	n/a
930.6054688	n/a	238235	largeHSmallH	correct	congruent	0.50781	no	H	H
931.1132812	n/a	238365	responseLargeH	correct	n/a	0.50781	no	n/a	n/a
934.59375	n/a	239256	largeHSmallH	correct	congruent	0.68359	no	H	H
935.2773438	n/a	239431	responseSmallH	correct	n/a	0.68359	no	n/a	n/a
936.3398438	n/a	239703	largeHSmallT	correct	incongruent	0.54688	no	H	T
936.8867188	n/a	239843	responseSmallT	correct	n/a	0.54688	no	n/a	n/a
937.953125	n/a	240116	largeHSmallH	correct	congruent	0.38281	no	H	H
938.3359375	n/a	240214	responseSmallH	correct	n/a	0.38281	no	n/a	n/a
939.40625	n/a	240488	largeHSmallT	correct	incongruent	0.375	no	H	T
939.78125	n/a	240584	responseSmallT	correct	n/a	0.375	no	n/a	n/a
940.8476562	n/a	240857	largeHSmallH	correct	congruent	0.37891	no	H	H
941.2265625	n/a	240954	responseSmallH	correct	n/a	0.37891	no	n/a	n/a
942.2851562	n/a	241225	largeTSmallH	correct	incongruent	0.44922	no	T	H
942.734375	n/a	241340	responseSmallH	correct	n/a	0.44922	no	n/a	n/a
943.8085938	n/a	241615	largeHSmallT	correct	incongruent	0.48828	no	H	T
944.296875	n/a	241740	responseSmallT	correct	n/a	0.48828	no	n/a	n/a
945.3671875	n/a	242014	largeTSmallH	correct	incongruent	0.42578	no	T	H
945.7929688	n/a	242123	responseSmallH	correct	n/a	0.42578	no	n/a	n/a
946.859375	n/a	242396	largeTSmallT	correct	congruent	0.48828	no	T	T
947.3476562	n/a	242521	responseSmallT	correct	n/a	0.48828	no	n/a	n/a
948.421875	n/a	242796	largeHSmallH	correct	congruent	0.45703	no	H	H
948.8789062	n/a	242913	responseSmallH	correct	n/a	0.45703	no	n/a	n/a
949.953125	n/a	243188	largeHSmallH	correct	congruent	0.41406	no	H	H
950.3671875	n/a	243294	responseSmallH	correct	n/a	0.41406	no	n/a	n/a
951.4335938	n/a	243567	largeHSmallH	correct	congruent	0.36719	no	H	H
951.8007812	n/a	243661	responseSmallH	correct	n/a	0.36719	no	n/a	n/a
952.859375	n/a	243932	largeHSmallT	correct	incongruent	0.48047	no	H	T
953.3398438	n/a	244055	responseSmallT	correct	n/a	0.48047	no	n/a	n/a
954.40625	n/a	244328	largeTSmallT	correct	congruent	0.36719	no	T	T
954.7734375	n/a	244422	responseSmallT	correct	n/a	0.36719	no	n/a	n/a
955.8476562	n/a	244697	largeHSmallT	error	incongruent	0.53906	no	H	T
956.3867188	n/a	244835	responseSmallH	error	n/a	0.53906	no	n/a	n/a
957.4453125	n/a	245106	largeTSmallT	correct	congruent	0.37891	no	T	T
957.8242188	n/a	245203	responseSmallT	correct	n/a	0.37891	no	n/a	n/a
958.8867188	n/a	245475	largeHSmallH	correct	congruent	0.51953	no	H	H
959.40625	n/a	245608	responseSmallH	correct	n/a	0.51953	no	n/a	n/a
960.4726562	n/a	245881	largeTSmallH	correct	incongruent	0.51172	no	T	H
960.984375	n/a	246012	responseSmallH	correct	n/a	0.51172	no	n/a	n/a
962.0585938	n/a	246287	largeTSmallH	correct	incongruent	0.37109	no	T	H
962.4296875	n/a	246382	responseSmallH	correct	n/a	0.37109	no	n/a	n/a
963.5	n/a	246656	largeTSmallH	correct	incongruent	0.35938	no	T	H
963.859375	n/a	246748	responseSmallH	correct	n/a	0.35938	no	n/a	n/a
964.9257812	n/a	247021	largeHSmallT	correct	incongruent	0.45703	no	H	T
965.3828125	n/a	247138	responseSmallT	correct	n/a	0.45703	no	n/a	n/a
966.4609375	n/a	247414	largeTSmallH	correct	incongruent	0.48828	no	T	H
966.9492188	n/a	247539	responseSmallH	correct	n/a	0.48828	no	n/a	n/a
968.0078125	n/a	247810	largeTSmallT	correct	congruent	0.42188	no	T	T
968.4296875	n/a	247918	responseSmallT	correct	n/a	0.42188	no	n/a	n/a
969.5	n/a	248192	largeHSmallH	correct	congruent	0.36328	no	H	H
969.8632812	n/a	248285	responseSmallH	correct	n/a	0.36328	no	n/a	n/a
970.9257812	n/a	248557	largeTSmallT	correct	congruent	0.34766	no	T	T
971.2734375	n/a	248646	responseSmallT	correct	n/a	0.34766	no	n/a	n/a
972.3398438	n/a	248919	largeTSmallH	correct	incongruent	0.32812	no	T	H
972.6679688	n/a	249003	responseSmallH	correct	n/a	0.32812	no	n/a	n/a
973.7382812	n/a	249277	largeTSmallT	correct	congruent	0.35547	no	T	T
974.09375	n/a	249368	responseSmallT	correct	n/a	0.35547	no	n/a	n/a
975.1523438	n/a	249639	largeHSmallT	error	incongruent	0.34375	no	H	T
975.4960938	n/a	249727	responseSmallH	error	n/a	0.34375	no	n/a	n/a
976.5664062	n/a	250001	largeTSmallH	correct	incongruent	0.55469	no	T	H
977.1210938	n/a	250143	responseSmallH	correct	n/a	0.55469	no	n/a	n/a
978.1796875	n/a	250414	largeHSmallT	correct	incongruent	0.39062	no	H	T
978.5703125	n/a	250514	responseSmallT	correct	n/a	0.39062	no	n/a	n/a
979.6328125	n/a	250786	largeHSmallH	correct	congruent	0.35547	no	H	H
979.9882812	n/a	250877	responseSmallH	correct	n/a	0.35547	no	n/a	n/a
981.0585938	n/a	251151	largeTSmallH	correct	incongruent	0.51172	no	T	H
981.5703125	n/a	251282	responseSmallH	correct	n/a	0.51172	no	n/a	n/a
982.6328125	n/a	251554	largeHSmallH	correct	congruent	0.5	no	H	H
983.1328125	n/a	251682	responseSmallH	correct	n/a	0.5	no	n/a	n/a
984.2070312	n/a	251957	largeHSmallT	correct	incongruent	0.38281	no	H	T
984.5898438	n/a	252055	responseSmallT	correct	n/a	0.38281	no	n/a	n/a
985.6601562	n/a	252329	largeTSmallT	correct	congruent	0.53125	no	T	T
986.1914062	n/a	252465	responseSmallT	correct	n/a	0.53125	no	n/a	n/a
987.2578125	n/a	252738	largeHSmallH	correct	congruent	0.39844	no	H	H
987.65625	n/a	252840	responseSmallH	correct	n/a	0.39844	no	n/a	n/a
988.7265625	n/a	253114	largeTSmallT	correct	congruent	0.36719	no	T	T
989.09375	n/a	253208	responseSmallT	correct	n/a	0.36719	no	n/a	n/a
990.1679688	n/a	253483	largeHSmallH	correct	congruent	0.42969	no	H	H
990.5976562	n/a	253593	responseSmallH	correct	n/a	0.42969	no	n/a	n/a
991.6601562	n/a	253865	largeTSmallH	correct	incongruent	0.48438	no	T	H
992.1445312	n/a	253989	responseSmallH	correct	n/a	0.48438	no	n/a	n/a
993.2070312	n/a	254261	largeTSmallT	correct	congruent	0.36719	no	T	T
993.5742188	n/a	254355	responseSmallT	correct	n/a	0.36719	no	n/a	n/a
994.6445312	n/a	254629	largeHSmallH	correct	congruent	0.35547	no	H	H
995	n/a	254720	responseSmallH	correct	n/a	0.35547	no	n/a	n/a
996.0585938	n/a	254991	largeTSmallH	correct	incongruent	0.53125	no	T	H
996.5898438	n/a	255127	responseSmallH	correct	n/a	0.53125	no	n/a	n/a
997.6445312	n/a	255397	largeTSmallH	correct	incongruent	0.45312	no	T	H
998.0976562	n/a	255513	responseSmallH	correct	n/a	0.45312	no	n/a	n/a
999.1640625	n/a	255786	largeHSmallT	correct	incongruent	0.39453	no	H	T
999.5585938	n/a	255887	responseSmallT	correct	n/a	0.39453	no	n/a	n/a
1000.632812	n/a	256162	largeHSmallH	correct	congruent	0.44141	no	H	H
1001.074219	n/a	256275	responseSmallH	correct	n/a	0.44141	no	n/a	n/a
1002.152344	n/a	256551	largeTSmallH	correct	incongruent	0.37109	no	T	H
1002.523438	n/a	256646	responseSmallH	correct	n/a	0.37109	no	n/a	n/a
1003.605469	n/a	256923	largeHSmallT	correct	incongruent	0.50781	no	H	T
1004.113281	n/a	257053	responseSmallT	correct	n/a	0.50781	no	n/a	n/a
1005.164062	n/a	257322	largeHSmallT	correct	incongruent	0.5	no	H	T
1005.664062	n/a	257450	responseSmallT	correct	n/a	0.5	no	n/a	n/a
1006.726562	n/a	257722	largeHSmallH	correct	congruent	0.47266	no	H	H
1007.199219	n/a	257843	responseSmallH	correct	n/a	0.47266	no	n/a	n/a
1008.257812	n/a	258114	largeHSmallH	correct	congruent	0.40234	no	H	H
1008.660156	n/a	258217	responseSmallH	correct	n/a	0.40234	no	n/a	n/a
1009.726562	n/a	258490	largeHSmallT	correct	incongruent	0.52344	no	H	T
1010.25	n/a	258624	responseSmallT	correct	n/a	0.52344	no	n/a	n/a
1011.324219	n/a	258899	largeTSmallH	correct	incongruent	0.41406	no	T	H
1011.738281	n/a	259005	responseSmallH	correct	n/a	0.41406	no	n/a	n/a
1012.804688	n/a	259278	largeTSmallT	correct	congruent	0.42578	no	T	T
1013.230469	n/a	259387	responseSmallT	correct	n/a	0.42578	no	n/a	n/a
1014.300781	n/a	259661	largeTSmallH	correct	incongruent	0.35547	no	T	H
1014.65625	n/a	259752	responseSmallH	correct	n/a	0.35547	no	n/a	n/a
1015.710938	n/a	260022	largeTSmallT	correct	congruent	0.35547	no	T	T
1016.066406	n/a	260113	responseSmallT	correct	n/a	0.35547	no	n/a	n/a
1017.140625	n/a	260388	largeTSmallT	correct	congruent	0.49219	no	T	T
1017.632812	n/a	260514	responseSmallT	correct	n/a	0.49219	no	n/a	n/a
1018.699219	n/a	260787	largeHSmallT	correct	incongruent	0.47266	no	H	T
1019.171875	n/a	260908	responseSmallT	correct	n/a	0.47266	no	n/a	n/a
1020.246094	n/a	261183	largeTSmallH	error	incongruent	0.60547	no	T	H
1020.851562	n/a	261338	responseSmallT	error	n/a	0.60547	no	n/a	n/a
1021.910156	n/a	261609	largeHSmallT	correct	incongruent	0.45312	no	H	T
1022.363281	n/a	261725	responseSmallT	correct	n/a	0.45312	no	n/a	n/a
1023.417969	n/a	261995	largeHSmallH	correct	congruent	0.35938	no	H	H
1023.777344	n/a	262087	responseSmallH	correct	n/a	0.35938	no	n/a	n/a
1024.84375	n/a	262360	largeHSmallT	correct	incongruent	0.35547	no	H	T
1025.199219	n/a	262451	responseSmallT	correct	n/a	0.35547	no	n/a	n/a
1026.257812	n/a	262722	largeHSmallH	correct	congruent	0.38281	no	H	H
1026.640625	n/a	262820	responseSmallH	correct	n/a	0.38281	no	n/a	n/a
1027.710938	n/a	263094	largeHSmallT	correct	incongruent	0.58203	no	H	T
1028.292969	n/a	263243	responseSmallT	correct	n/a	0.58203	no	n/a	n/a
1029.351562	n/a	263514	largeTSmallH	correct	incongruent	0.42969	no	T	H
1029.78125	n/a	263624	responseSmallH	correct	n/a	0.42969	no	n/a	n/a
1030.84375	n/a	263896	largeHSmallT	correct	incongruent	0.51172	no	H	T
1031.355469	n/a	264027	responseSmallT	correct	n/a	0.51172	no	n/a	n/a
1032.433594	n/a	264303	largeTSmallH	correct	incongruent	0.35156	no	T	H
1032.785156	n/a	264393	responseSmallH	correct	n/a	0.35156	no	n/a	n/a
1033.84375	n/a	264664	largeHSmallT	correct	incongruent	0.62109	no	H	T
1034.464844	n/a	264823	responseSmallT	correct	n/a	0.62109	no	n/a	n/a
1035.523438	n/a	265094	largeHSmallH	correct	congruent	0.31641	no	H	H
1035.839844	n/a	265175	responseSmallH	correct	n/a	0.31641	no	n/a	n/a
1036.898438	n/a	265446	largeTSmallT	correct	congruent	0.40234	no	T	T
1037.300781	n/a	265549	responseSmallT	correct	n/a	0.40234	no	n/a	n/a
1038.363281	n/a	265821	largeTSmallH	correct	incongruent	0.42969	no	T	H
1038.792969	n/a	265931	responseSmallH	correct	n/a	0.42969	no	n/a	n/a
1039.859375	n/a	266204	largeTSmallH	correct	incongruent	0.58594	no	T	H
1040.445312	n/a	266354	responseSmallH	correct	n/a	0.58594	no	n/a	n/a
1041.511719	n/a	266627	largeTSmallH	correct	incongruent	0.37891	no	T	H
1041.890625	n/a	266724	responseSmallH	correct	n/a	0.37891	no	n/a	n/a
1042.953125	n/a	266996	largeTSmallH	correct	incongruent	0.375	no	T	H
1043.328125	n/a	267092	responseSmallH	correct	n/a	0.375	no	n/a	n/a
1044.390625	n/a	267364	largeTSmallT	correct	congruent	0.44141	no	T	T
1044.832031	n/a	267477	responseSmallT	correct	n/a	0.44141	no	n/a	n/a
1045.898438	n/a	267750	largeTSmallT	correct	congruent	0.50391	no	T	T
1046.402344	n/a	267879	responseSmallT	correct	n/a	0.50391	no	n/a	n/a
1047.472656	n/a	268153	largeHSmallT	correct	incongruent	0.52344	no	H	T
1047.996094	n/a	268287	responseSmallT	correct	n/a	0.52344	no	n/a	n/a
1049.058594	n/a	268559	largeTSmallT	correct	congruent	0.38672	no	T	T
1049.445312	n/a	268658	responseSmallT	correct	n/a	0.38672	no	n/a	n/a
1050.511719	n/a	268931	largeTSmallH	correct	incongruent	0.4375	no	T	H
1050.949219	n/a	269043	responseSmallH	correct	n/a	0.4375	no	n/a	n/a
1052.019531	n/a	269317	largeHSmallT	correct	incongruent	0.55859	no	H	T
1052.578125	n/a	269460	responseSmallT	correct	n/a	0.55859	no	n/a	n/a
1053.644531	n/a	269733	largeTSmallT	correct	congruent	0.46484	no	T	T
1054.109375	n/a	269852	responseSmallT	correct	n/a	0.46484	no	n/a	n/a
1055.164062	n/a	270122	largeHSmallT	correct	incongruent	0.39062	no	H	T
1055.554688	n/a	270222	responseSmallT	correct	n/a	0.39062	no	n/a	n/a
1056.617188	n/a	270494	largeTSmallH	correct	incongruent	0.57031	no	T	H
1057.1875	n/a	270640	responseSmallH	correct	n/a	0.57031	no	n/a	n/a
1058.257812	n/a	270914	largeTSmallT	correct	congruent	0.46875	no	T	T
1058.726562	n/a	271034	responseSmallT	correct	n/a	0.46875	no	n/a	n/a
1059.792969	n/a	271307	largeTSmallH	correct	incongruent	0.41797	no	T	H
1060.210938	n/a	271414	responseSmallH	correct	n/a	0.41797	no	n/a	n/a
1061.269531	n/a	271685	largeHSmallT	correct	incongruent	0.39453	no	H	T
1061.664062	n/a	271786	responseSmallT	correct	n/a	0.39453	no	n/a	n/a
1062.738281	n/a	272061	largeHSmallH	correct	congruent	0.29688	no	H	H
1063.035156	n/a	272137	responseSmallH	correct	n/a	0.29688	no	n/a	n/a
1064.109375	n/a	272412	largeHSmallT	correct	incongruent	0.41406	no	H	T
1064.523438	n/a	272518	responseSmallT	correct	n/a	0.41406	no	n/a	n/a
1065.589844	n/a	272791	largeTSmallT	correct	congruent	0.4375	no	T	T
1066.027344	n/a	272903	responseSmallT	correct	n/a	0.4375	no	n/a	n/a
1067.085938	n/a	273174	largeHSmallH	correct	congruent	0.47266	no	H	H
1067.558594	n/a	273295	responseSmallH	correct	n/a	0.47266	no	n/a	n/a
1068.617188	n/a	273566	largeTSmallT	correct	congruent	0.40625	no	T	T
1069.023438	n/a	273670	responseSmallT	correct	n/a	0.40625	no	n/a	n/a
1070.085938	n/a	273942	largeHSmallT	correct	incongruent	0.49219	no	H	T
1070.578125	n/a	274068	responseSmallT	correct	n/a	0.49219	no	n/a	n/a
1071.644531	n/a	274341	largeTSmallT	correct	congruent	0.45312	no	T	T
1072.097656	n/a	274457	responseSmallT	correct	n/a	0.45312	no	n/a	n/a
1073.152344	n/a	274727	largeHSmallT	correct	incongruent	0.45703	no	H	T
1073.609375	n/a	274844	responseSmallT	correct	n/a	0.45703	no	n/a	n/a
1074.671875	n/a	275116	largeTSmallT	correct	congruent	0.36719	no	T	T
1075.039062	n/a	275210	responseSmallT	correct	n/a	0.36719	no	n/a	n/a
1076.109375	n/a	275484	largeHSmallH	correct	congruent	0.43359	no	H	H
1076.542969	n/a	275595	responseSmallH	correct	n/a	0.43359	no	n/a	n/a
1077.605469	n/a	275867	largeTSmallT	correct	congruent	0.42969	no	T	T
1078.035156	n/a	275977	responseSmallT	correct	n/a	0.42969	no	n/a	n/a
1079.097656	n/a	276249	largeHSmallH	correct	congruent	0.30859	no	H	H
1079.40625	n/a	276328	responseSmallH	correct	n/a	0.30859	no	n/a	n/a
1080.46875	n/a	276600	largeTSmallH	correct	incongruent	0.5	no	T	H
1080.96875	n/a	276728	responseSmallH	correct	n/a	0.5	no	n/a	n/a
1082.03125	n/a	277000	largeTSmallH	correct	incongruent	0.50391	no	T	H
1082.535156	n/a	277129	responseSmallH	correct	n/a	0.50391	no	n/a	n/a
1083.617188	n/a	277406	largeTSmallT	correct	congruent	0.44141	no	T	T
1084.058594	n/a	277519	responseSmallT	correct	n/a	0.44141	no	n/a	n/a
1085.125	n/a	277792	largeTSmallH	correct	incongruent	0.38672	no	T	H
1085.511719	n/a	277891	responseSmallH	correct	n/a	0.38672	no	n/a	n/a
1086.578125	n/a	278164	largeTSmallH	correct	incongruent	0.57812	no	T	H
1087.15625	n/a	278312	responseSmallH	correct	n/a	0.57812	no	n/a	n/a
1088.230469	n/a	278587	largeTSmallT	correct	congruent	0.40625	no	T	T
1088.636719	n/a	278691	responseSmallT	correct	n/a	0.40625	no	n/a	n/a
1089.710938	n/a	278966	largeTSmallH	correct	incongruent	0.38672	no	T	H
1090.097656	n/a	279065	responseSmallH	correct	n/a	0.38672	no	n/a	n/a
1091.164062	n/a	279338	largeHSmallH	correct	congruent	0.51953	no	H	H
1091.683594	n/a	279471	responseSmallH	correct	n/a	0.51953	no	n/a	n/a
1092.75	n/a	279744	largeTSmallH	correct	incongruent	0.39453	no	T	H
1093.144531	n/a	279845	responseSmallH	correct	n/a	0.39453	no	n/a	n/a
1094.21875	n/a	280120	largeHSmallT	correct	incongruent	0.4375	no	H	T
1094.65625	n/a	280232	responseSmallT	correct	n/a	0.4375	no	n/a	n/a
1095.710938	n/a	280502	largeTSmallT	correct	congruent	0.49609	no	T	T
1096.207031	n/a	280629	responseSmallT	correct	n/a	0.49609	no	n/a	n/a
1097.269531	n/a	280901	largeTSmallH	correct	incongruent	0.47266	no	T	H
1097.742188	n/a	281022	responseSmallH	correct	n/a	0.47266	no	n/a	n/a
1098.804688	n/a	281294	largeHSmallH	correct	congruent	0.51562	no	H	H
1099.320312	n/a	281426	responseSmallH	correct	n/a	0.51562	no	n/a	n/a
1100.390625	n/a	281700	largeHSmallH	correct	congruent	0.50391	no	H	H
1100.894531	n/a	281829	responseSmallH	correct	n/a	0.50391	no	n/a	n/a
1101.949219	n/a	282099	largeHSmallT	correct	incongruent	0.48047	no	H	T
1102.429688	n/a	282222	responseSmallT	correct	n/a	0.48047	no	n/a	n/a
1103.496094	n/a	282495	largeHSmallT	correct	incongruent	0.40625	no	H	T
1103.902344	n/a	282599	responseSmallT	correct	n/a	0.40625	no	n/a	n/a
1104.964844	n/a	282871	largeTSmallH	correct	incongruent	0.46875	no	T	H
1105.433594	n/a	282991	responseSmallH	correct	n/a	0.46875	no	n/a	n/a
1106.496094	n/a	283263	largeTSmallH	correct	incongruent	0.41016	no	T	H
1106.90625	n/a	283368	responseSmallH	correct	n/a	0.41016	no	n/a	n/a
1107.976562	n/a	283642	largeTSmallT	correct	congruent	0.41016	no	T	T
1108.386719	n/a	283747	responseSmallT	correct	n/a	0.41016	no	n/a	n/a
1109.457031	n/a	284021	largeHSmallH	correct	congruent	0.44531	no	H	H
1109.902344	n/a	284135	responseSmallH	correct	n/a	0.44531	no	n/a	n/a
1110.976562	n/a	284410	largeTSmallT	correct	congruent	0.36328	no	T	T
1111.339844	n/a	284503	responseSmallT	correct	n/a	0.36328	no	n/a	n/a
1112.402344	n/a	284775	largeHSmallH	correct	congruent	0.36328	no	H	H
1112.765625	n/a	284868	responseSmallH	correct	n/a	0.36328	no	n/a	n/a
1113.828125	n/a	285140	largeTSmallH	correct	incongruent	0.51953	no	T	H
1114.347656	n/a	285273	responseSmallH	correct	n/a	0.51953	no	n/a	n/a
1115.417969	n/a	285547	largeTSmallH	correct	incongruent	0.53516	no	T	H
1115.953125	n/a	285684	responseSmallH	correct	n/a	0.53516	no	n/a	n/a
1117.03125	n/a	285960	largeHSmallH	error	congruent	0.4375	no	H	H
1117.46875	n/a	286072	responseSmallT	error	n/a	0.4375	no	n/a	n/a
1118.535156	n/a	286345	largeTSmallH	error	incongruent	0.35156	no	T	H
1118.886719	n/a	286435	responseSmallT	error	n/a	0.35156	no	n/a	n/a
1119.964844	n/a	286711	largeHSmallH	correct	congruent	0.44922	no	H	H
1120.414062	n/a	286826	responseSmallH	correct	n/a	0.44922	no	n/a	n/a
1121.484375	n/a	287100	largeHSmallH	correct	congruent	0.36328	no	H	H
1121.847656	n/a	287193	responseSmallH	correct	n/a	0.36328	no	n/a	n/a
1122.910156	n/a	287465	largeHSmallT	correct	incongruent	0.55078	no	H	T
1123.460938	n/a	287606	responseSmallT	correct	n/a	0.55078	no	n/a	n/a
1124.523438	n/a	287878	largeHSmallT	correct	incongruent	0.38281	no	H	T
1124.90625	n/a	287976	responseSmallT	correct	n/a	0.38281	no	n/a	n/a
1125.964844	n/a	288247	largeTSmallT	correct	congruent	0.55859	no	T	T
1126.523438	n/a	288390	responseSmallT	correct	n/a	0.55859	no	n/a	n/a
1127.589844	n/a	288663	largeHSmallH	correct	congruent	0.39844	no	H	H
1127.988281	n/a	288765	responseSmallH	correct	n/a	0.39844	no	n/a	n/a
1129.054688	n/a	289038	largeTSmallT	correct	congruent	0.73828	no	T	T
1129.792969	n/a	289227	responseSmallT	correct	n/a	0.73828	no	n/a	n/a
1130.871094	n/a	289503	largeTSmallH	correct	incongruent	0.4375	no	T	H
1131.308594	n/a	289615	responseSmallH	correct	n/a	0.4375	no	n/a	n/a
1132.375	n/a	289888	largeHSmallH	correct	congruent	0.42969	no	H	H
1132.804688	n/a	289998	responseSmallH	correct	n/a	0.42969	no	n/a	n/a
1133.871094	n/a	290271	largeTSmallT	correct	congruent	0.4375	no	T	T
1134.308594	n/a	290383	responseSmallT	correct	n/a	0.4375	no	n/a	n/a
