onset	duration	sample	value	response_type	congruence	response_time	response_out_of_range	largeletter	smallletter
12.921875	n/a	3308	largeHSmallT	correct	incongruent	1.0664	no	H	T
13.98828125	n/a	3581	responseLargeH	correct	n/a	1.0664	no	n/a	n/a
15.0703125	n/a	3858	largeTSmallT	correct	congruent	0.51953	no	T	T
15.58984375	n/a	3991	responseLargeT	correct	n/a	0.51953	no	n/a	n/a
16.65625	n/a	4264	largeTSmallT	correct	congruent	0.44922	no	T	T
17.10546875	n/a	4379	responseLargeT	correct	n/a	0.44922	no	n/a	n/a
18.17578125	n/a	4653	largeHSmallT	correct	incongruent	0.46094	no	H	T
18.63671875	n/a	4771	responseLargeH	correct	n/a	0.46094	no	n/a	n/a
19.70703125	n/a	5045	largeTSmallH	error	incongruent	0.48047	no	T	H
20.1875	n/a	5168	responseLargeH	error	n/a	0.48047	no	n/a	n/a
21.25390625	n/a	5441	largeTSmallH	correct	incongruent	0.59375	no	T	H
21.84765625	n/a	5593	responseLargeT	correct	n/a	0.59375	no	n/a	n/a
22.921875	n/a	5868	largeTSmallH	error	incongruent	0.52734	no	T	H
23.44921875	n/a	6003	responseLargeH	error	n/a	0.52734	no	n/a	n/a
24.5078125	n/a	6274	largeTSmallH	correct	incongruent	0.73438	no	T	H
25.2421875	n/a	6462	responseLargeT	correct	n/a	0.73438	no	n/a	n/a
26.30859375	n/a	6735	largeHSmallT	correct	incongruent	0.55859	no	H	T
26.8671875	n/a	6878	responseLargeH	correct	n/a	0.55859	no	n/a	n/a
27.93359375	n/a	7151	largeHSmallT	correct	incongruent	0.79688	no	H	T
28.73046875	n/a	7355	responseLargeH	correct	n/a	0.79688	no	n/a	n/a
29.80078125	n/a	7629	largeHSmallH	correct	congruent	0.77734	no	H	H
30.578125	n/a	7828	responseLargeH	correct	n/a	0.77734	no	n/a	n/a
31.640625	n/a	8100	largeTSmallT	correct	congruent	0.45703	no	T	T
32.09765625	n/a	8217	responseLargeT	correct	n/a	0.45703	no	n/a	n/a
33.17578125	n/a	8493	largeHSmallT	correct	incongruent	0.56641	no	H	T
33.7421875	n/a	8638	responseLargeH	correct	n/a	0.56641	no	n/a	n/a
34.81640625	n/a	8913	largeTSmallH	correct	incongruent	0.5	no	T	H
35.31640625	n/a	9041	responseLargeT	correct	n/a	0.5	no	n/a	n/a
36.38671875	n/a	9315	largeTSmallH	correct	incongruent	0.52734	no	T	H
36.9140625	n/a	9450	responseLargeT	correct	n/a	0.52734	no	n/a	n/a
37.9765625	n/a	9722	largeHSmallT	correct	incongruent	0.42578	no	H	T
38.40234375	n/a	9831	responseLargeH	correct	n/a	0.42578	no	n/a	n/a
39.46875	n/a	10104	largeHSmallT	correct	incongruent	0.44141	no	H	T
39.91015625	n/a	10217	responseLargeH	correct	n/a	0.44141	no	n/a	n/a
40.9765625	n/a	10490	largeHSmallT	correct	incongruent	0.41406	no	H	T
41.390625	n/a	10596	responseLargeH	correct	n/a	0.41406	no	n/a	n/a
42.453125	n/a	10868	largeHSmallH	correct	congruent	0.39453	no	H	H
42.84765625	n/a	10969	responseLargeH	correct	n/a	0.39453	no	n/a	n/a
43.921875	n/a	11244	largeTSmallH	correct	incongruent	0.41406	no	T	H
44.3359375	n/a	11350	responseLargeT	correct	n/a	0.41406	no	n/a	n/a
45.40234375	n/a	11623	largeTSmallH	correct	incongruent	0.37891	no	T	H
45.78125	n/a	11720	responseLargeT	correct	n/a	0.37891	no	n/a	n/a
46.85546875	n/a	11995	largeHSmallT	correct	incongruent	0.45312	no	H	T
47.30859375	n/a	12111	responseLargeH	correct	n/a	0.45312	no	n/a	n/a
48.375	n/a	12384	largeHSmallH	correct	congruent	0.46875	no	H	H
48.84375	n/a	12504	responseLargeH	correct	n/a	0.46875	no	n/a	n/a
49.90625	n/a	12776	largeHSmallH	correct	congruent	0.36719	no	H	H
50.2734375	n/a	12870	responseLargeH	correct	n/a	0.36719	no	n/a	n/a
51.34765625	n/a	13145	largeTSmallT	correct	congruent	0.47656	no	T	T
51.82421875	n/a	13267	responseLargeT	correct	n/a	0.47656	no	n/a	n/a
52.89453125	n/a	13541	largeTSmallT	correct	congruent	0.48438	no	T	T
53.37890625	n/a	13665	responseLargeT	correct	n/a	0.48438	no	n/a	n/a
54.453125	n/a	13940	largeTSmallH	correct	incongruent	0.64844	no	T	H
55.1015625	n/a	14106	responseLargeT	correct	n/a	0.64844	no	n/a	n/a
56.16015625	n/a	14377	largeHSmallH	correct	congruent	0.44531	no	H	H
56.60546875	n/a	14491	responseLargeH	correct	n/a	0.44531	no	n/a	n/a
57.6796875	n/a	14766	largeHSmallT	correct	incongruent	0.55078	no	H	T
58.23046875	n/a	14907	responseLargeH	correct	n/a	0.55078	no	n/a	n/a
59.30859375	n/a	15183	largeHSmallT	correct	incongruent	0.57031	no	H	T
59.87890625	n/a	15329	responseLargeH	correct	n/a	0.57031	no	n/a	n/a
60.9609375	n/a	15606	largeTSmallH	correct	incongruent	0.47266	no	T	H
61.43359375	n/a	15727	responseLargeT	correct	n/a	0.47266	no	n/a	n/a
62.49609375	n/a	15999	largeTSmallH	correct	incongruent	0.40234	no	T	H
62.8984375	n/a	16102	responseLargeT	correct	n/a	0.40234	no	n/a	n/a
63.9609375	n/a	16374	largeTSmallT	correct	congruent	0.34375	no	T	T
64.3046875	n/a	16462	responseLargeT	correct	n/a	0.34375	no	n/a	n/a
65.375	n/a	16736	largeHSmallH	correct	congruent	0.44141	no	H	H
65.81640625	n/a	16849	responseLargeH	correct	n/a	0.44141	no	n/a	n/a
66.8828125	n/a	17122	largeTSmallH	correct	incongruent	0.48047	no	T	H
67.36328125	n/a	17245	responseLargeT	correct	n/a	0.48047	no	n/a	n/a
68.42578125	n/a	17517	largeTSmallT	correct	congruent	0.45703	no	T	T
68.8828125	n/a	17634	responseLargeT	correct	n/a	0.45703	no	n/a	n/a
69.9609375	n/a	17910	largeHSmallH	correct	congruent	0.42188	no	H	H
70.3828125	n/a	18018	responseLargeH	correct	n/a	0.42188	no	n/a	n/a
71.453125	n/a	18292	largeHSmallH	correct	congruent	0.375	no	H	H
71.828125	n/a	18388	responseLargeH	correct	n/a	0.375	no	n/a	n/a
72.89453125	n/a	18661	largeTSmallT	correct	congruent	0.47266	no	T	T
73.3671875	n/a	18782	responseLargeT	correct	n/a	0.47266	no	n/a	n/a
74.42578125	n/a	19053	largeHSmallT	correct	incongruent	0.37109	no	H	T
74.796875	n/a	19148	responseLargeH	correct	n/a	0.37109	no	n/a	n/a
75.8671875	n/a	19422	largeHSmallT	correct	incongruent	0.51953	no	H	T
76.38671875	n/a	19555	responseLargeH	correct	n/a	0.51953	no	n/a	n/a
77.453125	n/a	19828	largeHSmallH	correct	congruent	0.39844	no	H	H
77.8515625	n/a	19930	responseLargeH	correct	n/a	0.39844	no	n/a	n/a
78.90625	n/a	20200	largeTSmallH	correct	incongruent	0.44531	no	T	H
79.3515625	n/a	20314	responseLargeT	correct	n/a	0.44531	no	n/a	n/a
80.42578125	n/a	20589	largeHSmallH	error	congruent	0.45703	no	H	H
80.8828125	n/a	20706	responseLargeT	error	n/a	0.45703	no	n/a	n/a
81.9453125	n/a	20978	largeTSmallT	correct	congruent	0.36719	no	T	T
82.3125	n/a	21072	responseLargeT	correct	n/a	0.36719	no	n/a	n/a
83.375	n/a	21344	largeHSmallH	correct	congruent	0.44141	no	H	H
83.81640625	n/a	21457	responseLargeH	correct	n/a	0.44141	no	n/a	n/a
84.89453125	n/a	21733	largeHSmallT	correct	incongruent	0.53516	no	H	T
85.4296875	n/a	21870	responseLargeH	correct	n/a	0.53516	no	n/a	n/a
86.4921875	n/a	22142	largeTSmallT	correct	congruent	0.42578	no	T	T
86.91796875	n/a	22251	responseLargeT	correct	n/a	0.42578	no	n/a	n/a
87.98828125	n/a	22525	largeTSmallT	correct	congruent	0.43359	no	T	T
88.421875	n/a	22636	responseLargeT	correct	n/a	0.43359	no	n/a	n/a
89.4921875	n/a	22910	largeTSmallH	correct	incongruent	0.78906	no	T	H
90.28125	n/a	23112	responseLargeT	correct	n/a	0.78906	no	n/a	n/a
91.34765625	n/a	23385	largeTSmallT	correct	congruent	0.39844	no	T	T
91.74609375	n/a	23487	responseLargeT	correct	n/a	0.39844	no	n/a	n/a
92.8125	n/a	23760	largeTSmallH	correct	incongruent	0.48047	no	T	H
93.29296875	n/a	23883	responseLargeT	correct	n/a	0.48047	no	n/a	n/a
94.359375	n/a	24156	largeTSmallT	correct	congruent	0.46094	no	T	T
94.8203125	n/a	24274	responseLargeT	correct	n/a	0.46094	no	n/a	n/a
95.87890625	n/a	24545	largeHSmallT	correct	incongruent	0.40234	no	H	T
96.28125	n/a	24648	responseLargeH	correct	n/a	0.40234	no	n/a	n/a
97.34765625	n/a	24921	largeTSmallH	correct	incongruent	0.53125	no	T	H
97.87890625	n/a	25057	responseLargeT	correct	n/a	0.53125	no	n/a	n/a
98.9453125	n/a	25330	largeTSmallH	correct	incongruent	0.46094	no	T	H
99.40625	n/a	25448	responseLargeT	correct	n/a	0.46094	no	n/a	n/a
100.46875	n/a	25720	largeHSmallH	correct	congruent	0.42969	no	H	H
100.8984375	n/a	25830	responseLargeH	correct	n/a	0.42969	no	n/a	n/a
101.9726562	n/a	26105	largeHSmallH	correct	congruent	0.49219	no	H	H
102.4648438	n/a	26231	responseLargeH	correct	n/a	0.49219	no	n/a	n/a
103.5195312	n/a	26501	largeTSmallH	correct	incongruent	0.50391	no	T	H
104.0234375	n/a	26630	responseLargeT	correct	n/a	0.50391	no	n/a	n/a
105.078125	n/a	26900	largeTSmallT	correct	congruent	0.30469	no	T	T
105.3828125	n/a	26978	responseLargeT	correct	n/a	0.30469	no	n/a	n/a
106.4414062	n/a	27249	largeHSmallT	correct	incongruent	0.46484	no	H	T
106.90625	n/a	27368	responseLargeH	correct	n/a	0.46484	no	n/a	n/a
107.9726562	n/a	27641	largeTSmallH	correct	incongruent	0.42969	no	T	H
108.4023438	n/a	27751	responseLargeT	correct	n/a	0.42969	no	n/a	n/a
109.4648438	n/a	28023	largeHSmallH	correct	congruent	0.40234	no	H	H
109.8671875	n/a	28126	responseLargeH	correct	n/a	0.40234	no	n/a	n/a
110.9335938	n/a	28399	largeTSmallT	correct	congruent	0.33203	no	T	T
111.265625	n/a	28484	responseLargeT	correct	n/a	0.33203	no	n/a	n/a
112.3320312	n/a	28757	largeHSmallH	correct	congruent	0.32031	no	H	H
112.6523438	n/a	28839	responseLargeH	correct	n/a	0.32031	no	n/a	n/a
113.71875	n/a	29112	largeHSmallT	error	incongruent	0.30469	no	H	T
114.0234375	n/a	29190	responseLargeT	error	n/a	0.30469	no	n/a	n/a
115.09375	n/a	29464	largeTSmallT	correct	congruent	0.48828	no	T	T
115.5820312	n/a	29589	responseLargeT	correct	n/a	0.48828	no	n/a	n/a
116.6523438	n/a	29863	largeTSmallH	correct	incongruent	0.34766	no	T	H
117	n/a	29952	responseLargeT	correct	n/a	0.34766	no	n/a	n/a
118.0664062	n/a	30225	largeHSmallH	correct	congruent	0.42578	no	H	H
118.4921875	n/a	30334	responseLargeH	correct	n/a	0.42578	no	n/a	n/a
119.5585938	n/a	30607	largeHSmallH	correct	congruent	0.42969	no	H	H
119.9882812	n/a	30717	responseLargeH	correct	n/a	0.42969	no	n/a	n/a
121.0664062	n/a	30993	largeTSmallT	correct	congruent	0.46875	no	T	T
121.5351562	n/a	31113	responseLargeT	correct	n/a	0.46875	no	n/a	n/a
122.6015625	n/a	31386	largeTSmallT	correct	congruent	0.44922	no	T	T
123.0507812	n/a	31501	responseLargeT	correct	n/a	0.44922	no	n/a	n/a
124.1210938	n/a	31775	largeHSmallH	correct	congruent	0.40234	no	H	H
124.5234375	n/a	31878	responseLargeH	correct	n/a	0.40234	no	n/a	n/a
125.5859375	n/a	32150	largeHSmallH	correct	congruent	0.44531	no	H	H
126.03125	n/a	32264	responseLargeH	correct	n/a	0.44531	no	n/a	n/a
127.09375	n/a	32536	largeTSmallH	correct	incongruent	0.48047	no	T	H
127.5742188	n/a	32659	responseLargeT	correct	n/a	0.48047	no	n/a	n/a
128.640625	n/a	32932	largeTSmallH	error	incongruent	0.39453	no	T	H
129.0351562	n/a	33033	responseLargeH	error	n/a	0.39453	no	n/a	n/a
130.1054688	n/a	33307	largeHSmallT	correct	incongruent	0.47656	no	H	T
130.5820312	n/a	33429	responseLargeH	correct	n/a	0.47656	no	n/a	n/a
131.6523438	n/a	33703	largeTSmallT	correct	congruent	0.39844	no	T	T
132.0507812	n/a	33805	responseLargeT	correct	n/a	0.39844	no	n/a	n/a
133.1210938	n/a	34079	largeTSmallT	correct	congruent	0.43359	no	T	T
133.5546875	n/a	34190	responseLargeT	correct	n/a	0.43359	no	n/a	n/a
134.6132812	n/a	34461	largeTSmallT	correct	congruent	0.34766	no	T	T
134.9609375	n/a	34550	responseLargeT	correct	n/a	0.34766	no	n/a	n/a
136.0273438	n/a	34823	largeTSmallH	correct	incongruent	0.33984	no	T	H
136.3671875	n/a	34910	responseLargeT	correct	n/a	0.33984	no	n/a	n/a
137.4375	n/a	35184	largeHSmallT	correct	incongruent	0.50781	no	H	T
137.9453125	n/a	35314	responseLargeH	correct	n/a	0.50781	no	n/a	n/a
139.0117188	n/a	35587	largeTSmallH	correct	incongruent	0.46094	no	T	H
139.4726562	n/a	35705	responseLargeT	correct	n/a	0.46094	no	n/a	n/a
140.546875	n/a	35980	largeHSmallT	correct	incongruent	0.37109	no	H	T
140.9179688	n/a	36075	responseLargeH	correct	n/a	0.37109	no	n/a	n/a
141.984375	n/a	36348	largeHSmallT	correct	incongruent	0.51953	no	H	T
142.5039062	n/a	36481	responseLargeH	correct	n/a	0.51953	no	n/a	n/a
143.5742188	n/a	36755	largeHSmallH	correct	congruent	0.41797	no	H	H
143.9921875	n/a	36862	responseLargeH	correct	n/a	0.41797	no	n/a	n/a
145.0546875	n/a	37134	largeTSmallH	correct	incongruent	0.42578	no	T	H
145.4804688	n/a	37243	responseLargeT	correct	n/a	0.42578	no	n/a	n/a
146.5585938	n/a	37519	largeHSmallT	correct	incongruent	0.45312	no	H	T
147.0117188	n/a	37635	responseLargeH	correct	n/a	0.45312	no	n/a	n/a
148.078125	n/a	37908	largeTSmallH	correct	incongruent	0.40234	no	T	H
148.4804688	n/a	38011	responseLargeT	correct	n/a	0.40234	no	n/a	n/a
149.546875	n/a	38284	largeTSmallH	error	incongruent	0.37109	no	T	H
149.9179688	n/a	38379	responseLargeH	error	n/a	0.37109	no	n/a	n/a
150.984375	n/a	38652	largeTSmallT	correct	congruent	0.44531	no	T	T
151.4296875	n/a	38766	responseLargeT	correct	n/a	0.44531	no	n/a	n/a
152.4921875	n/a	39038	largeTSmallT	correct	congruent	0.38672	no	T	T
152.8789062	n/a	39137	responseLargeT	correct	n/a	0.38672	no	n/a	n/a
153.9453125	n/a	39410	largeHSmallT	correct	incongruent	0.42188	no	H	T
154.3671875	n/a	39518	responseLargeH	correct	n/a	0.42188	no	n/a	n/a
155.4257812	n/a	39789	largeHSmallT	correct	incongruent	0.60547	no	H	T
156.03125	n/a	39944	responseLargeH	correct	n/a	0.60547	no	n/a	n/a
157.09375	n/a	40216	largeTSmallH	correct	incongruent	0.55469	no	T	H
157.6484375	n/a	40358	responseLargeT	correct	n/a	0.55469	no	n/a	n/a
158.71875	n/a	40632	largeHSmallH	correct	congruent	0.43359	no	H	H
159.1523438	n/a	40743	responseLargeH	correct	n/a	0.43359	no	n/a	n/a
160.2109375	n/a	41014	largeHSmallT	correct	incongruent	0.45703	no	H	T
160.6679688	n/a	41131	responseLargeH	correct	n/a	0.45703	no	n/a	n/a
161.7304688	n/a	41403	largeHSmallH	correct	congruent	0.46094	no	H	H
162.1914062	n/a	41521	responseLargeH	correct	n/a	0.46094	no	n/a	n/a
163.265625	n/a	41796	largeHSmallH	correct	congruent	0.37109	no	H	H
163.6367188	n/a	41891	responseLargeH	correct	n/a	0.37109	no	n/a	n/a
164.7070312	n/a	42165	largeHSmallT	error	incongruent	0.49609	no	H	T
165.203125	n/a	42292	responseLargeT	error	n/a	0.49609	no	n/a	n/a
166.2773438	n/a	42567	largeHSmallT	correct	incongruent	0.49219	no	H	T
166.7695312	n/a	42693	responseLargeH	correct	n/a	0.49219	no	n/a	n/a
167.8398438	n/a	42967	largeTSmallT	correct	congruent	0.44141	no	T	T
168.28125	n/a	43080	responseLargeT	correct	n/a	0.44141	no	n/a	n/a
169.34375	n/a	43352	largeHSmallH	correct	congruent	0.37109	no	H	H
169.7148438	n/a	43447	responseLargeH	correct	n/a	0.37109	no	n/a	n/a
170.7851562	n/a	43721	largeTSmallT	correct	congruent	0.44531	no	T	T
171.2304688	n/a	43835	responseLargeT	correct	n/a	0.44531	no	n/a	n/a
172.2929688	n/a	44107	largeHSmallT	correct	incongruent	0.45312	no	H	T
172.7460938	n/a	44223	responseLargeH	correct	n/a	0.45312	no	n/a	n/a
173.8125	n/a	44496	largeTSmallT	correct	congruent	0.34766	no	T	T
174.1601562	n/a	44585	responseLargeT	correct	n/a	0.34766	no	n/a	n/a
175.2265625	n/a	44858	largeTSmallT	correct	congruent	0.46094	no	T	T
175.6875	n/a	44976	responseLargeT	correct	n/a	0.46094	no	n/a	n/a
176.7578125	n/a	45250	largeHSmallH	correct	congruent	0.38281	no	H	H
177.140625	n/a	45348	responseLargeH	correct	n/a	0.38281	no	n/a	n/a
178.2109375	n/a	45622	largeTSmallH	correct	incongruent	0.32422	no	T	H
178.5351562	n/a	45705	responseLargeT	correct	n/a	0.32422	no	n/a	n/a
179.6132812	n/a	45981	largeTSmallT	correct	congruent	0.46484	no	T	T
180.078125	n/a	46100	responseLargeT	correct	n/a	0.46484	no	n/a	n/a
181.1601562	n/a	46377	largeTSmallT	correct	congruent	0.35156	no	T	T
181.5117188	n/a	46467	responseLargeT	correct	n/a	0.35156	no	n/a	n/a
182.5703125	n/a	46738	largeHSmallT	correct	incongruent	0.44922	no	H	T
183.0195312	n/a	46853	responseLargeH	correct	n/a	0.44922	no	n/a	n/a
184.0898438	n/a	47127	largeTSmallH	correct	incongruent	0.51562	no	T	H
184.6054688	n/a	47259	responseLargeT	correct	n/a	0.51562	no	n/a	n/a
185.6796875	n/a	47534	largeHSmallT	correct	incongruent	0.33984	no	H	T
186.0195312	n/a	47621	responseLargeH	correct	n/a	0.33984	no	n/a	n/a
187.078125	n/a	47892	largeTSmallT	correct	congruent	0.32812	no	T	T
187.40625	n/a	47976	responseLargeT	correct	n/a	0.32812	no	n/a	n/a
188.4648438	n/a	48247	largeHSmallH	correct	congruent	0.37109	no	H	H
188.8359375	n/a	48342	responseLargeH	correct	n/a	0.37109	no	n/a	n/a
189.90625	n/a	48616	largeTSmallT	correct	congruent	0.35547	no	T	T
190.2617188	n/a	48707	responseLargeT	correct	n/a	0.35547	no	n/a	n/a
191.3203125	n/a	48978	largeTSmallH	correct	incongruent	0.51953	no	T	H
191.8398438	n/a	49111	responseLargeT	correct	n/a	0.51953	no	n/a	n/a
192.90625	n/a	49384	largeTSmallH	correct	incongruent	0.44922	no	T	H
193.3554688	n/a	49499	responseLargeT	correct	n/a	0.44922	no	n/a	n/a
194.4257812	n/a	49773	largeHSmallT	error	incongruent	0.28906	no	H	T
194.7148438	n/a	49847	responseLargeT	error	n/a	0.28906	no	n/a	n/a
195.7851562	n/a	50121	largeHSmallT	error	incongruent	0.35547	no	H	T
196.140625	n/a	50212	responseLargeT	error	n/a	0.35547	no	n/a	n/a
197.2109375	n/a	50486	largeHSmallT	correct	incongruent	0.60938	no	H	T
197.8203125	n/a	50642	responseLargeH	correct	n/a	0.60938	no	n/a	n/a
198.890625	n/a	50916	largeTSmallT	correct	congruent	0.51172	no	T	T
199.4023438	n/a	51047	responseLargeT	correct	n/a	0.51172	no	n/a	n/a
200.4648438	n/a	51319	largeHSmallH	correct	congruent	0.35156	no	H	H
200.8164062	n/a	51409	responseLargeH	correct	n/a	0.35156	no	n/a	n/a
201.890625	n/a	51684	largeHSmallT	correct	incongruent	0.46875	no	H	T
202.359375	n/a	51804	responseLargeH	correct	n/a	0.46875	no	n/a	n/a
203.4375	n/a	52080	largeTSmallH	correct	incongruent	0.44141	no	T	H
203.8789062	n/a	52193	responseLargeT	correct	n/a	0.44141	no	n/a	n/a
204.9453125	n/a	52466	largeTSmallH	correct	incongruent	0.51562	no	T	H
205.4609375	n/a	52598	responseLargeT	correct	n/a	0.51562	no	n/a	n/a
206.53125	n/a	52872	largeTSmallT	correct	congruent	0.35938	no	T	T
206.890625	n/a	52964	responseLargeT	correct	n/a	0.35938	no	n/a	n/a
207.9570312	n/a	53237	largeHSmallH	correct	congruent	0.42578	no	H	H
208.3828125	n/a	53346	responseLargeH	correct	n/a	0.42578	no	n/a	n/a
209.453125	n/a	53620	largeHSmallH	correct	congruent	0.49609	no	H	H
209.9492188	n/a	53747	responseLargeH	correct	n/a	0.49609	no	n/a	n/a
211.0117188	n/a	54019	largeTSmallT	correct	congruent	0.4375	no	T	T
211.4492188	n/a	54131	responseLargeT	correct	n/a	0.4375	no	n/a	n/a
212.53125	n/a	54408	largeHSmallH	correct	congruent	0.37109	no	H	H
212.9023438	n/a	54503	responseLargeH	correct	n/a	0.37109	no	n/a	n/a
213.9726562	n/a	54777	largeTSmallH	error	incongruent	0.55078	no	T	H
214.5234375	n/a	54918	responseLargeH	error	n/a	0.55078	no	n/a	n/a
215.5976562	n/a	55193	largeHSmallT	correct	incongruent	0.56641	no	H	T
216.1640625	n/a	55338	responseLargeH	correct	n/a	0.56641	no	n/a	n/a
217.2382812	n/a	55613	largeTSmallH	correct	incongruent	0.38281	no	T	H
217.6210938	n/a	55711	responseLargeT	correct	n/a	0.38281	no	n/a	n/a
218.6914062	n/a	55985	largeHSmallH	correct	congruent	0.36328	no	H	H
219.0546875	n/a	56078	responseLargeH	correct	n/a	0.36328	no	n/a	n/a
220.1171875	n/a	56350	largeHSmallT	correct	incongruent	0.57812	no	H	T
220.6953125	n/a	56498	responseLargeH	correct	n/a	0.57812	no	n/a	n/a
221.7578125	n/a	56770	largeTSmallH	correct	incongruent	0.44531	no	T	H
222.203125	n/a	56884	responseLargeT	correct	n/a	0.44531	no	n/a	n/a
223.2773438	n/a	57159	largeHSmallH	correct	congruent	0.33203	no	H	H
223.609375	n/a	57244	responseLargeH	correct	n/a	0.33203	no	n/a	n/a
224.6757812	n/a	57517	largeTSmallT	correct	congruent	0.33594	no	T	T
225.0117188	n/a	57603	responseLargeT	correct	n/a	0.33594	no	n/a	n/a
226.078125	n/a	57876	largeTSmallH	error	incongruent	0.30469	no	T	H
226.3828125	n/a	57954	responseLargeH	error	n/a	0.30469	no	n/a	n/a
227.4492188	n/a	58227	largeTSmallH	correct	incongruent	0.47266	no	T	H
227.921875	n/a	58348	responseLargeT	correct	n/a	0.47266	no	n/a	n/a
228.984375	n/a	58620	largeHSmallT	correct	incongruent	0.49609	no	H	T
229.4804688	n/a	58747	responseLargeH	correct	n/a	0.49609	no	n/a	n/a
230.5429688	n/a	59019	largeHSmallT	error	incongruent	0.52344	no	H	T
231.0664062	n/a	59153	responseLargeT	error	n/a	0.52344	no	n/a	n/a
232.1289062	n/a	59425	largeHSmallH	correct	congruent	0.48047	no	H	H
232.609375	n/a	59548	responseLargeH	correct	n/a	0.48047	no	n/a	n/a
233.6757812	n/a	59821	largeTSmallT	correct	congruent	0.41797	no	T	T
234.09375	n/a	59928	responseLargeT	correct	n/a	0.41797	no	n/a	n/a
235.15625	n/a	60200	largeTSmallT	correct	congruent	0.44141	no	T	T
235.5976562	n/a	60313	responseLargeT	correct	n/a	0.44141	no	n/a	n/a
236.6640625	n/a	60586	largeTSmallT	correct	congruent	0.36328	no	T	T
237.0273438	n/a	60679	responseLargeT	correct	n/a	0.36328	no	n/a	n/a
238.0898438	n/a	60951	largeHSmallH	correct	congruent	0.42188	no	H	H
238.5117188	n/a	61059	responseLargeH	correct	n/a	0.42188	no	n/a	n/a
239.5703125	n/a	61330	largeTSmallT	correct	congruent	0.44531	no	T	T
240.015625	n/a	61444	responseLargeT	correct	n/a	0.44531	no	n/a	n/a
241.0898438	n/a	61719	largeTSmallT	correct	congruent	0.47656	no	T	T
241.5664062	n/a	61841	responseLargeT	correct	n/a	0.47656	no	n/a	n/a
242.6367188	n/a	62115	largeTSmallT	correct	congruent	0.47266	no	T	T
243.109375	n/a	62236	responseLargeT	correct	n/a	0.47266	no	n/a	n/a
244.171875	n/a	62508	largeHSmallH	correct	congruent	0.44531	no	H	H
244.6171875	n/a	62622	responseLargeH	correct	n/a	0.44531	no	n/a	n/a
245.6914062	n/a	62897	largeHSmallH	correct	congruent	0.49609	no	H	H
246.1875	n/a	63024	responseLargeH	correct	n/a	0.49609	no	n/a	n/a
247.25	n/a	63296	largeTSmallH	correct	incongruent	0.49609	no	T	H
247.7460938	n/a	63423	responseLargeT	correct	n/a	0.49609	no	n/a	n/a
248.8085938	n/a	63695	largeTSmallT	correct	congruent	0.42969	no	T	T
249.2382812	n/a	63805	responseLargeT	correct	n/a	0.42969	no	n/a	n/a
250.3046875	n/a	64078	largeHSmallH	correct	congruent	0.44531	no	H	H
250.75	n/a	64192	responseLargeH	correct	n/a	0.44531	no	n/a	n/a
251.8242188	n/a	64467	largeHSmallT	correct	incongruent	0.46094	no	H	T
252.2851562	n/a	64585	responseLargeH	correct	n/a	0.46094	no	n/a	n/a
253.3554688	n/a	64859	largeHSmallH	correct	congruent	0.47656	no	H	H
253.8320312	n/a	64981	responseLargeH	correct	n/a	0.47656	no	n/a	n/a
254.890625	n/a	65252	largeHSmallT	correct	incongruent	0.35156	no	H	T
255.2421875	n/a	65342	responseLargeH	correct	n/a	0.35156	no	n/a	n/a
256.3164062	n/a	65617	largeTSmallT	correct	congruent	0.45312	no	T	T
256.7695312	n/a	65733	responseLargeT	correct	n/a	0.45312	no	n/a	n/a
257.8359375	n/a	66006	largeTSmallH	correct	incongruent	0.68359	no	T	H
258.5195312	n/a	66181	responseLargeT	correct	n/a	0.68359	no	n/a	n/a
259.5976562	n/a	66457	largeTSmallH	correct	incongruent	0.39062	no	T	H
259.9882812	n/a	66557	responseLargeT	correct	n/a	0.39062	no	n/a	n/a
261.0507812	n/a	66829	largeHSmallT	correct	incongruent	0.48438	no	H	T
261.5351562	n/a	66953	responseLargeH	correct	n/a	0.48438	no	n/a	n/a
262.5976562	n/a	67225	largeTSmallT	correct	congruent	0.55078	no	T	T
263.1484375	n/a	67366	responseLargeT	correct	n/a	0.55078	no	n/a	n/a
264.2109375	n/a	67638	largeHSmallT	correct	incongruent	0.41406	no	H	T
264.625	n/a	67744	responseLargeH	correct	n/a	0.41406	no	n/a	n/a
265.6875	n/a	68016	largeHSmallT	correct	incongruent	0.48438	no	H	T
266.171875	n/a	68140	responseLargeH	correct	n/a	0.48438	no	n/a	n/a
267.2382812	n/a	68413	largeHSmallH	correct	congruent	0.49219	no	H	H
267.7304688	n/a	68539	responseLargeH	correct	n/a	0.49219	no	n/a	n/a
268.796875	n/a	68812	largeHSmallT	correct	incongruent	0.49609	no	H	T
269.2929688	n/a	68939	responseLargeH	correct	n/a	0.49609	no	n/a	n/a
270.3554688	n/a	69211	largeTSmallH	correct	incongruent	0.47656	no	T	H
270.8320312	n/a	69333	responseLargeT	correct	n/a	0.47656	no	n/a	n/a
271.9023438	n/a	69607	largeHSmallH	correct	congruent	0.40234	no	H	H
272.3046875	n/a	69710	responseLargeH	correct	n/a	0.40234	no	n/a	n/a
273.3710938	n/a	69983	largeHSmallT	correct	incongruent	0.54688	no	H	T
273.9179688	n/a	70123	responseLargeH	correct	n/a	0.54688	no	n/a	n/a
274.984375	n/a	70396	largeHSmallT	correct	incongruent	0.38281	no	H	T
275.3671875	n/a	70494	responseLargeH	correct	n/a	0.38281	no	n/a	n/a
276.4375	n/a	70768	largeHSmallT	correct	incongruent	0.44141	no	H	T
276.8789062	n/a	70881	responseLargeH	correct	n/a	0.44141	no	n/a	n/a
277.9570312	n/a	71157	largeHSmallT	correct	incongruent	0.36719	no	H	T
278.3242188	n/a	71251	responseLargeH	correct	n/a	0.36719	no	n/a	n/a
279.3828125	n/a	71522	largeHSmallH	correct	congruent	0.41016	no	H	H
279.7929688	n/a	71627	responseLargeH	correct	n/a	0.41016	no	n/a	n/a
280.8515625	n/a	71898	largeHSmallH	correct	congruent	0.37891	no	H	H
281.2304688	n/a	71995	responseLargeH	correct	n/a	0.37891	no	n/a	n/a
282.3046875	n/a	72270	largeHSmallH	correct	congruent	0.38281	no	H	H
282.6875	n/a	72368	responseLargeH	correct	n/a	0.38281	no	n/a	n/a
283.7578125	n/a	72642	largeHSmallH	correct	congruent	0.39453	no	H	H
284.1523438	n/a	72743	responseLargeH	correct	n/a	0.39453	no	n/a	n/a
285.2226562	n/a	73017	largeTSmallT	correct	congruent	0.52344	no	T	T
285.7460938	n/a	73151	responseLargeT	correct	n/a	0.52344	no	n/a	n/a
286.8085938	n/a	73423	largeTSmallT	correct	congruent	0.42578	no	T	T
287.234375	n/a	73532	responseLargeT	correct	n/a	0.42578	no	n/a	n/a
288.3164062	n/a	73809	largeTSmallH	correct	incongruent	0.45312	no	T	H
288.7695312	n/a	73925	responseLargeT	correct	n/a	0.45312	no	n/a	n/a
289.8359375	n/a	74198	largeHSmallT	correct	incongruent	0.49609	no	H	T
290.3320312	n/a	74325	responseLargeH	correct	n/a	0.49609	no	n/a	n/a
291.3945312	n/a	74597	largeTSmallH	correct	incongruent	0.41016	no	T	H
291.8046875	n/a	74702	responseLargeT	correct	n/a	0.41016	no	n/a	n/a
292.8632812	n/a	74973	largeTSmallT	correct	congruent	0.41406	no	T	T
293.2773438	n/a	75079	responseLargeT	correct	n/a	0.41406	no	n/a	n/a
294.34375	n/a	75352	largeHSmallH	correct	congruent	0.42969	no	H	H
294.7734375	n/a	75462	responseLargeH	correct	n/a	0.42969	no	n/a	n/a
295.8476562	n/a	75737	largeHSmallH	correct	congruent	0.51172	no	H	H
296.359375	n/a	75868	responseLargeH	correct	n/a	0.51172	no	n/a	n/a
297.421875	n/a	76140	largeHSmallH	correct	congruent	0.5	no	H	H
297.921875	n/a	76268	responseLargeH	correct	n/a	0.5	no	n/a	n/a
298.9960938	n/a	76543	largeTSmallT	correct	congruent	0.44922	no	T	T
299.4453125	n/a	76658	responseLargeT	correct	n/a	0.44922	no	n/a	n/a
300.5039062	n/a	76929	largeTSmallT	correct	congruent	0.40625	no	T	T
300.9101562	n/a	77033	responseLargeT	correct	n/a	0.40625	no	n/a	n/a
301.984375	n/a	77308	largeTSmallT	correct	congruent	0.41797	no	T	T
302.4023438	n/a	77415	responseLargeT	correct	n/a	0.41797	no	n/a	n/a
303.4765625	n/a	77690	largeTSmallH	correct	incongruent	0.52344	no	T	H
304	n/a	77824	responseLargeT	correct	n/a	0.52344	no	n/a	n/a
305.0625	n/a	78096	largeTSmallH	correct	incongruent	0.50391	no	T	H
305.5664062	n/a	78225	responseLargeT	correct	n/a	0.50391	no	n/a	n/a
306.6367188	n/a	78499	largeTSmallH	correct	incongruent	0.41016	no	T	H
307.046875	n/a	78604	responseLargeT	correct	n/a	0.41016	no	n/a	n/a
308.1015625	n/a	78874	largeHSmallT	correct	incongruent	0.46875	no	H	T
308.5703125	n/a	78994	responseLargeH	correct	n/a	0.46875	no	n/a	n/a
309.6367188	n/a	79267	largeTSmallH	correct	incongruent	0.49219	no	T	H
310.1289062	n/a	79393	responseLargeT	correct	n/a	0.49219	no	n/a	n/a
311.1953125	n/a	79666	largeHSmallH	correct	congruent	0.48047	no	H	H
311.6757812	n/a	79789	responseLargeH	correct	n/a	0.48047	no	n/a	n/a
312.7421875	n/a	80062	largeHSmallH	correct	congruent	0.44531	no	H	H
313.1875	n/a	80176	responseLargeH	correct	n/a	0.44531	no	n/a	n/a
314.25	n/a	80448	largeTSmallH	correct	incongruent	0.45703	no	T	H
314.7070312	n/a	80565	responseLargeT	correct	n/a	0.45703	no	n/a	n/a
315.78125	n/a	80840	largeHSmallH	correct	congruent	0.35156	no	H	H
316.1328125	n/a	80930	responseLargeH	correct	n/a	0.35156	no	n/a	n/a
320.2890625	n/a	81994	largeHSmallT	error	incongruent	0.63281	no	H	T
320.921875	n/a	82156	responseSmallH	error	n/a	0.63281	no	n/a	n/a
321.9960938	n/a	82431	largeTSmallH	correct	incongruent	1.3359	no	T	H
323.3320312	n/a	82773	responseSmallH	correct	n/a	1.3359	no	n/a	n/a
324.3945312	n/a	83045	largeTSmallH	correct	incongruent	0.58203	no	T	H
324.9765625	n/a	83194	responseSmallH	correct	n/a	0.58203	no	n/a	n/a
326.046875	n/a	83468	largeHSmallT	correct	incongruent	0.625	no	H	T
326.671875	n/a	83628	responseSmallT	correct	n/a	0.625	no	n/a	n/a
327.7304688	n/a	83899	largeHSmallH	correct	congruent	0.49219	no	H	H
328.2226562	n/a	84025	responseSmallH	correct	n/a	0.49219	no	n/a	n/a
329.2890625	n/a	84298	largeTSmallH	correct	incongruent	0.63281	no	T	H
329.921875	n/a	84460	responseSmallH	correct	n/a	0.63281	no	n/a	n/a
330.9960938	n/a	84735	largeHSmallH	correct	congruent	0.5625	no	H	H
331.5585938	n/a	84879	responseSmallH	correct	n/a	0.5625	no	n/a	n/a
332.6367188	n/a	85155	largeHSmallT	correct	incongruent	0.54688	no	H	T
333.1835938	n/a	85295	responseSmallT	correct	n/a	0.54688	no	n/a	n/a
334.25	n/a	85568	largeTSmallH	correct	incongruent	0.54688	no	T	H
334.796875	n/a	85708	responseSmallH	correct	n/a	0.54688	no	n/a	n/a
335.8632812	n/a	85981	largeHSmallT	correct	incongruent	0.60547	no	H	T
336.46875	n/a	86136	responseSmallT	correct	n/a	0.60547	no	n/a	n/a
337.5273438	n/a	86407	largeHSmallT	correct	incongruent	0.61719	no	H	T
338.1445312	n/a	86565	responseSmallT	correct	n/a	0.61719	no	n/a	n/a
339.2070312	n/a	86837	largeHSmallH	correct	congruent	0.53906	no	H	H
339.7460938	n/a	86975	responseSmallH	correct	n/a	0.53906	no	n/a	n/a
340.8203125	n/a	87250	largeHSmallH	correct	congruent	0.46875	no	H	H
341.2890625	n/a	87370	responseSmallH	correct	n/a	0.46875	no	n/a	n/a
342.3671875	n/a	87646	largeHSmallT	correct	incongruent	0.59375	no	H	T
342.9609375	n/a	87798	responseSmallT	correct	n/a	0.59375	no	n/a	n/a
344.0351562	n/a	88073	largeTSmallH	correct	incongruent	0.51562	no	T	H
344.5507812	n/a	88205	responseSmallH	correct	n/a	0.51562	no	n/a	n/a
345.6210938	n/a	88479	largeHSmallH	correct	congruent	0.5	no	H	H
346.1210938	n/a	88607	responseSmallH	correct	n/a	0.5	no	n/a	n/a
347.1796875	n/a	88878	largeHSmallH	correct	congruent	0.41016	no	H	H
347.5898438	n/a	88983	responseSmallH	correct	n/a	0.41016	no	n/a	n/a
348.6484375	n/a	89254	largeTSmallT	correct	congruent	0.47266	no	T	T
349.1210938	n/a	89375	responseSmallT	correct	n/a	0.47266	no	n/a	n/a
350.1953125	n/a	89650	largeHSmallH	correct	congruent	0.46094	no	H	H
350.65625	n/a	89768	responseSmallH	correct	n/a	0.46094	no	n/a	n/a
351.7265625	n/a	90042	largeHSmallT	correct	incongruent	0.60547	no	H	T
352.3320312	n/a	90197	responseSmallT	correct	n/a	0.60547	no	n/a	n/a
353.3945312	n/a	90469	largeHSmallH	correct	congruent	0.40234	no	H	H
353.796875	n/a	90572	responseSmallH	correct	n/a	0.40234	no	n/a	n/a
354.8632812	n/a	90845	largeTSmallH	correct	incongruent	0.49609	no	T	H
355.359375	n/a	90972	responseSmallH	correct	n/a	0.49609	no	n/a	n/a
356.421875	n/a	91244	largeHSmallH	correct	congruent	0.47656	no	H	H
356.8984375	n/a	91366	responseSmallH	correct	n/a	0.47656	no	n/a	n/a
357.96875	n/a	91640	largeTSmallT	correct	congruent	0.42969	no	T	T
358.3984375	n/a	91750	responseSmallT	correct	n/a	0.42969	no	n/a	n/a
359.4609375	n/a	92022	largeHSmallH	correct	congruent	0.39453	no	H	H
359.8554688	n/a	92123	responseSmallH	correct	n/a	0.39453	no	n/a	n/a
360.9296875	n/a	92398	largeTSmallT	correct	congruent	0.41797	no	T	T
361.3476562	n/a	92505	responseSmallT	correct	n/a	0.41797	no	n/a	n/a
362.40625	n/a	92776	largeTSmallH	correct	incongruent	0.375	no	T	H
362.78125	n/a	92872	responseSmallH	correct	n/a	0.375	no	n/a	n/a
363.8476562	n/a	93145	largeHSmallH	correct	congruent	0.50781	no	H	H
364.3554688	n/a	93275	responseSmallH	correct	n/a	0.50781	no	n/a	n/a
365.421875	n/a	93548	largeHSmallT	correct	incongruent	0.47266	no	H	T
365.8945312	n/a	93669	responseSmallT	correct	n/a	0.47266	no	n/a	n/a
366.96875	n/a	93944	largeHSmallT	correct	incongruent	0.53906	no	H	T
367.5078125	n/a	94082	responseSmallT	correct	n/a	0.53906	no	n/a	n/a
368.5664062	n/a	94353	largeTSmallT	correct	congruent	0.46094	no	T	T
369.0273438	n/a	94471	responseSmallT	correct	n/a	0.46094	no	n/a	n/a
370.1015625	n/a	94746	largeHSmallT	correct	incongruent	0.46094	no	H	T
370.5625	n/a	94864	responseSmallT	correct	n/a	0.46094	no	n/a	n/a
371.6328125	n/a	95138	largeTSmallH	correct	incongruent	0.62109	no	T	H
372.2539062	n/a	95297	responseSmallH	correct	n/a	0.62109	no	n/a	n/a
373.3164062	n/a	95569	largeHSmallH	correct	congruent	0.42188	no	H	H
373.7382812	n/a	95677	responseSmallH	correct	n/a	0.42188	no	n/a	n/a
374.7929688	n/a	95947	largeTSmallT	correct	congruent	0.49609	no	T	T
375.2890625	n/a	96074	responseSmallT	correct	n/a	0.49609	no	n/a	n/a
376.3554688	n/a	96347	largeTSmallH	correct	incongruent	0.49219	no	T	H
376.8476562	n/a	96473	responseSmallH	correct	n/a	0.49219	no	n/a	n/a
377.9140625	n/a	96746	largeHSmallT	correct	incongruent	0.44141	no	H	T
378.3554688	n/a	96859	responseSmallT	correct	n/a	0.44141	no	n/a	n/a
379.4335938	n/a	97135	largeTSmallH	correct	incongruent	0.50391	no	T	H
379.9375	n/a	97264	responseSmallH	correct	n/a	0.50391	no	n/a	n/a
381.0078125	n/a	97538	largeTSmallH	correct	incongruent	0.51562	no	T	H
381.5234375	n/a	97670	responseSmallH	correct	n/a	0.51562	no	n/a	n/a
382.59375	n/a	97944	largeHSmallT	correct	incongruent	0.37891	no	H	T
382.9726562	n/a	98041	responseSmallT	correct	n/a	0.37891	no	n/a	n/a
384.046875	n/a	98316	largeTSmallT	correct	congruent	0.57031	no	T	T
384.6171875	n/a	98462	responseSmallT	correct	n/a	0.57031	no	n/a	n/a
385.6875	n/a	98736	largeTSmallT	correct	congruent	0.4375	no	T	T
386.125	n/a	98848	responseSmallT	correct	n/a	0.4375	no	n/a	n/a
387.1796875	n/a	99118	largeTSmallT	correct	congruent	0.48047	no	T	T
387.6601562	n/a	99241	responseSmallT	correct	n/a	0.48047	no	n/a	n/a
388.7265625	n/a	99514	largeHSmallH	correct	congruent	0.4375	no	H	H
389.1640625	n/a	99626	responseSmallH	correct	n/a	0.4375	no	n/a	n/a
390.2226562	n/a	99897	largeTSmallT	correct	congruent	0.42578	no	T	T
390.6484375	n/a	100006	responseSmallT	correct	n/a	0.42578	no	n/a	n/a
391.7265625	n/a	100282	largeHSmallH	correct	congruent	0.40234	no	H	H
392.1289062	n/a	100385	responseSmallH	correct	n/a	0.40234	no	n/a	n/a
393.1953125	n/a	100658	largeTSmallH	correct	incongruent	0.65625	no	T	H
393.8515625	n/a	100826	responseSmallH	correct	n/a	0.65625	no	n/a	n/a
394.9257812	n/a	101101	largeTSmallT	correct	congruent	0.41797	no	T	T
395.34375	n/a	101208	responseSmallT	correct	n/a	0.41797	no	n/a	n/a
396.421875	n/a	101484	largeTSmallT	correct	congruent	0.46484	no	T	T
396.8867188	n/a	101603	responseSmallT	correct	n/a	0.46484	no	n/a	n/a
397.9414062	n/a	101873	largeHSmallT	correct	incongruent	0.59375	no	H	T
398.5351562	n/a	102025	responseSmallT	correct	n/a	0.59375	no	n/a	n/a
399.6054688	n/a	102299	largeHSmallT	correct	incongruent	0.50391	no	H	T
400.109375	n/a	102428	responseSmallT	correct	n/a	0.50391	no	n/a	n/a
401.1796875	n/a	102702	largeHSmallH	correct	congruent	0.49219	no	H	H
401.671875	n/a	102828	responseSmallH	correct	n/a	0.49219	no	n/a	n/a
402.7421875	n/a	103102	largeTSmallH	correct	incongruent	0.49609	no	T	H
403.2382812	n/a	103229	responseSmallH	correct	n/a	0.49609	no	n/a	n/a
404.3125	n/a	103504	largeHSmallH	correct	congruent	0.58984	no	H	H
404.9023438	n/a	103655	responseSmallH	correct	n/a	0.58984	no	n/a	n/a
405.96875	n/a	103928	largeTSmallT	correct	congruent	0.41016	no	T	T
406.3789062	n/a	104033	responseSmallT	correct	n/a	0.41016	no	n/a	n/a
407.4453125	n/a	104306	largeHSmallT	correct	incongruent	0.40234	no	H	T
407.8476562	n/a	104409	responseSmallT	correct	n/a	0.40234	no	n/a	n/a
408.9140625	n/a	104682	largeHSmallT	correct	incongruent	0.4375	no	H	T
409.3515625	n/a	104794	responseSmallT	correct	n/a	0.4375	no	n/a	n/a
410.421875	n/a	105068	largeHSmallT	correct	incongruent	0.42188	no	H	T
410.84375	n/a	105176	responseSmallT	correct	n/a	0.42188	no	n/a	n/a
411.9140625	n/a	105450	largeTSmallT	correct	congruent	0.44922	no	T	T
412.3632812	n/a	105565	responseSmallT	correct	n/a	0.44922	no	n/a	n/a
413.421875	n/a	105836	largeTSmallT	correct	congruent	0.39062	no	T	T
413.8125	n/a	105936	responseSmallT	correct	n/a	0.39062	no	n/a	n/a
414.875	n/a	106208	largeTSmallT	correct	congruent	0.38672	no	T	T
415.2617188	n/a	106307	responseSmallT	correct	n/a	0.38672	no	n/a	n/a
416.328125	n/a	106580	largeTSmallH	correct	incongruent	0.51562	no	T	H
416.84375	n/a	106712	responseSmallH	correct	n/a	0.51562	no	n/a	n/a
417.9140625	n/a	106986	largeTSmallH	correct	incongruent	0.39453	no	T	H
418.3085938	n/a	107087	responseSmallH	correct	n/a	0.39453	no	n/a	n/a
419.3671875	n/a	107358	largeTSmallH	correct	incongruent	0.44531	no	T	H
419.8125	n/a	107472	responseSmallH	correct	n/a	0.44531	no	n/a	n/a
420.8867188	n/a	107747	largeHSmallH	correct	congruent	0.61328	no	H	H
421.5	n/a	107904	responseSmallH	correct	n/a	0.61328	no	n/a	n/a
422.5664062	n/a	108177	largeHSmallT	correct	incongruent	0.53906	no	H	T
423.1054688	n/a	108315	responseSmallT	correct	n/a	0.53906	no	n/a	n/a
424.1679688	n/a	108587	largeHSmallH	correct	congruent	0.42969	no	H	H
424.5976562	n/a	108697	responseSmallH	correct	n/a	0.42969	no	n/a	n/a
425.671875	n/a	108972	largeHSmallT	correct	incongruent	0.40234	no	H	T
426.0742188	n/a	109075	responseSmallT	correct	n/a	0.40234	no	n/a	n/a
427.140625	n/a	109348	largeHSmallT	correct	incongruent	0.5	no	H	T
427.640625	n/a	109476	responseSmallT	correct	n/a	0.5	no	n/a	n/a
428.7148438	n/a	109751	largeTSmallT	correct	congruent	0.51562	no	T	T
429.2304688	n/a	109883	responseSmallT	correct	n/a	0.51562	no	n/a	n/a
430.3007812	n/a	110157	largeHSmallH	correct	congruent	0.48828	no	H	H
430.7890625	n/a	110282	responseSmallH	correct	n/a	0.48828	no	n/a	n/a
431.859375	n/a	110556	largeTSmallT	correct	congruent	0.42578	no	T	T
432.2851562	n/a	110665	responseSmallT	correct	n/a	0.42578	no	n/a	n/a
433.3398438	n/a	110935	largeTSmallT	correct	congruent	0.4375	no	T	T
433.7773438	n/a	111047	responseSmallT	correct	n/a	0.4375	no	n/a	n/a
434.8476562	n/a	111321	largeHSmallT	correct	incongruent	0.60156	no	H	T
435.4492188	n/a	111475	responseSmallT	correct	n/a	0.60156	no	n/a	n/a
436.5117188	n/a	111747	largeTSmallH	correct	incongruent	0.49219	no	T	H
437.0039062	n/a	111873	responseSmallH	correct	n/a	0.49219	no	n/a	n/a
438.0742188	n/a	112147	largeHSmallT	correct	incongruent	0.49609	no	H	T
438.5703125	n/a	112274	responseSmallT	correct	n/a	0.49609	no	n/a	n/a
439.6328125	n/a	112546	largeTSmallH	correct	incongruent	0.45703	no	T	H
440.0898438	n/a	112663	responseSmallH	correct	n/a	0.45703	no	n/a	n/a
441.1679688	n/a	112939	largeHSmallH	correct	congruent	0.5625	no	H	H
441.7304688	n/a	113083	responseSmallH	correct	n/a	0.5625	no	n/a	n/a
442.7929688	n/a	113355	largeTSmallH	correct	incongruent	0.49219	no	T	H
443.2851562	n/a	113481	responseSmallH	correct	n/a	0.49219	no	n/a	n/a
444.3515625	n/a	113754	largeTSmallT	correct	congruent	0.44922	no	T	T
444.8007812	n/a	113869	responseSmallT	correct	n/a	0.44922	no	n/a	n/a
445.8710938	n/a	114143	largeHSmallH	correct	congruent	0.39453	no	H	H
446.265625	n/a	114244	responseSmallH	correct	n/a	0.39453	no	n/a	n/a
447.3398438	n/a	114519	largeHSmallT	correct	incongruent	0.36328	no	H	T
447.703125	n/a	114612	responseSmallT	correct	n/a	0.36328	no	n/a	n/a
448.765625	n/a	114884	largeTSmallH	correct	incongruent	0.39453	no	T	H
449.1601562	n/a	114985	responseSmallH	correct	n/a	0.39453	no	n/a	n/a
450.21875	n/a	115256	largeHSmallH	correct	congruent	0.40625	no	H	H
450.625	n/a	115360	responseSmallH	correct	n/a	0.40625	no	n/a	n/a
451.6875	n/a	115632	largeTSmallT	correct	congruent	0.61328	no	T	T
452.3007812	n/a	115789	responseSmallT	correct	n/a	0.61328	no	n/a	n/a
453.3789062	n/a	116065	largeHSmallT	correct	incongruent	0.51953	no	H	T
453.8984375	n/a	116198	responseSmallT	correct	n/a	0.51953	no	n/a	n/a
454.9648438	n/a	116471	largeHSmallH	correct	congruent	0.45703	no	H	H
455.421875	n/a	116588	responseSmallH	correct	n/a	0.45703	no	n/a	n/a
456.5	n/a	116864	largeHSmallT	correct	incongruent	0.40234	no	H	T
456.9023438	n/a	116967	responseSmallT	correct	n/a	0.40234	no	n/a	n/a
457.9648438	n/a	117239	largeTSmallH	correct	incongruent	0.5	no	T	H
458.4648438	n/a	117367	responseSmallH	correct	n/a	0.5	no	n/a	n/a
459.5390625	n/a	117642	largeTSmallT	correct	congruent	0.45312	no	T	T
459.9921875	n/a	117758	responseSmallT	correct	n/a	0.45312	no	n/a	n/a
461.0585938	n/a	118031	largeTSmallH	correct	incongruent	0.33984	no	T	H
461.3984375	n/a	118118	responseSmallH	correct	n/a	0.33984	no	n/a	n/a
462.4726562	n/a	118393	largeTSmallT	correct	congruent	0.35547	no	T	T
462.828125	n/a	118484	responseSmallT	correct	n/a	0.35547	no	n/a	n/a
463.8867188	n/a	118755	largeHSmallT	correct	incongruent	0.56641	no	H	T
464.453125	n/a	118900	responseSmallT	correct	n/a	0.56641	no	n/a	n/a
465.5273438	n/a	119175	largeHSmallH	correct	congruent	0.40625	no	H	H
465.9335938	n/a	119279	responseSmallH	correct	n/a	0.40625	no	n/a	n/a
467.0039062	n/a	119553	largeHSmallT	correct	incongruent	0.36719	no	H	T
467.3710938	n/a	119647	responseSmallT	correct	n/a	0.36719	no	n/a	n/a
468.4453125	n/a	119922	largeHSmallH	correct	congruent	0.41797	no	H	H
468.8632812	n/a	120029	responseSmallH	correct	n/a	0.41797	no	n/a	n/a
469.9257812	n/a	120301	largeTSmallH	correct	incongruent	0.58984	no	T	H
470.515625	n/a	120452	responseSmallH	correct	n/a	0.58984	no	n/a	n/a
471.578125	n/a	120724	largeTSmallH	correct	incongruent	0.45312	no	T	H
472.03125	n/a	120840	responseSmallH	correct	n/a	0.45312	no	n/a	n/a
473.0976562	n/a	121113	largeTSmallT	correct	congruent	0.42969	no	T	T
473.5273438	n/a	121223	responseSmallT	correct	n/a	0.42969	no	n/a	n/a
474.59375	n/a	121496	largeTSmallT	correct	congruent	0.40625	no	T	T
475	n/a	121600	responseSmallT	correct	n/a	0.40625	no	n/a	n/a
476.0703125	n/a	121874	largeHSmallH	correct	congruent	0.52344	no	H	H
476.59375	n/a	122008	responseSmallH	correct	n/a	0.52344	no	n/a	n/a
477.6601562	n/a	122281	largeTSmallT	correct	congruent	0.46094	no	T	T
478.1210938	n/a	122399	responseSmallT	correct	n/a	0.46094	no	n/a	n/a
479.1914062	n/a	122673	largeHSmallH	correct	congruent	0.40625	no	H	H
479.5976562	n/a	122777	responseSmallH	correct	n/a	0.40625	no	n/a	n/a
480.6601562	n/a	123049	largeTSmallT	correct	congruent	0.41016	no	T	T
481.0703125	n/a	123154	responseSmallT	correct	n/a	0.41016	no	n/a	n/a
482.1367188	n/a	123427	largeTSmallH	correct	incongruent	0.37891	no	T	H
482.515625	n/a	123524	responseSmallH	correct	n/a	0.37891	no	n/a	n/a
483.59375	n/a	123800	largeTSmallT	correct	congruent	0.37891	no	T	T
483.9726562	n/a	123897	responseSmallT	correct	n/a	0.37891	no	n/a	n/a
485.046875	n/a	124172	largeHSmallT	correct	incongruent	0.41016	no	H	T
485.4570312	n/a	124277	responseSmallT	correct	n/a	0.41016	no	n/a	n/a
486.5234375	n/a	124550	largeTSmallT	correct	congruent	0.45703	no	T	T
486.9804688	n/a	124667	responseSmallT	correct	n/a	0.45703	no	n/a	n/a
488.0585938	n/a	124943	largeHSmallH	correct	congruent	0.43359	no	H	H
488.4921875	n/a	125054	responseSmallH	correct	n/a	0.43359	no	n/a	n/a
489.5507812	n/a	125325	largeHSmallH	correct	congruent	0.68359	no	H	H
490.234375	n/a	125500	responseSmallH	correct	n/a	0.68359	no	n/a	n/a
491.296875	n/a	125772	largeHSmallH	correct	congruent	0.44922	no	H	H
491.7460938	n/a	125887	responseSmallH	correct	n/a	0.44922	no	n/a	n/a
492.8203125	n/a	126162	largeTSmallH	correct	incongruent	0.62891	no	T	H
493.4492188	n/a	126323	responseSmallH	correct	n/a	0.62891	no	n/a	n/a
494.5117188	n/a	126595	largeTSmallH	correct	incongruent	0.39453	no	T	H
494.90625	n/a	126696	responseSmallH	correct	n/a	0.39453	no	n/a	n/a
495.9765625	n/a	126970	largeTSmallH	correct	incongruent	0.39844	no	T	H
496.375	n/a	127072	responseSmallH	correct	n/a	0.39844	no	n/a	n/a
497.4453125	n/a	127346	largeTSmallH	correct	incongruent	0.38281	no	T	H
497.828125	n/a	127444	responseSmallH	correct	n/a	0.38281	no	n/a	n/a
498.8984375	n/a	127718	largeHSmallT	error	incongruent	0.37891	no	H	T
499.2773438	n/a	127815	responseSmallH	error	n/a	0.37891	no	n/a	n/a
500.3515625	n/a	128090	largeTSmallH	correct	incongruent	0.5	no	T	H
500.8515625	n/a	128218	responseSmallH	correct	n/a	0.5	no	n/a	n/a
501.9257812	n/a	128493	largeTSmallT	correct	congruent	0.41406	no	T	T
502.3398438	n/a	128599	responseSmallT	correct	n/a	0.41406	no	n/a	n/a
503.40625	n/a	128872	largeTSmallT	correct	congruent	0.625	no	T	T
504.03125	n/a	129032	responseSmallT	correct	n/a	0.625	no	n/a	n/a
505.0976562	n/a	129305	largeHSmallT	correct	incongruent	0.41016	no	H	T
505.5078125	n/a	129410	responseSmallT	correct	n/a	0.41016	no	n/a	n/a
506.578125	n/a	129684	largeHSmallH	correct	congruent	0.53125	no	H	H
507.109375	n/a	129820	responseSmallH	correct	n/a	0.53125	no	n/a	n/a
508.1796875	n/a	130094	largeHSmallT	correct	incongruent	0.57031	no	H	T
508.75	n/a	130240	responseSmallT	correct	n/a	0.57031	no	n/a	n/a
509.8164062	n/a	130513	largeTSmallT	correct	congruent	0.48438	no	T	T
510.3007812	n/a	130637	responseSmallT	correct	n/a	0.48438	no	n/a	n/a
511.3632812	n/a	130909	largeTSmallH	correct	incongruent	0.42969	no	T	H
511.7929688	n/a	131019	responseSmallH	correct	n/a	0.42969	no	n/a	n/a
512.859375	n/a	131292	largeHSmallT	correct	incongruent	0.40625	no	H	T
513.265625	n/a	131396	responseSmallT	correct	n/a	0.40625	no	n/a	n/a
514.3398438	n/a	131671	largeHSmallH	correct	congruent	0.35547	no	H	H
514.6953125	n/a	131762	responseSmallH	correct	n/a	0.35547	no	n/a	n/a
515.765625	n/a	132036	largeTSmallH	correct	incongruent	0.52734	no	T	H
516.2929688	n/a	132171	responseSmallH	correct	n/a	0.52734	no	n/a	n/a
517.3632812	n/a	132445	largeHSmallH	correct	congruent	0.47656	no	H	H
517.8398438	n/a	132567	responseSmallH	correct	n/a	0.47656	no	n/a	n/a
518.9101562	n/a	132841	largeTSmallT	correct	congruent	0.46875	no	T	T
519.3789062	n/a	132961	responseSmallT	correct	n/a	0.46875	no	n/a	n/a
520.4453125	n/a	133234	largeTSmallT	correct	congruent	0.59766	no	T	T
521.0429688	n/a	133387	responseSmallT	correct	n/a	0.59766	no	n/a	n/a
522.109375	n/a	133660	largeHSmallH	correct	congruent	0.48438	no	H	H
522.59375	n/a	133784	responseSmallH	correct	n/a	0.48438	no	n/a	n/a
523.65625	n/a	134056	largeHSmallH	correct	congruent	0.85938	no	H	H
524.515625	n/a	134276	responseSmallH	correct	n/a	0.85938	no	n/a	n/a
525.5898438	n/a	134551	largeTSmallH	correct	incongruent	0.54297	no	T	H
526.1328125	n/a	134690	responseSmallH	correct	n/a	0.54297	no	n/a	n/a
527.1914062	n/a	134961	largeTSmallT	correct	congruent	0.46875	no	T	T
527.6601562	n/a	135081	responseSmallT	correct	n/a	0.46875	no	n/a	n/a
528.7226562	n/a	135353	largeTSmallT	correct	congruent	0.49609	no	T	T
529.21875	n/a	135480	responseSmallT	correct	n/a	0.49609	no	n/a	n/a
530.2851562	n/a	135753	largeHSmallH	correct	congruent	0.70312	no	H	H
530.9882812	n/a	135933	responseSmallH	correct	n/a	0.70312	no	n/a	n/a
532.0585938	n/a	136207	largeTSmallT	correct	congruent	0.59375	no	T	T
532.6523438	n/a	136359	responseSmallT	correct	n/a	0.59375	no	n/a	n/a
533.7109375	n/a	136630	largeHSmallT	correct	incongruent	1.8984	yes	H	T
535.609375	n/a	137116	responseSmallT	correct	n/a	1.8984	yes	n/a	n/a
536.6835938	n/a	137391	largeTSmallH	correct	incongruent	0.58984	no	T	H
537.2734375	n/a	137542	responseSmallH	correct	n/a	0.58984	no	n/a	n/a
538.3515625	n/a	137818	largeTSmallT	correct	congruent	0.41016	no	T	T
538.7617188	n/a	137923	responseSmallT	correct	n/a	0.41016	no	n/a	n/a
539.8320312	n/a	138197	largeTSmallH	correct	incongruent	0.47266	no	T	H
540.3046875	n/a	138318	responseSmallH	correct	n/a	0.47266	no	n/a	n/a
541.3789062	n/a	138593	largeHSmallT	correct	incongruent	0.48828	no	H	T
541.8671875	n/a	138718	responseSmallT	correct	n/a	0.48828	no	n/a	n/a
542.9375	n/a	138992	largeHSmallH	correct	congruent	0.38281	no	H	H
543.3203125	n/a	139090	responseSmallH	correct	n/a	0.38281	no	n/a	n/a
544.390625	n/a	139364	largeHSmallH	correct	congruent	0.64844	no	H	H
545.0390625	n/a	139530	responseSmallH	correct	n/a	0.64844	no	n/a	n/a
546.0976562	n/a	139801	largeHSmallH	correct	congruent	0.5625	no	H	H
546.6601562	n/a	139945	responseSmallH	correct	n/a	0.5625	no	n/a	n/a
547.7226562	n/a	140217	largeTSmallT	correct	congruent	0.43359	no	T	T
548.15625	n/a	140328	responseSmallT	correct	n/a	0.43359	no	n/a	n/a
549.21875	n/a	140600	largeHSmallT	correct	incongruent	0.50391	no	H	T
549.7226562	n/a	140729	responseSmallT	correct	n/a	0.50391	no	n/a	n/a
550.7890625	n/a	141002	largeTSmallH	correct	incongruent	0.41406	no	T	H
551.203125	n/a	141108	responseSmallH	correct	n/a	0.41406	no	n/a	n/a
552.2578125	n/a	141378	largeHSmallH	correct	congruent	0.58984	no	H	H
552.8476562	n/a	141529	responseSmallH	correct	n/a	0.58984	no	n/a	n/a
553.9101562	n/a	141801	largeHSmallH	correct	congruent	0.42578	no	H	H
554.3359375	n/a	141910	responseSmallH	correct	n/a	0.42578	no	n/a	n/a
555.4023438	n/a	142183	largeTSmallT	correct	congruent	0.44141	no	T	T
555.84375	n/a	142296	responseSmallT	correct	n/a	0.44141	no	n/a	n/a
556.9101562	n/a	142569	largeHSmallH	correct	congruent	0.46484	no	H	H
557.375	n/a	142688	responseSmallH	correct	n/a	0.46484	no	n/a	n/a
558.4453125	n/a	142962	largeHSmallT	correct	incongruent	0.44922	no	H	T
558.8945312	n/a	143077	responseSmallT	correct	n/a	0.44922	no	n/a	n/a
559.9765625	n/a	143354	largeTSmallT	correct	congruent	0.48438	no	T	T
560.4609375	n/a	143478	responseSmallT	correct	n/a	0.48438	no	n/a	n/a
561.5390625	n/a	143754	largeTSmallT	correct	congruent	0.39844	no	T	T
561.9375	n/a	143856	responseSmallT	correct	n/a	0.39844	no	n/a	n/a
563.015625	n/a	144132	largeTSmallT	correct	congruent	0.37109	no	T	T
563.3867188	n/a	144227	responseSmallT	correct	n/a	0.37109	no	n/a	n/a
564.4453125	n/a	144498	largeTSmallH	correct	incongruent	0.41016	no	T	H
564.8554688	n/a	144603	responseSmallH	correct	n/a	0.41016	no	n/a	n/a
565.921875	n/a	144876	largeTSmallH	correct	incongruent	0.40625	no	T	H
566.328125	n/a	144980	responseSmallH	correct	n/a	0.40625	no	n/a	n/a
567.390625	n/a	145252	largeHSmallT	correct	incongruent	0.51953	no	H	T
567.9101562	n/a	145385	responseSmallT	correct	n/a	0.51953	no	n/a	n/a
568.9765625	n/a	145658	largeHSmallT	correct	incongruent	0.47266	no	H	T
569.4492188	n/a	145779	responseSmallT	correct	n/a	0.47266	no	n/a	n/a
570.5117188	n/a	146051	largeTSmallT	correct	congruent	0.44922	no	T	T
570.9609375	n/a	146166	responseSmallT	correct	n/a	0.44922	no	n/a	n/a
572.03125	n/a	146440	largeHSmallT	correct	incongruent	0.39844	no	H	T
572.4296875	n/a	146542	responseSmallT	correct	n/a	0.39844	no	n/a	n/a
573.4960938	n/a	146815	largeHSmallT	correct	incongruent	0.41406	no	H	T
573.9101562	n/a	146921	responseSmallT	correct	n/a	0.41406	no	n/a	n/a
574.9765625	n/a	147194	largeTSmallT	correct	congruent	0.39844	no	T	T
575.375	n/a	147296	responseSmallT	correct	n/a	0.39844	no	n/a	n/a
576.4414062	n/a	147569	largeHSmallT	correct	incongruent	0.40625	no	H	T
576.8476562	n/a	147673	responseSmallT	correct	n/a	0.40625	no	n/a	n/a
577.9101562	n/a	147945	largeHSmallH	correct	congruent	0.41016	no	H	H
578.3203125	n/a	148050	responseSmallH	correct	n/a	0.41016	no	n/a	n/a
579.390625	n/a	148324	largeTSmallT	correct	congruent	0.47266	no	T	T
579.8632812	n/a	148445	responseSmallT	correct	n/a	0.47266	no	n/a	n/a
580.9375	n/a	148720	largeTSmallH	correct	incongruent	0.42188	no	T	H
581.359375	n/a	148828	responseSmallH	correct	n/a	0.42188	no	n/a	n/a
582.4179688	n/a	149099	largeTSmallH	correct	incongruent	0.42578	no	T	H
582.84375	n/a	149208	responseSmallH	correct	n/a	0.42578	no	n/a	n/a
583.9101562	n/a	149481	largeHSmallH	correct	congruent	0.67969	no	H	H
584.5898438	n/a	149655	responseSmallH	correct	n/a	0.67969	no	n/a	n/a
585.65625	n/a	149928	largeTSmallH	correct	incongruent	0.55859	no	T	H
586.2148438	n/a	150071	responseSmallH	correct	n/a	0.55859	no	n/a	n/a
587.28125	n/a	150344	largeTSmallH	correct	incongruent	0.51562	no	T	H
587.796875	n/a	150476	responseSmallH	correct	n/a	0.51562	no	n/a	n/a
588.8554688	n/a	150747	largeHSmallT	correct	incongruent	0.67188	no	H	T
589.5273438	n/a	150919	responseSmallT	correct	n/a	0.67188	no	n/a	n/a
590.5898438	n/a	151191	largeTSmallT	correct	congruent	0.45312	no	T	T
591.0429688	n/a	151307	responseSmallT	correct	n/a	0.45312	no	n/a	n/a
592.109375	n/a	151580	largeHSmallH	correct	congruent	0.46094	no	H	H
592.5703125	n/a	151698	responseSmallH	correct	n/a	0.46094	no	n/a	n/a
593.6289062	n/a	151969	largeTSmallH	correct	incongruent	0.44141	no	T	H
594.0703125	n/a	152082	responseSmallH	correct	n/a	0.44141	no	n/a	n/a
595.1367188	n/a	152355	largeHSmallH	correct	congruent	0.40234	no	H	H
595.5390625	n/a	152458	responseSmallH	correct	n/a	0.40234	no	n/a	n/a
596.6015625	n/a	152730	largeHSmallT	correct	incongruent	0.55078	no	H	T
597.1523438	n/a	152871	responseSmallT	correct	n/a	0.55078	no	n/a	n/a
598.2148438	n/a	153143	largeTSmallH	correct	incongruent	0.44922	no	T	H
598.6640625	n/a	153258	responseSmallH	correct	n/a	0.44922	no	n/a	n/a
599.734375	n/a	153532	largeHSmallH	correct	congruent	0.47266	no	H	H
600.2070312	n/a	153653	responseSmallH	correct	n/a	0.47266	no	n/a	n/a
601.28125	n/a	153928	largeTSmallH	correct	incongruent	0.41016	no	T	H
601.6914062	n/a	154033	responseSmallH	correct	n/a	0.41016	no	n/a	n/a
602.7617188	n/a	154307	largeHSmallH	correct	congruent	0.35938	no	H	H
603.1210938	n/a	154399	responseSmallH	correct	n/a	0.35938	no	n/a	n/a
604.203125	n/a	154676	largeTSmallH	correct	incongruent	0.35938	no	T	H
604.5625	n/a	154768	responseSmallH	correct	n/a	0.35938	no	n/a	n/a
605.6289062	n/a	155041	largeHSmallT	correct	incongruent	1.2695	no	H	T
606.8984375	n/a	155366	responseSmallT	correct	n/a	1.2695	no	n/a	n/a
607.9765625	n/a	155642	largeTSmallT	correct	congruent	0.58984	no	T	T
608.5664062	n/a	155793	responseSmallT	correct	n/a	0.58984	no	n/a	n/a
609.6445312	n/a	156069	largeTSmallH	error	incongruent	0.40625	no	T	H
610.0507812	n/a	156173	responseSmallT	error	n/a	0.40625	no	n/a	n/a
611.1210938	n/a	156447	largeHSmallT	correct	incongruent	0.375	no	H	T
611.4960938	n/a	156543	responseSmallT	correct	n/a	0.375	no	n/a	n/a
612.5625	n/a	156816	largeTSmallT	correct	congruent	1.3359	no	T	T
613.8984375	n/a	157158	responseSmallT	correct	n/a	1.3359	no	n/a	n/a
614.9609375	n/a	157430	largeHSmallT	correct	incongruent	0.48047	no	H	T
615.4414062	n/a	157553	responseSmallT	correct	n/a	0.48047	no	n/a	n/a
616.5078125	n/a	157826	largeHSmallT	correct	incongruent	0.42969	no	H	T
616.9375	n/a	157936	responseSmallT	correct	n/a	0.42969	no	n/a	n/a
618.0039062	n/a	158209	largeTSmallH	correct	incongruent	0.42188	no	T	H
618.4257812	n/a	158317	responseSmallH	correct	n/a	0.42188	no	n/a	n/a
619.4960938	n/a	158591	largeHSmallT	correct	incongruent	0.34766	no	H	T
619.84375	n/a	158680	responseSmallT	correct	n/a	0.34766	no	n/a	n/a
620.921875	n/a	158956	largeHSmallT	correct	incongruent	0.53906	no	H	T
621.4609375	n/a	159094	responseSmallT	correct	n/a	0.53906	no	n/a	n/a
622.5234375	n/a	159366	largeTSmallT	correct	congruent	0.42578	no	T	T
622.9492188	n/a	159475	responseSmallT	correct	n/a	0.42578	no	n/a	n/a
624.0273438	n/a	159751	largeHSmallH	correct	congruent	0.42578	no	H	H
624.453125	n/a	159860	responseSmallH	correct	n/a	0.42578	no	n/a	n/a
625.5234375	n/a	160134	largeHSmallH	error	congruent	0.33984	no	H	H
625.8632812	n/a	160221	responseSmallT	error	n/a	0.33984	no	n/a	n/a
626.921875	n/a	160492	largeTSmallT	correct	congruent	0.43359	no	T	T
627.3554688	n/a	160603	responseSmallT	correct	n/a	0.43359	no	n/a	n/a
628.4296875	n/a	160878	largeTSmallH	correct	incongruent	0.43359	no	T	H
628.8632812	n/a	160989	responseSmallH	correct	n/a	0.43359	no	n/a	n/a
629.9335938	n/a	161263	largeTSmallH	correct	incongruent	0.52344	no	T	H
630.4570312	n/a	161397	responseSmallH	correct	n/a	0.52344	no	n/a	n/a
631.5234375	n/a	161670	largeHSmallT	correct	incongruent	0.45703	no	H	T
631.9804688	n/a	161787	responseSmallT	correct	n/a	0.45703	no	n/a	n/a
638.3085938	n/a	163407	largeHSmallT	correct	incongruent	0.66797	no	H	T
638.9765625	n/a	163578	responseLargeH	correct	n/a	0.66797	no	n/a	n/a
640.0429688	n/a	163851	largeHSmallT	correct	incongruent	0.6875	no	H	T
640.7304688	n/a	164027	responseLargeH	correct	n/a	0.6875	no	n/a	n/a
641.7890625	n/a	164298	largeTSmallT	correct	congruent	0.52344	no	T	T
642.3125	n/a	164432	responseLargeT	correct	n/a	0.52344	no	n/a	n/a
643.3867188	n/a	164707	largeHSmallT	correct	incongruent	0.55078	no	H	T
643.9375	n/a	164848	responseLargeH	correct	n/a	0.55078	no	n/a	n/a
645	n/a	165120	largeHSmallT	n/a	incongruent	n/a	n/a	H	T
646.6953125	n/a	165554	largeTSmallH	error	incongruent	1.4023	no	T	H
648.0976562	n/a	165913	responseLargeH	error	n/a	1.4023	no	n/a	n/a
649.1757812	n/a	166189	largeTSmallH	error	incongruent	0.52344	no	T	H
649.6992188	n/a	166323	responseLargeH	error	n/a	0.52344	no	n/a	n/a
650.7617188	n/a	166595	largeHSmallH	correct	congruent	0.44531	no	H	H
651.2070312	n/a	166709	responseLargeH	correct	n/a	0.44531	no	n/a	n/a
652.28125	n/a	166984	largeHSmallT	correct	incongruent	0.55078	no	H	T
652.8320312	n/a	167125	responseLargeH	correct	n/a	0.55078	no	n/a	n/a
653.8945312	n/a	167397	largeTSmallH	correct	incongruent	0.75781	no	T	H
654.6523438	n/a	167591	responseLargeT	correct	n/a	0.75781	no	n/a	n/a
655.7226562	n/a	167865	largeTSmallH	error	incongruent	0.31641	no	T	H
656.0390625	n/a	167946	responseLargeH	error	n/a	0.31641	no	n/a	n/a
657.109375	n/a	168220	largeTSmallT	correct	congruent	0.50391	no	T	T
657.6132812	n/a	168349	responseLargeT	correct	n/a	0.50391	no	n/a	n/a
658.6796875	n/a	168622	largeTSmallT	correct	congruent	0.40625	no	T	T
659.0859375	n/a	168726	responseLargeT	correct	n/a	0.40625	no	n/a	n/a
660.1484375	n/a	168998	largeHSmallT	correct	incongruent	0.47656	no	H	T
660.625	n/a	169120	responseLargeH	correct	n/a	0.47656	no	n/a	n/a
661.6953125	n/a	169394	largeHSmallH	correct	congruent	0.66406	no	H	H
662.359375	n/a	169564	responseLargeH	correct	n/a	0.66406	no	n/a	n/a
663.4296875	n/a	169838	largeHSmallH	correct	congruent	0.52344	no	H	H
663.953125	n/a	169972	responseLargeH	correct	n/a	0.52344	no	n/a	n/a
665.0273438	n/a	170247	largeTSmallH	correct	incongruent	0.45312	no	T	H
665.4804688	n/a	170363	responseLargeT	correct	n/a	0.45312	no	n/a	n/a
666.546875	n/a	170636	largeHSmallT	correct	incongruent	0.35156	no	H	T
666.8984375	n/a	170726	responseLargeH	correct	n/a	0.35156	no	n/a	n/a
667.9765625	n/a	171002	largeTSmallT	correct	congruent	0.3125	no	T	T
668.2890625	n/a	171082	responseLargeT	correct	n/a	0.3125	no	n/a	n/a
669.359375	n/a	171356	largeTSmallT	correct	congruent	0.48047	no	T	T
669.8398438	n/a	171479	responseLargeT	correct	n/a	0.48047	no	n/a	n/a
670.90625	n/a	171752	largeHSmallT	correct	incongruent	0.45312	no	H	T
671.359375	n/a	171868	responseLargeH	correct	n/a	0.45312	no	n/a	n/a
672.4296875	n/a	172142	largeHSmallH	correct	congruent	0.50391	no	H	H
672.9335938	n/a	172271	responseLargeH	correct	n/a	0.50391	no	n/a	n/a
674	n/a	172544	largeTSmallT	correct	congruent	0.38672	no	T	T
674.3867188	n/a	172643	responseLargeT	correct	n/a	0.38672	no	n/a	n/a
675.453125	n/a	172916	largeHSmallH	correct	congruent	0.32031	no	H	H
675.7734375	n/a	172998	responseLargeH	correct	n/a	0.32031	no	n/a	n/a
676.8398438	n/a	173271	largeHSmallT	error	incongruent	0.30078	no	H	T
677.140625	n/a	173348	responseLargeT	error	n/a	0.30078	no	n/a	n/a
678.1992188	n/a	173619	largeTSmallT	correct	congruent	0.34766	no	T	T
678.546875	n/a	173708	responseLargeT	correct	n/a	0.34766	no	n/a	n/a
679.6289062	n/a	173985	largeTSmallH	error	incongruent	0.35938	no	T	H
679.9882812	n/a	174077	responseLargeH	error	n/a	0.35938	no	n/a	n/a
681.0546875	n/a	174350	largeHSmallH	correct	congruent	0.54688	no	H	H
681.6015625	n/a	174490	responseLargeH	correct	n/a	0.54688	no	n/a	n/a
682.6679688	n/a	174763	largeTSmallH	correct	incongruent	0.39453	no	T	H
683.0625	n/a	174864	responseLargeT	correct	n/a	0.39453	no	n/a	n/a
684.1328125	n/a	175138	largeTSmallT	correct	congruent	0.55859	no	T	T
684.6914062	n/a	175281	responseLargeT	correct	n/a	0.55859	no	n/a	n/a
685.7460938	n/a	175551	largeTSmallH	correct	incongruent	0.46094	no	T	H
686.2070312	n/a	175669	responseLargeT	correct	n/a	0.46094	no	n/a	n/a
687.265625	n/a	175940	largeTSmallH	correct	incongruent	0.4375	no	T	H
687.703125	n/a	176052	responseLargeT	correct	n/a	0.4375	no	n/a	n/a
688.7617188	n/a	176323	largeTSmallT	correct	congruent	0.44922	no	T	T
689.2109375	n/a	176438	responseLargeT	correct	n/a	0.44922	no	n/a	n/a
690.28125	n/a	176712	largeHSmallT	correct	incongruent	0.44141	no	H	T
690.7226562	n/a	176825	responseLargeH	correct	n/a	0.44141	no	n/a	n/a
691.7890625	n/a	177098	largeHSmallH	correct	congruent	0.42578	no	H	H
692.2148438	n/a	177207	responseLargeH	correct	n/a	0.42578	no	n/a	n/a
693.2929688	n/a	177483	largeTSmallT	correct	congruent	0.45312	no	T	T
693.7460938	n/a	177599	responseLargeT	correct	n/a	0.45312	no	n/a	n/a
694.8125	n/a	177872	largeHSmallH	correct	congruent	0.39453	no	H	H
695.2070312	n/a	177973	responseLargeH	correct	n/a	0.39453	no	n/a	n/a
696.265625	n/a	178244	largeHSmallH	correct	congruent	0.42578	no	H	H
696.6914062	n/a	178353	responseLargeH	correct	n/a	0.42578	no	n/a	n/a
697.7460938	n/a	178623	largeHSmallH	correct	congruent	0.41797	no	H	H
698.1640625	n/a	178730	responseLargeH	correct	n/a	0.41797	no	n/a	n/a
699.2265625	n/a	179002	largeTSmallT	correct	congruent	0.42188	no	T	T
699.6484375	n/a	179110	responseLargeT	correct	n/a	0.42188	no	n/a	n/a
700.7070312	n/a	179381	largeTSmallT	correct	congruent	0.44141	no	T	T
701.1484375	n/a	179494	responseLargeT	correct	n/a	0.44141	no	n/a	n/a
702.2148438	n/a	179767	largeTSmallT	correct	congruent	0.40625	no	T	T
702.6210938	n/a	179871	responseLargeT	correct	n/a	0.40625	no	n/a	n/a
703.6953125	n/a	180146	largeTSmallH	correct	incongruent	0.50781	no	T	H
704.203125	n/a	180276	responseLargeT	correct	n/a	0.50781	no	n/a	n/a
705.265625	n/a	180548	largeTSmallH	correct	incongruent	0.37891	no	T	H
705.6445312	n/a	180645	responseLargeT	correct	n/a	0.37891	no	n/a	n/a
706.7070312	n/a	180917	largeTSmallH	correct	incongruent	0.74219	no	T	H
707.4492188	n/a	181107	responseLargeT	correct	n/a	0.74219	no	n/a	n/a
708.5195312	n/a	181381	largeTSmallT	correct	congruent	0.45703	no	T	T
708.9765625	n/a	181498	responseLargeT	correct	n/a	0.45703	no	n/a	n/a
710.0390625	n/a	181770	largeHSmallH	correct	congruent	0.41406	no	H	H
710.453125	n/a	181876	responseLargeH	correct	n/a	0.41406	no	n/a	n/a
711.5195312	n/a	182149	largeHSmallT	correct	incongruent	0.51172	no	H	T
712.03125	n/a	182280	responseLargeH	correct	n/a	0.51172	no	n/a	n/a
713.09375	n/a	182552	largeTSmallH	correct	incongruent	0.45312	no	T	H
713.546875	n/a	182668	responseLargeT	correct	n/a	0.45312	no	n/a	n/a
714.6132812	n/a	182941	largeHSmallH	correct	congruent	0.51172	no	H	H
715.125	n/a	183072	responseLargeH	correct	n/a	0.51172	no	n/a	n/a
716.1875	n/a	183344	largeTSmallH	correct	incongruent	0.35547	no	T	H
716.5429688	n/a	183435	responseLargeT	correct	n/a	0.35547	no	n/a	n/a
717.6132812	n/a	183709	largeTSmallH	error	incongruent	0.35547	no	T	H
717.96875	n/a	183800	responseLargeH	error	n/a	0.35547	no	n/a	n/a
719.0273438	n/a	184071	largeTSmallH	correct	incongruent	0.44531	no	T	H
719.4726562	n/a	184185	responseLargeT	correct	n/a	0.44531	no	n/a	n/a
720.546875	n/a	184460	largeHSmallT	correct	incongruent	0.625	no	H	T
721.171875	n/a	184620	responseLargeH	correct	n/a	0.625	no	n/a	n/a
722.2382812	n/a	184893	largeTSmallT	correct	congruent	0.34766	no	T	T
722.5859375	n/a	184982	responseLargeT	correct	n/a	0.34766	no	n/a	n/a
723.6679688	n/a	185259	largeHSmallH	correct	congruent	0.36719	no	H	H
724.0351562	n/a	185353	responseLargeH	correct	n/a	0.36719	no	n/a	n/a
725.09375	n/a	185624	largeTSmallT	correct	congruent	0.3125	no	T	T
725.40625	n/a	185704	responseLargeT	correct	n/a	0.3125	no	n/a	n/a
726.4648438	n/a	185975	largeTSmallH	correct	incongruent	0.43359	no	T	H
726.8984375	n/a	186086	responseLargeT	correct	n/a	0.43359	no	n/a	n/a
727.9726562	n/a	186361	largeHSmallH	correct	congruent	0.44922	no	H	H
728.421875	n/a	186476	responseLargeH	correct	n/a	0.44922	no	n/a	n/a
729.4921875	n/a	186750	largeHSmallH	correct	congruent	0.54297	no	H	H
730.0351562	n/a	186889	responseLargeH	correct	n/a	0.54297	no	n/a	n/a
731.1054688	n/a	187163	largeHSmallH	correct	congruent	0.55078	no	H	H
731.65625	n/a	187304	responseLargeH	correct	n/a	0.55078	no	n/a	n/a
732.71875	n/a	187576	largeHSmallT	correct	incongruent	0.36328	no	H	T
733.0820312	n/a	187669	responseLargeH	correct	n/a	0.36328	no	n/a	n/a
734.1484375	n/a	187942	largeHSmallT	correct	incongruent	0.45703	no	H	T
734.6054688	n/a	188059	responseLargeH	correct	n/a	0.45703	no	n/a	n/a
735.6679688	n/a	188331	largeTSmallH	correct	incongruent	0.45703	no	T	H
736.125	n/a	188448	responseLargeT	correct	n/a	0.45703	no	n/a	n/a
737.1875	n/a	188720	largeTSmallT	correct	congruent	0.39062	no	T	T
737.578125	n/a	188820	responseLargeT	correct	n/a	0.39062	no	n/a	n/a
738.640625	n/a	189092	largeHSmallT	correct	incongruent	0.47656	no	H	T
739.1171875	n/a	189214	responseLargeH	correct	n/a	0.47656	no	n/a	n/a
740.1875	n/a	189488	largeHSmallT	correct	incongruent	0.58594	no	H	T
740.7734375	n/a	189638	responseLargeH	correct	n/a	0.58594	no	n/a	n/a
741.8398438	n/a	189911	largeTSmallH	correct	incongruent	0.46094	no	T	H
742.3007812	n/a	190029	responseLargeT	correct	n/a	0.46094	no	n/a	n/a
743.359375	n/a	190300	largeTSmallT	correct	congruent	0.44141	no	T	T
743.8007812	n/a	190413	responseLargeT	correct	n/a	0.44141	no	n/a	n/a
744.8671875	n/a	190686	largeHSmallH	correct	congruent	0.46484	no	H	H
745.3320312	n/a	190805	responseLargeH	correct	n/a	0.46484	no	n/a	n/a
746.3867188	n/a	191075	largeHSmallT	correct	incongruent	0.36328	no	H	T
746.75	n/a	191168	responseLargeH	correct	n/a	0.36328	no	n/a	n/a
747.828125	n/a	191444	largeTSmallH	correct	incongruent	0.48047	no	T	H
748.3085938	n/a	191567	responseLargeT	correct	n/a	0.48047	no	n/a	n/a
749.3710938	n/a	191839	largeHSmallH	correct	congruent	0.40625	no	H	H
749.7773438	n/a	191943	responseLargeH	correct	n/a	0.40625	no	n/a	n/a
750.8398438	n/a	192215	largeHSmallT	error	incongruent	0.33203	no	H	T
751.171875	n/a	192300	responseLargeT	error	n/a	0.33203	no	n/a	n/a
752.2382812	n/a	192573	largeHSmallH	error	congruent	0.32031	no	H	H
752.5585938	n/a	192655	responseLargeT	error	n/a	0.32031	no	n/a	n/a
753.625	n/a	192928	largeHSmallH	correct	congruent	0.42578	no	H	H
754.0507812	n/a	193037	responseLargeH	correct	n/a	0.42578	no	n/a	n/a
755.1328125	n/a	193314	largeTSmallT	correct	congruent	0.43359	no	T	T
755.5664062	n/a	193425	responseLargeT	correct	n/a	0.43359	no	n/a	n/a
756.640625	n/a	193700	largeHSmallT	correct	incongruent	0.54297	no	H	T
757.1835938	n/a	193839	responseLargeH	correct	n/a	0.54297	no	n/a	n/a
758.2539062	n/a	194113	largeTSmallT	correct	congruent	0.41016	no	T	T
758.6640625	n/a	194218	responseLargeT	correct	n/a	0.41016	no	n/a	n/a
759.734375	n/a	194492	largeTSmallT	correct	congruent	0.58984	no	T	T
760.3242188	n/a	194643	responseLargeT	correct	n/a	0.58984	no	n/a	n/a
761.3984375	n/a	194918	largeTSmallT	correct	congruent	0.37109	no	T	T
761.7695312	n/a	195013	responseLargeT	correct	n/a	0.37109	no	n/a	n/a
762.8242188	n/a	195283	largeTSmallH	correct	incongruent	0.38672	no	T	H
763.2109375	n/a	195382	responseLargeT	correct	n/a	0.38672	no	n/a	n/a
764.28125	n/a	195656	largeHSmallT	correct	incongruent	0.36328	no	H	T
764.6445312	n/a	195749	responseLargeH	correct	n/a	0.36328	no	n/a	n/a
765.7070312	n/a	196021	largeHSmallH	correct	congruent	0.35547	no	H	H
766.0625	n/a	196112	responseLargeH	correct	n/a	0.35547	no	n/a	n/a
767.1210938	n/a	196383	largeHSmallH	correct	congruent	0.31641	no	H	H
767.4375	n/a	196464	responseLargeH	correct	n/a	0.31641	no	n/a	n/a
768.5039062	n/a	196737	largeHSmallT	correct	incongruent	0.45312	no	H	T
768.9570312	n/a	196853	responseLargeH	correct	n/a	0.45312	no	n/a	n/a
770.0273438	n/a	197127	largeHSmallT	correct	incongruent	0.33594	no	H	T
770.3632812	n/a	197213	responseLargeH	correct	n/a	0.33594	no	n/a	n/a
771.4257812	n/a	197485	largeTSmallH	correct	incongruent	0.48828	no	T	H
771.9140625	n/a	197610	responseLargeT	correct	n/a	0.48828	no	n/a	n/a
772.9726562	n/a	197881	largeHSmallH	correct	congruent	0.39453	no	H	H
773.3671875	n/a	197982	responseLargeH	correct	n/a	0.39453	no	n/a	n/a
774.4375	n/a	198256	largeTSmallT	correct	congruent	0.36328	no	T	T
774.8007812	n/a	198349	responseLargeT	correct	n/a	0.36328	no	n/a	n/a
775.8789062	n/a	198625	largeHSmallT	correct	incongruent	0.33594	no	H	T
776.2148438	n/a	198711	responseLargeH	correct	n/a	0.33594	no	n/a	n/a
777.2773438	n/a	198983	largeHSmallH	error	congruent	0.35938	no	H	H
777.6367188	n/a	199075	responseLargeT	error	n/a	0.35938	no	n/a	n/a
778.7070312	n/a	199349	largeHSmallT	error	incongruent	0.33594	no	H	T
779.0429688	n/a	199435	responseLargeT	error	n/a	0.33594	no	n/a	n/a
780.1054688	n/a	199707	largeTSmallH	correct	incongruent	0.50781	no	T	H
780.6132812	n/a	199837	responseLargeT	correct	n/a	0.50781	no	n/a	n/a
781.6796875	n/a	200110	largeHSmallH	correct	congruent	0.46875	no	H	H
782.1484375	n/a	200230	responseLargeH	correct	n/a	0.46875	no	n/a	n/a
783.2265625	n/a	200506	largeHSmallT	correct	incongruent	0.40625	no	H	T
783.6328125	n/a	200610	responseLargeH	correct	n/a	0.40625	no	n/a	n/a
784.7070312	n/a	200885	largeHSmallH	correct	congruent	0.3125	no	H	H
785.0195312	n/a	200965	responseLargeH	correct	n/a	0.3125	no	n/a	n/a
786.09375	n/a	201240	largeTSmallH	correct	incongruent	0.47656	no	T	H
786.5703125	n/a	201362	responseLargeT	correct	n/a	0.47656	no	n/a	n/a
787.640625	n/a	201636	largeTSmallT	correct	congruent	0.38281	no	T	T
788.0234375	n/a	201734	responseLargeT	correct	n/a	0.38281	no	n/a	n/a
789.09375	n/a	202008	largeTSmallT	correct	congruent	0.37891	no	T	T
789.4726562	n/a	202105	responseLargeT	correct	n/a	0.37891	no	n/a	n/a
790.546875	n/a	202380	largeTSmallT	correct	congruent	0.32031	no	T	T
790.8671875	n/a	202462	responseLargeT	correct	n/a	0.32031	no	n/a	n/a
791.9453125	n/a	202738	largeHSmallH	correct	congruent	0.48828	no	H	H
792.4335938	n/a	202863	responseLargeH	correct	n/a	0.48828	no	n/a	n/a
793.5039062	n/a	203137	largeTSmallT	correct	congruent	0.52734	no	T	T
794.03125	n/a	203272	responseLargeT	correct	n/a	0.52734	no	n/a	n/a
795.09375	n/a	203544	largeTSmallH	correct	incongruent	0.49219	no	T	H
795.5859375	n/a	203670	responseLargeT	correct	n/a	0.49219	no	n/a	n/a
796.6523438	n/a	203943	largeHSmallT	correct	incongruent	0.44141	no	H	T
797.09375	n/a	204056	responseLargeH	correct	n/a	0.44141	no	n/a	n/a
798.1445312	n/a	204325	largeHSmallH	correct	congruent	0.39844	no	H	H
798.5429688	n/a	204427	responseLargeH	correct	n/a	0.39844	no	n/a	n/a
799.5976562	n/a	204697	largeTSmallH	correct	incongruent	0.47266	no	T	H
800.0703125	n/a	204818	responseLargeT	correct	n/a	0.47266	no	n/a	n/a
801.1328125	n/a	205090	largeTSmallT	correct	congruent	0.48828	no	T	T
801.6210938	n/a	205215	responseLargeT	correct	n/a	0.48828	no	n/a	n/a
802.6914062	n/a	205489	largeTSmallH	correct	incongruent	0.34375	no	T	H
803.0351562	n/a	205577	responseLargeT	correct	n/a	0.34375	no	n/a	n/a
804.1054688	n/a	205851	largeTSmallT	correct	congruent	0.42578	no	T	T
804.53125	n/a	205960	responseLargeT	correct	n/a	0.42578	no	n/a	n/a
805.5976562	n/a	206233	largeTSmallT	correct	congruent	0.41016	no	T	T
806.0078125	n/a	206338	responseLargeT	correct	n/a	0.41016	no	n/a	n/a
807.078125	n/a	206612	largeHSmallT	correct	incongruent	0.42969	no	H	T
807.5078125	n/a	206722	responseLargeH	correct	n/a	0.42969	no	n/a	n/a
808.5703125	n/a	206994	largeHSmallH	correct	congruent	0.45312	no	H	H
809.0234375	n/a	207110	responseLargeH	correct	n/a	0.45312	no	n/a	n/a
810.0898438	n/a	207383	largeTSmallH	correct	incongruent	0.42188	no	T	H
810.5117188	n/a	207491	responseLargeT	correct	n/a	0.42188	no	n/a	n/a
811.5859375	n/a	207766	largeHSmallT	correct	incongruent	0.39844	no	H	T
811.984375	n/a	207868	responseLargeH	correct	n/a	0.39844	no	n/a	n/a
813.0507812	n/a	208141	largeHSmallT	correct	incongruent	0.70312	no	H	T
813.7539062	n/a	208321	responseLargeH	correct	n/a	0.70312	no	n/a	n/a
814.8242188	n/a	208595	largeTSmallT	correct	congruent	0.42188	no	T	T
815.2460938	n/a	208703	responseLargeT	correct	n/a	0.42188	no	n/a	n/a
816.3046875	n/a	208974	largeHSmallT	correct	incongruent	0.33984	no	H	T
816.6445312	n/a	209061	responseLargeH	correct	n/a	0.33984	no	n/a	n/a
817.71875	n/a	209336	largeHSmallH	correct	congruent	0.47266	no	H	H
818.1914062	n/a	209457	responseLargeH	correct	n/a	0.47266	no	n/a	n/a
819.265625	n/a	209732	largeHSmallT	correct	incongruent	0.36719	no	H	T
819.6328125	n/a	209826	responseLargeH	correct	n/a	0.36719	no	n/a	n/a
820.6914062	n/a	210097	largeHSmallH	correct	congruent	0.32422	no	H	H
821.015625	n/a	210180	responseLargeH	correct	n/a	0.32422	no	n/a	n/a
822.078125	n/a	210452	largeTSmallT	correct	congruent	0.49609	no	T	T
822.5742188	n/a	210579	responseLargeT	correct	n/a	0.49609	no	n/a	n/a
823.6367188	n/a	210851	largeHSmallH	correct	congruent	0.39453	no	H	H
824.03125	n/a	210952	responseLargeH	correct	n/a	0.39453	no	n/a	n/a
825.0898438	n/a	211223	largeHSmallT	correct	incongruent	0.42578	no	H	T
825.515625	n/a	211332	responseLargeH	correct	n/a	0.42578	no	n/a	n/a
826.5703125	n/a	211602	largeTSmallH	correct	incongruent	0.46875	no	T	H
827.0390625	n/a	211722	responseLargeT	correct	n/a	0.46875	no	n/a	n/a
828.1054688	n/a	211995	largeTSmallH	correct	incongruent	0.47266	no	T	H
828.578125	n/a	212116	responseLargeT	correct	n/a	0.47266	no	n/a	n/a
829.6523438	n/a	212391	largeTSmallH	correct	incongruent	0.35547	no	T	H
830.0078125	n/a	212482	responseLargeT	correct	n/a	0.35547	no	n/a	n/a
831.078125	n/a	212756	largeHSmallH	correct	congruent	0.46094	no	H	H
831.5390625	n/a	212874	responseLargeH	correct	n/a	0.46094	no	n/a	n/a
832.609375	n/a	213148	largeTSmallT	correct	congruent	0.41406	no	T	T
833.0234375	n/a	213254	responseLargeT	correct	n/a	0.41406	no	n/a	n/a
834.0898438	n/a	213527	largeTSmallT	correct	congruent	0.42969	no	T	T
834.5195312	n/a	213637	responseLargeT	correct	n/a	0.42969	no	n/a	n/a
835.5976562	n/a	213913	largeTSmallH	correct	incongruent	0.62109	no	T	H
836.21875	n/a	214072	responseLargeT	correct	n/a	0.62109	no	n/a	n/a
837.2929688	n/a	214347	largeHSmallH	correct	congruent	0.40234	no	H	H
837.6953125	n/a	214450	responseLargeH	correct	n/a	0.40234	no	n/a	n/a
838.7578125	n/a	214722	largeHSmallH	correct	congruent	0.42969	no	H	H
839.1875	n/a	214832	responseLargeH	correct	n/a	0.42969	no	n/a	n/a
840.25	n/a	215104	largeHSmallH	correct	congruent	0.39844	no	H	H
840.6484375	n/a	215206	responseLargeH	correct	n/a	0.39844	no	n/a	n/a
841.703125	n/a	215476	largeHSmallH	correct	congruent	0.32031	no	H	H
842.0234375	n/a	215558	responseLargeH	correct	n/a	0.32031	no	n/a	n/a
843.0898438	n/a	215831	largeHSmallH	correct	congruent	0.33984	no	H	H
843.4296875	n/a	215918	responseLargeH	correct	n/a	0.33984	no	n/a	n/a
844.5039062	n/a	216193	largeTSmallH	correct	incongruent	0.54688	no	T	H
845.0507812	n/a	216333	responseLargeT	correct	n/a	0.54688	no	n/a	n/a
846.1171875	n/a	216606	largeHSmallT	correct	incongruent	0.33594	no	H	T
846.453125	n/a	216692	responseLargeH	correct	n/a	0.33594	no	n/a	n/a
847.53125	n/a	216968	largeTSmallH	correct	incongruent	0.55078	no	T	H
848.0820312	n/a	217109	responseLargeT	correct	n/a	0.55078	no	n/a	n/a
849.1445312	n/a	217381	largeHSmallT	correct	incongruent	0.375	no	H	T
849.5195312	n/a	217477	responseLargeH	correct	n/a	0.375	no	n/a	n/a
850.5859375	n/a	217750	largeHSmallT	correct	incongruent	0.41406	no	H	T
851	n/a	217856	responseLargeH	correct	n/a	0.41406	no	n/a	n/a
852.0625	n/a	218128	largeHSmallT	correct	incongruent	0.36328	no	H	T
852.4257812	n/a	218221	responseLargeH	correct	n/a	0.36328	no	n/a	n/a
853.5039062	n/a	218497	largeHSmallH	correct	congruent	0.33203	no	H	H
853.8359375	n/a	218582	responseLargeH	correct	n/a	0.33203	no	n/a	n/a
854.9023438	n/a	218855	largeHSmallT	correct	incongruent	0.34375	no	H	T
855.2460938	n/a	218943	responseLargeH	correct	n/a	0.34375	no	n/a	n/a
856.3046875	n/a	219214	largeTSmallH	error	incongruent	0.32031	no	T	H
856.625	n/a	219296	responseLargeH	error	n/a	0.32031	no	n/a	n/a
857.6914062	n/a	219569	largeHSmallT	correct	incongruent	0.39453	no	H	T
858.0859375	n/a	219670	responseLargeH	correct	n/a	0.39453	no	n/a	n/a
859.1445312	n/a	219941	largeHSmallT	error	incongruent	0.46484	no	H	T
859.609375	n/a	220060	responseLargeT	error	n/a	0.46484	no	n/a	n/a
860.6757812	n/a	220333	largeHSmallH	correct	congruent	0.44922	no	H	H
861.125	n/a	220448	responseLargeH	correct	n/a	0.44922	no	n/a	n/a
862.1992188	n/a	220723	largeHSmallT	correct	incongruent	0.35547	no	H	T
862.5546875	n/a	220814	responseLargeH	correct	n/a	0.35547	no	n/a	n/a
863.625	n/a	221088	largeHSmallT	correct	incongruent	0.32031	no	H	T
863.9453125	n/a	221170	responseLargeH	correct	n/a	0.32031	no	n/a	n/a
865.0117188	n/a	221443	largeTSmallH	correct	incongruent	0.41016	no	T	H
865.421875	n/a	221548	responseLargeT	correct	n/a	0.41016	no	n/a	n/a
866.4765625	n/a	221818	largeHSmallH	correct	congruent	0.42578	no	H	H
866.9023438	n/a	221927	responseLargeH	correct	n/a	0.42578	no	n/a	n/a
867.9570312	n/a	222197	largeTSmallT	correct	congruent	0.38281	no	T	T
868.3398438	n/a	222295	responseLargeT	correct	n/a	0.38281	no	n/a	n/a
869.4101562	n/a	222569	largeTSmallT	correct	congruent	0.41406	no	T	T
869.8242188	n/a	222675	responseLargeT	correct	n/a	0.41406	no	n/a	n/a
870.890625	n/a	222948	largeHSmallT	correct	incongruent	0.39844	no	H	T
871.2890625	n/a	223050	responseLargeH	correct	n/a	0.39844	no	n/a	n/a
872.3554688	n/a	223323	largeTSmallH	correct	incongruent	0.48438	no	T	H
872.8398438	n/a	223447	responseLargeT	correct	n/a	0.48438	no	n/a	n/a
873.9023438	n/a	223719	largeTSmallT	correct	congruent	0.44531	no	T	T
874.3476562	n/a	223833	responseLargeT	correct	n/a	0.44531	no	n/a	n/a
875.421875	n/a	224108	largeTSmallH	correct	incongruent	0.34766	no	T	H
875.7695312	n/a	224197	responseLargeT	correct	n/a	0.34766	no	n/a	n/a
876.8359375	n/a	224470	largeTSmallT	correct	congruent	0.42969	no	T	T
877.265625	n/a	224580	responseLargeT	correct	n/a	0.42969	no	n/a	n/a
878.3320312	n/a	224853	largeTSmallH	correct	incongruent	0.37891	no	T	H
878.7109375	n/a	224950	responseLargeT	correct	n/a	0.37891	no	n/a	n/a
879.7695312	n/a	225221	largeTSmallH	correct	incongruent	0.3125	no	T	H
880.0820312	n/a	225301	responseLargeT	correct	n/a	0.3125	no	n/a	n/a
881.1445312	n/a	225573	largeTSmallT	correct	congruent	0.30469	no	T	T
881.4492188	n/a	225651	responseLargeT	correct	n/a	0.30469	no	n/a	n/a
882.515625	n/a	225924	largeHSmallH	correct	congruent	0.46094	no	H	H
882.9765625	n/a	226042	responseLargeH	correct	n/a	0.46094	no	n/a	n/a
884.0507812	n/a	226317	largeHSmallT	correct	incongruent	0.32812	no	H	T
884.3789062	n/a	226401	responseLargeH	correct	n/a	0.32812	no	n/a	n/a
885.4492188	n/a	226675	largeTSmallH	correct	incongruent	0.57812	no	T	H
886.0273438	n/a	226823	responseLargeT	correct	n/a	0.57812	no	n/a	n/a
887.0898438	n/a	227095	largeTSmallT	error	congruent	0.36328	no	T	T
887.453125	n/a	227188	responseLargeH	error	n/a	0.36328	no	n/a	n/a
888.53125	n/a	227464	largeHSmallT	correct	incongruent	0.46094	no	H	T
888.9921875	n/a	227582	responseLargeH	correct	n/a	0.46094	no	n/a	n/a
890.0625	n/a	227856	largeHSmallT	error	incongruent	0.49219	no	H	T
890.5546875	n/a	227982	responseLargeT	error	n/a	0.49219	no	n/a	n/a
891.625	n/a	228256	largeTSmallH	correct	incongruent	0.42188	no	T	H
892.046875	n/a	228364	responseLargeT	correct	n/a	0.42188	no	n/a	n/a
893.1171875	n/a	228638	largeHSmallT	correct	incongruent	0.3125	no	H	T
893.4296875	n/a	228718	responseLargeH	correct	n/a	0.3125	no	n/a	n/a
894.5039062	n/a	228993	largeHSmallH	correct	congruent	0.35547	no	H	H
894.859375	n/a	229084	responseLargeH	correct	n/a	0.35547	no	n/a	n/a
895.9296875	n/a	229358	largeTSmallT	correct	congruent	0.5	no	T	T
896.4296875	n/a	229486	responseLargeT	correct	n/a	0.5	no	n/a	n/a
897.4882812	n/a	229757	largeTSmallT	correct	congruent	0.71094	no	T	T
898.1992188	n/a	229939	responseLargeT	correct	n/a	0.71094	no	n/a	n/a
899.2773438	n/a	230215	largeTSmallH	correct	incongruent	0.57422	no	T	H
899.8515625	n/a	230362	responseLargeT	correct	n/a	0.57422	no	n/a	n/a
900.9296875	n/a	230638	largeHSmallH	correct	congruent	0.47266	no	H	H
901.4023438	n/a	230759	responseLargeH	correct	n/a	0.47266	no	n/a	n/a
902.4765625	n/a	231034	largeTSmallT	correct	congruent	0.36328	no	T	T
902.8398438	n/a	231127	responseLargeT	correct	n/a	0.36328	no	n/a	n/a
903.9023438	n/a	231399	largeTSmallT	correct	congruent	0.42578	no	T	T
904.328125	n/a	231508	responseLargeT	correct	n/a	0.42578	no	n/a	n/a
905.3828125	n/a	231778	largeTSmallH	error	incongruent	0.45312	no	T	H
905.8359375	n/a	231894	responseLargeH	error	n/a	0.45312	no	n/a	n/a
906.9023438	n/a	232167	largeTSmallT	correct	congruent	0.48438	no	T	T
907.3867188	n/a	232291	responseLargeT	correct	n/a	0.48438	no	n/a	n/a
908.4609375	n/a	232566	largeTSmallH	correct	incongruent	0.59766	no	T	H
909.0585938	n/a	232719	responseLargeT	correct	n/a	0.59766	no	n/a	n/a
910.1289062	n/a	232993	largeTSmallT	correct	congruent	0.38281	no	T	T
910.5117188	n/a	233091	responseLargeT	correct	n/a	0.38281	no	n/a	n/a
911.5820312	n/a	233365	largeTSmallT	correct	congruent	0.37109	no	T	T
911.953125	n/a	233460	responseLargeT	correct	n/a	0.37109	no	n/a	n/a
913.0078125	n/a	233730	largeTSmallT	correct	congruent	0.33984	no	T	T
913.3476562	n/a	233817	responseLargeT	correct	n/a	0.33984	no	n/a	n/a
914.421875	n/a	234092	largeHSmallH	correct	congruent	0.38672	no	H	H
914.8085938	n/a	234191	responseLargeH	correct	n/a	0.38672	no	n/a	n/a
915.875	n/a	234464	largeHSmallH	correct	congruent	0.41406	no	H	H
916.2890625	n/a	234570	responseLargeH	correct	n/a	0.41406	no	n/a	n/a
917.3554688	n/a	234843	largeHSmallH	correct	congruent	0.35547	no	H	H
917.7109375	n/a	234934	responseLargeH	correct	n/a	0.35547	no	n/a	n/a
918.7695312	n/a	235205	largeTSmallH	correct	incongruent	0.44531	no	T	H
919.2148438	n/a	235319	responseLargeT	correct	n/a	0.44531	no	n/a	n/a
920.2890625	n/a	235594	largeTSmallH	correct	incongruent	0.37109	no	T	H
920.6601562	n/a	235689	responseLargeT	correct	n/a	0.37109	no	n/a	n/a
921.7148438	n/a	235959	largeHSmallH	correct	congruent	0.51562	no	H	H
922.2304688	n/a	236091	responseLargeH	correct	n/a	0.51562	no	n/a	n/a
923.2890625	n/a	236362	largeHSmallT	correct	incongruent	0.62891	no	H	T
923.9179688	n/a	236523	responseLargeH	correct	n/a	0.62891	no	n/a	n/a
924.9804688	n/a	236795	largeHSmallT	correct	incongruent	0.37891	no	H	T
925.359375	n/a	236892	responseLargeH	correct	n/a	0.37891	no	n/a	n/a
926.4375	n/a	237168	largeHSmallT	correct	incongruent	0.37109	no	H	T
926.8085938	n/a	237263	responseLargeH	correct	n/a	0.37109	no	n/a	n/a
927.890625	n/a	237540	largeTSmallH	correct	incongruent	0.49219	no	T	H
928.3828125	n/a	237666	responseLargeT	correct	n/a	0.49219	no	n/a	n/a
929.4492188	n/a	237939	largeHSmallT	correct	incongruent	0.38281	no	H	T
929.8320312	n/a	238037	responseLargeH	correct	n/a	0.38281	no	n/a	n/a
930.890625	n/a	238308	largeTSmallH	correct	incongruent	0.36328	no	T	H
931.2539062	n/a	238401	responseLargeT	correct	n/a	0.36328	no	n/a	n/a
932.3164062	n/a	238673	largeTSmallT	correct	congruent	0.45703	no	T	T
932.7734375	n/a	238790	responseLargeT	correct	n/a	0.45703	no	n/a	n/a
933.8359375	n/a	239062	largeHSmallH	correct	congruent	0.48438	no	H	H
934.3203125	n/a	239186	responseLargeH	correct	n/a	0.48438	no	n/a	n/a
935.3828125	n/a	239458	largeTSmallH	correct	incongruent	0.48828	no	T	H
935.8710938	n/a	239583	responseLargeT	correct	n/a	0.48828	no	n/a	n/a
936.9296875	n/a	239854	largeTSmallT	correct	congruent	0.375	no	T	T
937.3046875	n/a	239950	responseLargeT	correct	n/a	0.375	no	n/a	n/a
938.3671875	n/a	240222	largeHSmallH	correct	congruent	0.42188	no	H	H
938.7890625	n/a	240330	responseLargeH	correct	n/a	0.42188	no	n/a	n/a
942.4882812	n/a	241277	largeTSmallT	correct	congruent	1.0117	no	T	T
943.5	n/a	241536	responseSmallT	correct	n/a	1.0117	no	n/a	n/a
944.5703125	n/a	241810	largeHSmallT	correct	incongruent	0.56641	no	H	T
945.1367188	n/a	241955	responseSmallT	correct	n/a	0.56641	no	n/a	n/a
946.2070312	n/a	242229	largeTSmallT	correct	congruent	0.45703	no	T	T
946.6640625	n/a	242346	responseSmallT	correct	n/a	0.45703	no	n/a	n/a
947.7304688	n/a	242619	largeTSmallH	correct	incongruent	0.72656	no	T	H
948.4570312	n/a	242805	responseSmallH	correct	n/a	0.72656	no	n/a	n/a
949.515625	n/a	243076	largeHSmallT	correct	incongruent	0.46484	no	H	T
949.9804688	n/a	243195	responseSmallT	correct	n/a	0.46484	no	n/a	n/a
951.046875	n/a	243468	largeTSmallH	correct	incongruent	0.375	no	T	H
951.421875	n/a	243564	responseSmallH	correct	n/a	0.375	no	n/a	n/a
952.4882812	n/a	243837	largeHSmallH	correct	congruent	0.48047	no	H	H
952.96875	n/a	243960	responseSmallH	correct	n/a	0.48047	no	n/a	n/a
954.0234375	n/a	244230	largeHSmallH	correct	congruent	0.40234	no	H	H
954.4257812	n/a	244333	responseSmallH	correct	n/a	0.40234	no	n/a	n/a
955.4882812	n/a	244605	largeTSmallH	correct	incongruent	0.42969	no	T	H
955.9179688	n/a	244715	responseSmallH	correct	n/a	0.42969	no	n/a	n/a
956.96875	n/a	244984	largeHSmallT	correct	incongruent	0.5	no	H	T
957.46875	n/a	245112	responseSmallT	correct	n/a	0.5	no	n/a	n/a
958.5273438	n/a	245383	largeTSmallH	correct	incongruent	0.44141	no	T	H
958.96875	n/a	245496	responseSmallH	correct	n/a	0.44141	no	n/a	n/a
960.0351562	n/a	245769	largeTSmallT	correct	congruent	0.33203	no	T	T
960.3671875	n/a	245854	responseSmallT	correct	n/a	0.33203	no	n/a	n/a
961.4335938	n/a	246127	largeTSmallT	correct	congruent	0.42969	no	T	T
961.8632812	n/a	246237	responseSmallT	correct	n/a	0.42969	no	n/a	n/a
962.9296875	n/a	246510	largeTSmallT	correct	congruent	0.41797	no	T	T
963.3476562	n/a	246617	responseSmallT	correct	n/a	0.41797	no	n/a	n/a
964.421875	n/a	246892	largeTSmallT	correct	congruent	0.48047	no	T	T
964.9023438	n/a	247015	responseSmallT	correct	n/a	0.48047	no	n/a	n/a
965.9570312	n/a	247285	largeHSmallH	correct	congruent	0.41016	no	H	H
966.3671875	n/a	247390	responseSmallH	correct	n/a	0.41016	no	n/a	n/a
967.421875	n/a	247660	largeHSmallT	correct	incongruent	0.55859	no	H	T
967.9804688	n/a	247803	responseSmallT	correct	n/a	0.55859	no	n/a	n/a
969.046875	n/a	248076	largeTSmallH	correct	incongruent	0.5625	no	T	H
969.609375	n/a	248220	responseSmallH	correct	n/a	0.5625	no	n/a	n/a
970.6757812	n/a	248493	largeTSmallH	correct	incongruent	0.55469	no	T	H
971.2304688	n/a	248635	responseSmallH	correct	n/a	0.55469	no	n/a	n/a
972.3007812	n/a	248909	largeTSmallT	correct	congruent	0.45312	no	T	T
972.7539062	n/a	249025	responseSmallT	correct	n/a	0.45312	no	n/a	n/a
973.8203125	n/a	249298	largeHSmallH	correct	congruent	0.38672	no	H	H
974.2070312	n/a	249397	responseSmallH	correct	n/a	0.38672	no	n/a	n/a
975.2734375	n/a	249670	largeHSmallT	correct	incongruent	0.375	no	H	T
975.6484375	n/a	249766	responseSmallT	correct	n/a	0.375	no	n/a	n/a
976.7148438	n/a	250039	largeTSmallT	correct	congruent	0.4375	no	T	T
977.1523438	n/a	250151	responseSmallT	correct	n/a	0.4375	no	n/a	n/a
978.2226562	n/a	250425	largeTSmallH	correct	incongruent	0.69922	no	T	H
978.921875	n/a	250604	responseSmallH	correct	n/a	0.69922	no	n/a	n/a
979.9804688	n/a	250875	largeTSmallT	correct	congruent	0.46094	no	T	T
980.4414062	n/a	250993	responseSmallT	correct	n/a	0.46094	no	n/a	n/a
981.5	n/a	251264	largeHSmallT	correct	incongruent	0.69531	no	H	T
982.1953125	n/a	251442	responseSmallT	correct	n/a	0.69531	no	n/a	n/a
983.2617188	n/a	251715	largeTSmallT	correct	congruent	0.37891	no	T	T
983.640625	n/a	251812	responseSmallT	correct	n/a	0.37891	no	n/a	n/a
984.7148438	n/a	252087	largeHSmallH	correct	congruent	0.44922	no	H	H
985.1640625	n/a	252202	responseSmallH	correct	n/a	0.44922	no	n/a	n/a
986.2226562	n/a	252473	largeTSmallT	correct	congruent	0.43359	no	T	T
986.65625	n/a	252584	responseSmallT	correct	n/a	0.43359	no	n/a	n/a
987.7265625	n/a	252858	largeHSmallT	correct	incongruent	0.46875	no	H	T
988.1953125	n/a	252978	responseSmallT	correct	n/a	0.46875	no	n/a	n/a
989.2734375	n/a	253254	largeHSmallH	correct	congruent	0.44531	no	H	H
989.71875	n/a	253368	responseSmallH	correct	n/a	0.44531	no	n/a	n/a
990.78125	n/a	253640	largeTSmallH	correct	incongruent	0.43359	no	T	H
991.2148438	n/a	253751	responseSmallH	correct	n/a	0.43359	no	n/a	n/a
992.2734375	n/a	254022	largeTSmallT	correct	congruent	0.99219	no	T	T
993.265625	n/a	254276	responseSmallT	correct	n/a	0.99219	no	n/a	n/a
994.3398438	n/a	254551	largeTSmallT	correct	congruent	0.5625	no	T	T
994.9023438	n/a	254695	responseSmallT	correct	n/a	0.5625	no	n/a	n/a
995.9804688	n/a	254971	largeTSmallT	correct	congruent	0.45703	no	T	T
996.4375	n/a	255088	responseSmallT	correct	n/a	0.45703	no	n/a	n/a
997.5	n/a	255360	largeHSmallT	correct	incongruent	0.42578	no	H	T
997.9257812	n/a	255469	responseSmallT	correct	n/a	0.42578	no	n/a	n/a
998.9804688	n/a	255739	largeHSmallH	correct	congruent	0.41797	no	H	H
999.3984375	n/a	255846	responseSmallH	correct	n/a	0.41797	no	n/a	n/a
1000.472656	n/a	256121	largeHSmallH	correct	congruent	0.36719	no	H	H
1000.839844	n/a	256215	responseSmallH	correct	n/a	0.36719	no	n/a	n/a
1001.902344	n/a	256487	largeHSmallT	correct	incongruent	0.5	no	H	T
1002.402344	n/a	256615	responseSmallT	correct	n/a	0.5	no	n/a	n/a
1003.460938	n/a	256886	largeHSmallH	correct	congruent	0.35938	no	H	H
1003.820312	n/a	256978	responseSmallH	correct	n/a	0.35938	no	n/a	n/a
1004.886719	n/a	257251	largeHSmallH	correct	congruent	0.44141	no	H	H
1005.328125	n/a	257364	responseSmallH	correct	n/a	0.44141	no	n/a	n/a
1006.394531	n/a	257637	largeHSmallT	correct	incongruent	0.53906	no	H	T
1006.933594	n/a	257775	responseSmallT	correct	n/a	0.53906	no	n/a	n/a
1008.007812	n/a	258050	largeHSmallT	correct	incongruent	0.39062	no	H	T
1008.398438	n/a	258150	responseSmallT	correct	n/a	0.39062	no	n/a	n/a
1009.472656	n/a	258425	largeHSmallT	correct	incongruent	0.45312	no	H	T
1009.925781	n/a	258541	responseSmallT	correct	n/a	0.45312	no	n/a	n/a
1010.992188	n/a	258814	largeTSmallT	correct	congruent	0.4375	no	T	T
1011.429688	n/a	258926	responseSmallT	correct	n/a	0.4375	no	n/a	n/a
1012.5	n/a	259200	largeHSmallH	correct	congruent	0.51562	no	H	H
1013.015625	n/a	259332	responseSmallH	correct	n/a	0.51562	no	n/a	n/a
1014.085938	n/a	259606	largeTSmallT	correct	congruent	0.55859	no	T	T
1014.644531	n/a	259749	responseSmallT	correct	n/a	0.55859	no	n/a	n/a
1015.714844	n/a	260023	largeTSmallH	correct	incongruent	0.47656	no	T	H
1016.191406	n/a	260145	responseSmallH	correct	n/a	0.47656	no	n/a	n/a
1017.261719	n/a	260419	largeTSmallH	correct	incongruent	0.46484	no	T	H
1017.726562	n/a	260538	responseSmallH	correct	n/a	0.46484	no	n/a	n/a
1018.792969	n/a	260811	largeTSmallH	correct	incongruent	0.47656	no	T	H
1019.269531	n/a	260933	responseSmallH	correct	n/a	0.47656	no	n/a	n/a
1020.328125	n/a	261204	largeHSmallH	correct	congruent	0.59375	no	H	H
1020.921875	n/a	261356	responseSmallH	correct	n/a	0.59375	no	n/a	n/a
1021.980469	n/a	261627	largeHSmallT	error	incongruent	0.46094	no	H	T
1022.441406	n/a	261745	responseSmallH	error	n/a	0.46094	no	n/a	n/a
1023.515625	n/a	262020	largeHSmallH	correct	congruent	0.35156	no	H	H
1023.867188	n/a	262110	responseSmallH	correct	n/a	0.35156	no	n/a	n/a
1024.925781	n/a	262381	largeHSmallH	correct	congruent	0.47656	no	H	H
1025.402344	n/a	262503	responseSmallH	correct	n/a	0.47656	no	n/a	n/a
1026.472656	n/a	262777	largeTSmallH	correct	incongruent	0.47656	no	T	H
1026.949219	n/a	262899	responseSmallH	correct	n/a	0.47656	no	n/a	n/a
1028.019531	n/a	263173	largeHSmallH	correct	congruent	0.50391	no	H	H
1028.523438	n/a	263302	responseSmallH	correct	n/a	0.50391	no	n/a	n/a
1029.59375	n/a	263576	largeTSmallT	correct	congruent	0.48438	no	T	T
1030.078125	n/a	263700	responseSmallT	correct	n/a	0.48438	no	n/a	n/a
1031.140625	n/a	263972	largeHSmallH	correct	congruent	0.52734	no	H	H
1031.667969	n/a	264107	responseSmallH	correct	n/a	0.52734	no	n/a	n/a
1032.726562	n/a	264378	largeTSmallT	correct	congruent	0.40234	no	T	T
1033.128906	n/a	264481	responseSmallT	correct	n/a	0.40234	no	n/a	n/a
1034.195312	n/a	264754	largeTSmallT	correct	congruent	0.44531	no	T	T
1034.640625	n/a	264868	responseSmallT	correct	n/a	0.44531	no	n/a	n/a
1035.714844	n/a	265143	largeTSmallH	correct	incongruent	0.41797	no	T	H
1036.132812	n/a	265250	responseSmallH	correct	n/a	0.41797	no	n/a	n/a
1037.195312	n/a	265522	largeTSmallH	correct	incongruent	0.41797	no	T	H
1037.613281	n/a	265629	responseSmallH	correct	n/a	0.41797	no	n/a	n/a
1038.671875	n/a	265900	largeTSmallT	correct	congruent	0.48047	no	T	T
1039.152344	n/a	266023	responseSmallT	correct	n/a	0.48047	no	n/a	n/a
1040.21875	n/a	266296	largeHSmallH	correct	congruent	0.39844	no	H	H
1040.617188	n/a	266398	responseSmallH	correct	n/a	0.39844	no	n/a	n/a
1041.6875	n/a	266672	largeHSmallH	correct	congruent	0.49609	no	H	H
1042.183594	n/a	266799	responseSmallH	correct	n/a	0.49609	no	n/a	n/a
1043.246094	n/a	267071	largeHSmallT	correct	incongruent	0.47656	no	H	T
1043.722656	n/a	267193	responseSmallT	correct	n/a	0.47656	no	n/a	n/a
1044.792969	n/a	267467	largeTSmallT	correct	congruent	0.48438	no	T	T
1045.277344	n/a	267591	responseSmallT	correct	n/a	0.48438	no	n/a	n/a
1046.351562	n/a	267866	largeHSmallH	correct	congruent	0.48047	no	H	H
1046.832031	n/a	267989	responseSmallH	correct	n/a	0.48047	no	n/a	n/a
1047.898438	n/a	268262	largeTSmallH	correct	incongruent	0.51953	no	T	H
1048.417969	n/a	268395	responseSmallH	correct	n/a	0.51953	no	n/a	n/a
1049.488281	n/a	268669	largeHSmallT	correct	incongruent	0.45312	no	H	T
1049.941406	n/a	268785	responseSmallT	correct	n/a	0.45312	no	n/a	n/a
1051.007812	n/a	269058	largeHSmallH	correct	congruent	0.43359	no	H	H
1051.441406	n/a	269169	responseSmallH	correct	n/a	0.43359	no	n/a	n/a
1052.511719	n/a	269443	largeHSmallT	correct	incongruent	0.53125	no	H	T
1053.042969	n/a	269579	responseSmallT	correct	n/a	0.53125	no	n/a	n/a
1054.101562	n/a	269850	largeTSmallH	correct	incongruent	0.39844	no	T	H
1054.5	n/a	269952	responseSmallH	correct	n/a	0.39844	no	n/a	n/a
1055.566406	n/a	270225	largeTSmallH	correct	incongruent	0.53906	no	T	H
1056.105469	n/a	270363	responseSmallH	correct	n/a	0.53906	no	n/a	n/a
1057.179688	n/a	270638	largeTSmallT	correct	congruent	0.44141	no	T	T
1057.621094	n/a	270751	responseSmallT	correct	n/a	0.44141	no	n/a	n/a
1058.6875	n/a	271024	largeHSmallH	correct	congruent	0.35938	no	H	H
1059.046875	n/a	271116	responseSmallH	correct	n/a	0.35938	no	n/a	n/a
1060.113281	n/a	271389	largeHSmallT	correct	incongruent	0.44922	no	H	T
1060.5625	n/a	271504	responseSmallT	correct	n/a	0.44922	no	n/a	n/a
1061.621094	n/a	271775	largeHSmallH	correct	congruent	0.33203	no	H	H
1061.953125	n/a	271860	responseSmallH	correct	n/a	0.33203	no	n/a	n/a
1063.03125	n/a	272136	largeHSmallH	correct	congruent	0.52344	no	H	H
1063.554688	n/a	272270	responseSmallH	correct	n/a	0.52344	no	n/a	n/a
1064.621094	n/a	272543	largeHSmallT	correct	incongruent	0.70312	no	H	T
1065.324219	n/a	272723	responseSmallT	correct	n/a	0.70312	no	n/a	n/a
1066.394531	n/a	272997	largeHSmallH	correct	congruent	0.36719	no	H	H
1066.761719	n/a	273091	responseSmallH	correct	n/a	0.36719	no	n/a	n/a
1067.832031	n/a	273365	largeHSmallT	correct	incongruent	0.625	no	H	T
1068.457031	n/a	273525	responseSmallT	correct	n/a	0.625	no	n/a	n/a
1069.527344	n/a	273799	largeTSmallH	correct	incongruent	0.60547	no	T	H
1070.132812	n/a	273954	responseSmallH	correct	n/a	0.60547	no	n/a	n/a
1071.191406	n/a	274225	largeTSmallH	correct	incongruent	0.50781	no	T	H
1071.699219	n/a	274355	responseSmallH	correct	n/a	0.50781	no	n/a	n/a
1072.765625	n/a	274628	largeHSmallH	correct	congruent	0.46484	no	H	H
1073.230469	n/a	274747	responseSmallH	correct	n/a	0.46484	no	n/a	n/a
1074.300781	n/a	275021	largeTSmallH	correct	incongruent	0.47266	no	T	H
1074.773438	n/a	275142	responseSmallH	correct	n/a	0.47266	no	n/a	n/a
1075.847656	n/a	275417	largeHSmallT	correct	incongruent	0.48438	no	H	T
1076.332031	n/a	275541	responseSmallT	correct	n/a	0.48438	no	n/a	n/a
1077.394531	n/a	275813	largeHSmallH	correct	congruent	0.38281	no	H	H
1077.777344	n/a	275911	responseSmallH	correct	n/a	0.38281	no	n/a	n/a
1078.847656	n/a	276185	largeTSmallH	correct	incongruent	0.45703	no	T	H
1079.304688	n/a	276302	responseSmallH	correct	n/a	0.45703	no	n/a	n/a
1080.367188	n/a	276574	largeHSmallH	correct	congruent	0.52734	no	H	H
1080.894531	n/a	276709	responseSmallH	correct	n/a	0.52734	no	n/a	n/a
1081.964844	n/a	276983	largeHSmallT	correct	incongruent	0.40234	no	H	T
1082.367188	n/a	277086	responseSmallT	correct	n/a	0.40234	no	n/a	n/a
1083.433594	n/a	277359	largeTSmallT	correct	congruent	0.51953	no	T	T
1083.953125	n/a	277492	responseSmallT	correct	n/a	0.51953	no	n/a	n/a
1085.019531	n/a	277765	largeHSmallH	correct	congruent	0.45703	no	H	H
1085.476562	n/a	277882	responseSmallH	correct	n/a	0.45703	no	n/a	n/a
1086.539062	n/a	278154	largeTSmallH	correct	incongruent	0.53906	no	T	H
1087.078125	n/a	278292	responseSmallH	correct	n/a	0.53906	no	n/a	n/a
1088.140625	n/a	278564	largeHSmallH	correct	congruent	0.52734	no	H	H
1088.667969	n/a	278699	responseSmallH	correct	n/a	0.52734	no	n/a	n/a
1089.738281	n/a	278973	largeTSmallH	correct	incongruent	0.48438	no	T	H
1090.222656	n/a	279097	responseSmallH	correct	n/a	0.48438	no	n/a	n/a
1091.296875	n/a	279372	largeHSmallT	correct	incongruent	0.46484	no	H	T
1091.761719	n/a	279491	responseSmallT	correct	n/a	0.46484	no	n/a	n/a
1092.820312	n/a	279762	largeHSmallH	correct	congruent	0.34375	no	H	H
1093.164062	n/a	279850	responseSmallH	correct	n/a	0.34375	no	n/a	n/a
1094.230469	n/a	280123	largeHSmallH	correct	congruent	0.44922	no	H	H
1094.679688	n/a	280238	responseSmallH	correct	n/a	0.44922	no	n/a	n/a
1095.738281	n/a	280509	largeHSmallT	correct	incongruent	0.46094	no	H	T
1096.199219	n/a	280627	responseSmallT	correct	n/a	0.46094	no	n/a	n/a
1097.273438	n/a	280902	largeHSmallT	correct	incongruent	0.48047	no	H	T
1097.753906	n/a	281025	responseSmallT	correct	n/a	0.48047	no	n/a	n/a
1098.832031	n/a	281301	largeHSmallT	error	incongruent	0.4375	no	H	T
1099.269531	n/a	281413	responseSmallH	error	n/a	0.4375	no	n/a	n/a
1100.339844	n/a	281687	largeTSmallT	correct	congruent	0.47656	no	T	T
1100.816406	n/a	281809	responseSmallT	correct	n/a	0.47656	no	n/a	n/a
1101.886719	n/a	282083	largeTSmallH	correct	incongruent	0.40234	no	T	H
1102.289062	n/a	282186	responseSmallH	correct	n/a	0.40234	no	n/a	n/a
1103.351562	n/a	282458	largeTSmallT	correct	congruent	0.39453	no	T	T
1103.746094	n/a	282559	responseSmallT	correct	n/a	0.39453	no	n/a	n/a
1104.820312	n/a	282834	largeHSmallH	correct	congruent	0.45312	no	H	H
1105.273438	n/a	282950	responseSmallH	correct	n/a	0.45312	no	n/a	n/a
1106.351562	n/a	283226	largeHSmallT	correct	incongruent	0.50781	no	H	T
1106.859375	n/a	283356	responseSmallT	correct	n/a	0.50781	no	n/a	n/a
1107.925781	n/a	283629	largeTSmallH	correct	incongruent	0.41406	no	T	H
1108.339844	n/a	283735	responseSmallH	correct	n/a	0.41406	no	n/a	n/a
1109.40625	n/a	284008	largeHSmallH	correct	congruent	0.62109	no	H	H
1110.027344	n/a	284167	responseSmallH	correct	n/a	0.62109	no	n/a	n/a
1111.085938	n/a	284438	largeHSmallT	correct	incongruent	0.45312	no	H	T
1111.539062	n/a	284554	responseSmallT	correct	n/a	0.45312	no	n/a	n/a
1112.605469	n/a	284827	largeHSmallH	correct	congruent	0.41016	no	H	H
1113.015625	n/a	284932	responseSmallH	correct	n/a	0.41016	no	n/a	n/a
1114.085938	n/a	285206	largeHSmallT	correct	incongruent	0.42578	no	H	T
1114.511719	n/a	285315	responseSmallT	correct	n/a	0.42578	no	n/a	n/a
1115.578125	n/a	285588	largeHSmallH	correct	congruent	0.37109	no	H	H
1115.949219	n/a	285683	responseSmallH	correct	n/a	0.37109	no	n/a	n/a
1117.019531	n/a	285957	largeTSmallH	correct	incongruent	0.48828	no	T	H
1117.507812	n/a	286082	responseSmallH	correct	n/a	0.48828	no	n/a	n/a
1118.578125	n/a	286356	largeTSmallT	correct	congruent	0.48438	no	T	T
1119.0625	n/a	286480	responseSmallT	correct	n/a	0.48438	no	n/a	n/a
1120.125	n/a	286752	largeHSmallH	correct	congruent	0.46875	no	H	H
1120.59375	n/a	286872	responseSmallH	correct	n/a	0.46875	no	n/a	n/a
1121.671875	n/a	287148	largeTSmallH	correct	incongruent	0.43359	no	T	H
1122.105469	n/a	287259	responseSmallH	correct	n/a	0.43359	no	n/a	n/a
1123.179688	n/a	287534	largeHSmallT	correct	incongruent	0.45703	no	H	T
1123.636719	n/a	287651	responseSmallT	correct	n/a	0.45703	no	n/a	n/a
1124.710938	n/a	287926	largeTSmallT	correct	congruent	0.44922	no	T	T
1125.160156	n/a	288041	responseSmallT	correct	n/a	0.44922	no	n/a	n/a
1126.21875	n/a	288312	largeTSmallH	correct	incongruent	0.41016	no	T	H
1126.628906	n/a	288417	responseSmallH	correct	n/a	0.41016	no	n/a	n/a
1127.683594	n/a	288687	largeHSmallT	correct	incongruent	0.38672	no	H	T
1128.070312	n/a	288786	responseSmallT	correct	n/a	0.38672	no	n/a	n/a
1129.136719	n/a	289059	largeHSmallH	correct	congruent	0.36328	no	H	H
1129.5	n/a	289152	responseSmallH	correct	n/a	0.36328	no	n/a	n/a
1130.566406	n/a	289425	largeHSmallH	correct	congruent	0.59375	no	H	H
1131.160156	n/a	289577	responseSmallH	correct	n/a	0.59375	no	n/a	n/a
1132.230469	n/a	289851	largeHSmallT	correct	incongruent	0.42969	no	H	T
1132.660156	n/a	289961	responseSmallT	correct	n/a	0.42969	no	n/a	n/a
1133.726562	n/a	290234	largeHSmallT	correct	incongruent	0.37891	no	H	T
1134.105469	n/a	290331	responseSmallT	correct	n/a	0.37891	no	n/a	n/a
1135.179688	n/a	290606	largeHSmallH	correct	congruent	0.5	no	H	H
1135.679688	n/a	290734	responseSmallH	correct	n/a	0.5	no	n/a	n/a
1136.75	n/a	291008	largeTSmallH	correct	incongruent	0.46875	no	T	H
1137.21875	n/a	291128	responseSmallH	correct	n/a	0.46875	no	n/a	n/a
1138.285156	n/a	291401	largeTSmallH	correct	incongruent	0.49609	no	T	H
1138.78125	n/a	291528	responseSmallH	correct	n/a	0.49609	no	n/a	n/a
1139.84375	n/a	291800	largeTSmallT	correct	congruent	0.48438	no	T	T
1140.328125	n/a	291924	responseSmallT	correct	n/a	0.48438	no	n/a	n/a
1141.40625	n/a	292200	largeTSmallT	correct	congruent	0.54297	no	T	T
1141.949219	n/a	292339	responseSmallT	correct	n/a	0.54297	no	n/a	n/a
1143.019531	n/a	292613	largeHSmallT	correct	incongruent	0.59766	no	H	T
