onset	duration	sample	value	response_type	congruence	response_time	response_out_of_range	largeletter	smallletter
20.49755859	n/a	5247.375	largeTSmallT	correct	congruent	1.0376	no	T	T
21.53515625	n/a	5513	responseLargeT	correct	n/a	1.0376	no	n/a	n/a
22.60205078	n/a	5786.125	largeTSmallT	correct	congruent	0.55811	no	T	T
23.16015625	n/a	5929	responseLargeT	correct	n/a	0.55811	no	n/a	n/a
24.24267578	n/a	6206.125	largeHSmallH	correct	congruent	0.8291	no	H	H
25.07177734	n/a	6418.375	responseLargeH	correct	n/a	0.8291	no	n/a	n/a
26.13574219	n/a	6690.75	largeTSmallH	correct	incongruent	0.875	no	T	H
27.01074219	n/a	6914.75	responseLargeT	correct	n/a	0.875	no	n/a	n/a
28.08251953	n/a	7189.125	largeHSmallH	correct	congruent	0.88965	no	H	H
28.97216797	n/a	7416.875	responseLargeH	correct	n/a	0.88965	no	n/a	n/a
30.04248047	n/a	7690.875	largeHSmallT	error	incongruent	0.78369	no	H	T
30.82617188	n/a	7891.5	responseLargeT	error	n/a	0.78369	no	n/a	n/a
31.89599609	n/a	8165.375	largeHSmallT	correct	incongruent	0.83447	no	H	T
32.73046875	n/a	8379	responseLargeH	correct	n/a	0.83447	no	n/a	n/a
33.80224609	n/a	8653.375	largeTSmallT	correct	congruent	0.63037	no	T	T
34.43261719	n/a	8814.75	responseLargeT	correct	n/a	0.63037	no	n/a	n/a
35.49560547	n/a	9086.875	largeTSmallH	correct	incongruent	0.55322	no	T	H
36.04882812	n/a	9228.5	responseLargeT	correct	n/a	0.55322	no	n/a	n/a
37.12255859	n/a	9503.375	largeTSmallH	correct	incongruent	0.625	no	T	H
37.74755859	n/a	9663.375	responseLargeT	correct	n/a	0.625	no	n/a	n/a
38.82910156	n/a	9940.25	largeTSmallH	correct	incongruent	0.49609	no	T	H
39.32519531	n/a	10067.25	responseLargeT	correct	n/a	0.49609	no	n/a	n/a
40.40234375	n/a	10343	largeHSmallT	correct	incongruent	0.60352	no	H	T
41.00585938	n/a	10497.5	responseLargeH	correct	n/a	0.60352	no	n/a	n/a
42.08203125	n/a	10773	largeHSmallH	correct	congruent	0.55029	no	H	H
42.63232422	n/a	10913.875	responseLargeH	correct	n/a	0.55029	no	n/a	n/a
43.70898438	n/a	11189.5	largeHSmallH	correct	congruent	0.49658	no	H	H
44.20556641	n/a	11316.625	responseLargeH	correct	n/a	0.49658	no	n/a	n/a
45.28222656	n/a	11592.25	largeTSmallT	correct	congruent	0.42627	no	T	T
45.70849609	n/a	11701.375	responseLargeT	correct	n/a	0.42627	no	n/a	n/a
46.77539062	n/a	11974.5	largeHSmallH	correct	congruent	0.55762	no	H	H
47.33300781	n/a	12117.25	responseLargeH	correct	n/a	0.55762	no	n/a	n/a
48.40185547	n/a	12390.875	largeHSmallT	correct	incongruent	0.51709	no	H	T
48.91894531	n/a	12523.25	responseLargeH	correct	n/a	0.51709	no	n/a	n/a
49.98876953	n/a	12797.125	largeTSmallT	correct	congruent	0.50635	no	T	T
50.49511719	n/a	12926.75	responseLargeT	correct	n/a	0.50635	no	n/a	n/a
51.57568359	n/a	13203.375	largeTSmallH	correct	incongruent	0.45898	no	T	H
52.03466797	n/a	13320.875	responseLargeT	correct	n/a	0.45898	no	n/a	n/a
53.10888672	n/a	13595.875	largeTSmallH	correct	incongruent	0.53125	no	T	H
53.64013672	n/a	13731.875	responseLargeT	correct	n/a	0.53125	no	n/a	n/a
54.70849609	n/a	14005.375	largeHSmallH	correct	congruent	0.44873	no	H	H
55.15722656	n/a	14120.25	responseLargeH	correct	n/a	0.44873	no	n/a	n/a
56.22851562	n/a	14394.5	largeTSmallT	correct	congruent	0.47363	no	T	T
56.70214844	n/a	14515.75	responseLargeT	correct	n/a	0.47363	no	n/a	n/a
57.77539062	n/a	14790.5	largeHSmallT	correct	incongruent	0.48975	no	H	T
58.26513672	n/a	14915.875	responseLargeH	correct	n/a	0.48975	no	n/a	n/a
59.33496094	n/a	15189.75	largeHSmallT	correct	incongruent	0.45459	no	H	T
59.78955078	n/a	15306.125	responseLargeH	correct	n/a	0.45459	no	n/a	n/a
60.86816406	n/a	15582.25	largeHSmallT	correct	incongruent	0.42529	no	H	T
61.29345703	n/a	15691.125	responseLargeH	correct	n/a	0.42529	no	n/a	n/a
62.36181641	n/a	15964.625	largeHSmallH	correct	congruent	0.34082	no	H	H
62.70263672	n/a	16051.875	responseLargeH	correct	n/a	0.34082	no	n/a	n/a
63.76171875	n/a	16323	largeHSmallT	correct	incongruent	0.30176	no	H	T
64.06347656	n/a	16400.25	responseLargeH	correct	n/a	0.30176	no	n/a	n/a
65.1484375	n/a	16678	largeTSmallH	correct	incongruent	0.49414	no	T	H
65.64257812	n/a	16804.5	responseLargeT	correct	n/a	0.49414	no	n/a	n/a
66.72167969	n/a	17080.75	largeHSmallT	correct	incongruent	0.41211	no	H	T
67.13378906	n/a	17186.25	responseLargeH	correct	n/a	0.41211	no	n/a	n/a
68.20166016	n/a	17459.625	largeHSmallT	correct	incongruent	0.35791	no	H	T
68.55957031	n/a	17551.25	responseLargeH	correct	n/a	0.35791	no	n/a	n/a
69.62890625	n/a	17825	largeHSmallT	correct	incongruent	0.29346	no	H	T
69.92236328	n/a	17900.125	responseLargeH	correct	n/a	0.29346	no	n/a	n/a
70.98828125	n/a	18173	largeTSmallT	correct	congruent	0.45654	no	T	T
71.44482422	n/a	18289.875	responseLargeT	correct	n/a	0.45654	no	n/a	n/a
72.52148438	n/a	18565.5	largeHSmallT	correct	incongruent	0.4624	no	H	T
72.98388672	n/a	18683.875	responseLargeH	correct	n/a	0.4624	no	n/a	n/a
74.0546875	n/a	18958	largeTSmallH	correct	incongruent	0.48193	no	T	H
74.53662109	n/a	19081.375	responseLargeT	correct	n/a	0.48193	no	n/a	n/a
75.61474609	n/a	19357.375	largeTSmallH	correct	incongruent	0.46875	no	T	H
76.08349609	n/a	19477.375	responseLargeT	correct	n/a	0.46875	no	n/a	n/a
77.14794922	n/a	19749.875	largeHSmallT	correct	incongruent	0.44336	no	H	T
77.59130859	n/a	19863.375	responseLargeH	correct	n/a	0.44336	no	n/a	n/a
78.66796875	n/a	20139	largeTSmallH	correct	incongruent	0.55664	no	T	H
79.22460938	n/a	20281.5	responseLargeT	correct	n/a	0.55664	no	n/a	n/a
80.28125	n/a	20552	largeTSmallT	correct	congruent	0.41406	no	T	T
80.6953125	n/a	20658	responseLargeT	correct	n/a	0.41406	no	n/a	n/a
81.77441406	n/a	20934.25	largeTSmallT	correct	congruent	0.39062	no	T	T
82.16503906	n/a	21034.25	responseLargeT	correct	n/a	0.39062	no	n/a	n/a
83.24121094	n/a	21309.75	largeTSmallH	correct	incongruent	0.32666	no	T	H
83.56787109	n/a	21393.375	responseLargeT	correct	n/a	0.32666	no	n/a	n/a
84.64111328	n/a	21668.125	largeHSmallH	correct	congruent	0.46924	no	H	H
85.11035156	n/a	21788.25	responseLargeH	correct	n/a	0.46924	no	n/a	n/a
86.18798828	n/a	22064.125	largeTSmallT	correct	congruent	0.43213	no	T	T
86.62011719	n/a	22174.75	responseLargeT	correct	n/a	0.43213	no	n/a	n/a
87.68115234	n/a	22446.375	largeHSmallT	error	incongruent	0.49365	no	H	T
88.17480469	n/a	22572.75	responseLargeT	error	n/a	0.49365	no	n/a	n/a
89.24121094	n/a	22845.75	largeHSmallH	correct	congruent	0.66162	no	H	H
89.90283203	n/a	23015.125	responseLargeH	correct	n/a	0.66162	no	n/a	n/a
90.97412109	n/a	23289.375	largeHSmallH	correct	congruent	0.4873	no	H	H
91.46142578	n/a	23414.125	responseLargeH	correct	n/a	0.4873	no	n/a	n/a
92.53417969	n/a	23688.75	largeHSmallT	correct	incongruent	0.40332	no	H	T
92.9375	n/a	23792	responseLargeH	correct	n/a	0.40332	no	n/a	n/a
94.00097656	n/a	24064.25	largeHSmallT	correct	incongruent	0.3833	no	H	T
94.38427734	n/a	24162.375	responseLargeH	correct	n/a	0.3833	no	n/a	n/a
95.45410156	n/a	24436.25	largeHSmallH	correct	congruent	0.59668	no	H	H
96.05078125	n/a	24589	responseLargeH	correct	n/a	0.59668	no	n/a	n/a
97.12109375	n/a	24863	largeTSmallT	correct	congruent	0.48877	no	T	T
97.60986328	n/a	24988.125	responseLargeT	correct	n/a	0.48877	no	n/a	n/a
98.68066406	n/a	25262.25	largeHSmallH	correct	congruent	0.53467	no	H	H
99.21533203	n/a	25399.125	responseLargeH	correct	n/a	0.53467	no	n/a	n/a
100.2944336	n/a	25675.375	largeTSmallT	correct	congruent	0.48486	no	T	T
100.7792969	n/a	25799.5	responseLargeT	correct	n/a	0.48486	no	n/a	n/a
101.8544922	n/a	26074.75	largeTSmallH	correct	incongruent	0.56494	no	T	H
102.4194336	n/a	26219.375	responseLargeT	correct	n/a	0.56494	no	n/a	n/a
103.480957	n/a	26491.125	largeHSmallH	correct	congruent	0.47559	no	H	H
103.956543	n/a	26612.875	responseLargeH	correct	n/a	0.47559	no	n/a	n/a
105.0273438	n/a	26887	largeTSmallT	correct	congruent	0.51416	no	T	T
105.5415039	n/a	27018.625	responseLargeT	correct	n/a	0.51416	no	n/a	n/a
106.6005859	n/a	27289.75	largeHSmallH	correct	congruent	0.4707	no	H	H
107.0712891	n/a	27410.25	responseLargeH	correct	n/a	0.4707	no	n/a	n/a
108.1342773	n/a	27682.375	largeHSmallT	correct	incongruent	0.48584	no	H	T
108.6201172	n/a	27806.75	responseLargeH	correct	n/a	0.48584	no	n/a	n/a
109.6938477	n/a	28081.625	largeHSmallT	correct	incongruent	0.39258	no	H	T
110.0864258	n/a	28182.125	responseLargeH	correct	n/a	0.39258	no	n/a	n/a
111.1606445	n/a	28457.125	largeHSmallH	correct	congruent	0.52686	no	H	H
111.6875	n/a	28592	responseLargeH	correct	n/a	0.52686	no	n/a	n/a
112.7470703	n/a	28863.25	largeHSmallT	correct	incongruent	0.43213	no	H	T
113.1791992	n/a	28973.875	responseLargeH	correct	n/a	0.43213	no	n/a	n/a
114.2539062	n/a	29249	largeTSmallH	correct	incongruent	0.49805	no	T	H
114.7519531	n/a	29376.5	responseLargeT	correct	n/a	0.49805	no	n/a	n/a
115.8271484	n/a	29651.75	largeTSmallH	correct	incongruent	0.40869	no	T	H
116.2358398	n/a	29756.375	responseLargeT	correct	n/a	0.40869	no	n/a	n/a
117.3071289	n/a	30030.625	largeHSmallH	correct	congruent	0.46338	no	H	H
117.7705078	n/a	30149.25	responseLargeH	correct	n/a	0.46338	no	n/a	n/a
118.840332	n/a	30423.125	largeHSmallT	correct	incongruent	0.42285	no	H	T
119.2631836	n/a	30531.375	responseLargeH	correct	n/a	0.42285	no	n/a	n/a
120.3349609	n/a	30805.75	largeHSmallT	correct	incongruent	0.33643	no	H	T
120.6713867	n/a	30891.875	responseLargeH	correct	n/a	0.33643	no	n/a	n/a
121.7333984	n/a	31163.75	largeTSmallH	correct	incongruent	0.47412	no	T	H
122.2075195	n/a	31285.125	responseLargeT	correct	n/a	0.47412	no	n/a	n/a
123.2802734	n/a	31559.75	largeTSmallT	correct	congruent	0.37744	no	T	T
123.6577148	n/a	31656.375	responseLargeT	correct	n/a	0.37744	no	n/a	n/a
124.7333984	n/a	31931.75	largeTSmallT	correct	congruent	0.40332	no	T	T
125.1367188	n/a	32035	responseLargeT	correct	n/a	0.40332	no	n/a	n/a
126.2133789	n/a	32310.625	largeHSmallT	error	incongruent	0.49414	no	H	T
126.7075195	n/a	32437.125	responseLargeT	error	n/a	0.49414	no	n/a	n/a
127.7734375	n/a	32710	largeTSmallT	correct	congruent	0.52344	no	T	T
128.296875	n/a	32844	responseLargeT	correct	n/a	0.52344	no	n/a	n/a
129.3603516	n/a	33116.25	largeTSmallH	correct	incongruent	0.60938	no	T	H
129.9697266	n/a	33272.25	responseLargeT	correct	n/a	0.60938	no	n/a	n/a
131.0400391	n/a	33546.25	largeTSmallT	correct	congruent	0.56934	no	T	T
131.609375	n/a	33692	responseLargeT	correct	n/a	0.56934	no	n/a	n/a
132.6801758	n/a	33966.125	largeHSmallH	correct	congruent	0.64307	no	H	H
133.3232422	n/a	34130.75	responseLargeH	correct	n/a	0.64307	no	n/a	n/a
134.3867188	n/a	34403	largeHSmallT	correct	incongruent	0.5625	no	H	T
134.9492188	n/a	34547	responseLargeH	correct	n/a	0.5625	no	n/a	n/a
136.0268555	n/a	34822.875	largeHSmallT	correct	incongruent	0.53711	no	H	T
136.5639648	n/a	34960.375	responseLargeH	correct	n/a	0.53711	no	n/a	n/a
137.6401367	n/a	35235.875	largeHSmallT	correct	incongruent	0.62939	no	H	T
138.2695312	n/a	35397	responseLargeH	correct	n/a	0.62939	no	n/a	n/a
139.3330078	n/a	35669.25	largeHSmallT	correct	incongruent	0.46484	no	H	T
139.7978516	n/a	35788.25	responseLargeH	correct	n/a	0.46484	no	n/a	n/a
140.8666992	n/a	36061.875	largeTSmallH	correct	incongruent	0.4834	no	T	H
141.3500977	n/a	36185.625	responseLargeT	correct	n/a	0.4834	no	n/a	n/a
142.4262695	n/a	36461.125	largeHSmallH	correct	congruent	0.51367	no	H	H
142.9399414	n/a	36592.625	responseLargeH	correct	n/a	0.51367	no	n/a	n/a
144.0131836	n/a	36867.375	largeTSmallT	correct	congruent	0.70898	no	T	T
144.722168	n/a	37048.875	responseLargeT	correct	n/a	0.70898	no	n/a	n/a
145.7866211	n/a	37321.375	largeTSmallH	correct	incongruent	0.41895	no	T	H
146.2055664	n/a	37428.625	responseLargeT	correct	n/a	0.41895	no	n/a	n/a
147.2797852	n/a	37703.625	largeTSmallT	correct	congruent	0.43457	no	T	T
147.7143555	n/a	37814.875	responseLargeT	correct	n/a	0.43457	no	n/a	n/a
148.7861328	n/a	38089.25	largeHSmallT	correct	incongruent	0.45605	no	H	T
149.2421875	n/a	38206	responseLargeH	correct	n/a	0.45605	no	n/a	n/a
150.3193359	n/a	38481.75	largeHSmallH	correct	congruent	0.57129	no	H	H
150.890625	n/a	38628	responseLargeH	correct	n/a	0.57129	no	n/a	n/a
151.9594727	n/a	38901.625	largeTSmallH	correct	incongruent	0.48096	no	T	H
152.4404297	n/a	39024.75	responseLargeT	correct	n/a	0.48096	no	n/a	n/a
153.5195312	n/a	39301	largeTSmallT	correct	congruent	0.45605	no	T	T
153.9755859	n/a	39417.75	responseLargeT	correct	n/a	0.45605	no	n/a	n/a
155.0395508	n/a	39690.125	largeHSmallH	correct	congruent	0.47412	no	H	H
155.5136719	n/a	39811.5	responseLargeH	correct	n/a	0.47412	no	n/a	n/a
156.5859375	n/a	40086	largeTSmallT	correct	congruent	0.46484	no	T	T
157.0507812	n/a	40205	responseLargeT	correct	n/a	0.46484	no	n/a	n/a
158.1196289	n/a	40478.625	largeHSmallT	correct	incongruent	0.48535	no	H	T
158.6049805	n/a	40602.875	responseLargeH	correct	n/a	0.48535	no	n/a	n/a
159.6791992	n/a	40877.875	largeHSmallT	correct	incongruent	0.5	no	H	T
160.1791992	n/a	41005.875	responseLargeH	correct	n/a	0.5	no	n/a	n/a
161.2529297	n/a	41280.75	largeTSmallT	correct	congruent	0.49902	no	T	T
161.7519531	n/a	41408.5	responseLargeT	correct	n/a	0.49902	no	n/a	n/a
162.8256836	n/a	41683.375	largeTSmallH	correct	incongruent	0.54102	no	T	H
163.3666992	n/a	41821.875	responseLargeT	correct	n/a	0.54102	no	n/a	n/a
164.4394531	n/a	42096.5	largeTSmallH	correct	incongruent	0.50879	no	T	H
164.9482422	n/a	42226.75	responseLargeT	correct	n/a	0.50879	no	n/a	n/a
166.0258789	n/a	42502.625	largeHSmallT	correct	incongruent	0.48584	no	H	T
166.5117188	n/a	42627	responseLargeH	correct	n/a	0.48584	no	n/a	n/a
167.5859375	n/a	42902	largeHSmallH	correct	congruent	0.45752	no	H	H
168.043457	n/a	43019.125	responseLargeH	correct	n/a	0.45752	no	n/a	n/a
169.1191406	n/a	43294.5	largeTSmallH	correct	incongruent	0.41992	no	T	H
169.5390625	n/a	43402	responseLargeT	correct	n/a	0.41992	no	n/a	n/a
170.6123047	n/a	43676.75	largeHSmallH	correct	congruent	0.42676	no	H	H
171.0390625	n/a	43786	responseLargeH	correct	n/a	0.42676	no	n/a	n/a
172.105957	n/a	44059.125	largeHSmallT	correct	incongruent	0.56836	no	H	T
172.6743164	n/a	44204.625	responseLargeH	correct	n/a	0.56836	no	n/a	n/a
173.7456055	n/a	44478.875	largeHSmallH	correct	congruent	0.42871	no	H	H
174.1743164	n/a	44588.625	responseLargeH	correct	n/a	0.42871	no	n/a	n/a
175.2524414	n/a	44864.625	largeTSmallT	correct	congruent	0.46143	no	T	T
175.7138672	n/a	44982.75	responseLargeT	correct	n/a	0.46143	no	n/a	n/a
176.7856445	n/a	45257.125	largeHSmallH	correct	congruent	0.44434	no	H	H
177.2299805	n/a	45370.875	responseLargeH	correct	n/a	0.44434	no	n/a	n/a
178.3056641	n/a	45646.25	largeTSmallT	correct	congruent	0.47412	no	T	T
178.7797852	n/a	45767.625	responseLargeT	correct	n/a	0.47412	no	n/a	n/a
179.8520508	n/a	46042.125	largeHSmallH	correct	congruent	0.42773	no	H	H
180.2797852	n/a	46151.625	responseLargeH	correct	n/a	0.42773	no	n/a	n/a
181.3452148	n/a	46424.375	largeHSmallH	correct	congruent	0.47461	no	H	H
181.8198242	n/a	46545.875	responseLargeH	correct	n/a	0.47461	no	n/a	n/a
182.8920898	n/a	46820.375	largeTSmallT	correct	congruent	0.55713	no	T	T
183.4492188	n/a	46963	responseLargeT	correct	n/a	0.55713	no	n/a	n/a
184.5185547	n/a	47236.75	largeTSmallT	correct	congruent	0.46973	no	T	T
184.9882812	n/a	47357	responseLargeT	correct	n/a	0.46973	no	n/a	n/a
186.0522461	n/a	47629.375	largeHSmallH	correct	congruent	0.42188	no	H	H
186.4741211	n/a	47737.375	responseLargeH	correct	n/a	0.42188	no	n/a	n/a
187.5317383	n/a	48008.125	largeHSmallH	correct	congruent	0.43652	no	H	H
187.9682617	n/a	48119.875	responseLargeH	correct	n/a	0.43652	no	n/a	n/a
189.0385742	n/a	48393.875	largeTSmallH	correct	incongruent	0.59668	no	T	H
189.6352539	n/a	48546.625	responseLargeT	correct	n/a	0.59668	no	n/a	n/a
190.7050781	n/a	48820.5	largeHSmallT	correct	incongruent	0.82471	no	H	T
191.5297852	n/a	49031.625	responseLargeH	correct	n/a	0.82471	no	n/a	n/a
192.5986328	n/a	49305.25	largeTSmallT	correct	congruent	0.56592	no	T	T
193.1645508	n/a	49450.125	responseLargeT	correct	n/a	0.56592	no	n/a	n/a
194.2250977	n/a	49721.625	largeHSmallH	correct	congruent	0.67725	no	H	H
194.9023438	n/a	49895	responseLargeH	correct	n/a	0.67725	no	n/a	n/a
195.9848633	n/a	50172.125	largeHSmallT	correct	incongruent	0.43408	no	H	T
196.4189453	n/a	50283.25	responseLargeH	correct	n/a	0.43408	no	n/a	n/a
197.4916992	n/a	50557.875	largeHSmallH	correct	congruent	0.34424	no	H	H
197.8359375	n/a	50646	responseLargeH	correct	n/a	0.34424	no	n/a	n/a
198.9047852	n/a	50919.625	largeHSmallH	correct	congruent	0.37744	no	H	H
199.2822266	n/a	51016.25	responseLargeH	correct	n/a	0.37744	no	n/a	n/a
200.3447266	n/a	51288.25	largeTSmallH	correct	incongruent	0.48145	no	T	H
200.8261719	n/a	51411.5	responseLargeT	correct	n/a	0.48145	no	n/a	n/a
201.8916016	n/a	51684.25	largeTSmallH	correct	incongruent	0.41895	no	T	H
202.3105469	n/a	51791.5	responseLargeT	correct	n/a	0.41895	no	n/a	n/a
203.3847656	n/a	52066.5	largeTSmallH	correct	incongruent	0.39014	no	T	H
203.7749023	n/a	52166.375	responseLargeT	correct	n/a	0.39014	no	n/a	n/a
204.8378906	n/a	52438.5	largeTSmallH	correct	incongruent	0.44922	no	T	H
205.2871094	n/a	52553.5	responseLargeT	correct	n/a	0.44922	no	n/a	n/a
206.3583984	n/a	52827.75	largeTSmallT	correct	congruent	0.44971	no	T	T
206.8081055	n/a	52942.875	responseLargeT	correct	n/a	0.44971	no	n/a	n/a
207.878418	n/a	53216.875	largeHSmallH	correct	congruent	0.43018	no	H	H
208.3085938	n/a	53327	responseLargeH	correct	n/a	0.43018	no	n/a	n/a
209.3847656	n/a	53602.5	largeTSmallT	correct	congruent	0.48291	no	T	T
209.8676758	n/a	53726.125	responseLargeT	correct	n/a	0.48291	no	n/a	n/a
210.9448242	n/a	54001.875	largeTSmallT	correct	congruent	0.47998	no	T	T
211.4248047	n/a	54124.75	responseLargeT	correct	n/a	0.47998	no	n/a	n/a
212.5048828	n/a	54401.25	largeTSmallT	correct	congruent	0.4043	no	T	T
212.9091797	n/a	54504.75	responseLargeT	correct	n/a	0.4043	no	n/a	n/a
213.984375	n/a	54780	largeTSmallH	correct	incongruent	0.38281	no	T	H
214.3671875	n/a	54878	responseLargeT	correct	n/a	0.38281	no	n/a	n/a
215.4379883	n/a	55152.125	largeHSmallH	correct	congruent	0.47266	no	H	H
215.9106445	n/a	55273.125	responseLargeH	correct	n/a	0.47266	no	n/a	n/a
216.9711914	n/a	55544.625	largeHSmallH	correct	congruent	0.46094	no	H	H
217.4321289	n/a	55662.625	responseLargeH	correct	n/a	0.46094	no	n/a	n/a
218.5043945	n/a	55937.125	largeTSmallT	correct	congruent	0.53467	no	T	T
219.0390625	n/a	56074	responseLargeT	correct	n/a	0.53467	no	n/a	n/a
220.1176758	n/a	56350.125	largeTSmallH	correct	incongruent	0.5918	no	T	H
220.7094727	n/a	56501.625	responseLargeT	correct	n/a	0.5918	no	n/a	n/a
221.7841797	n/a	56776.75	largeTSmallH	correct	incongruent	0.52686	no	T	H
222.3110352	n/a	56911.625	responseLargeT	correct	n/a	0.52686	no	n/a	n/a
223.3842773	n/a	57186.375	largeHSmallT	correct	incongruent	0.43848	no	H	T
223.8227539	n/a	57298.625	responseLargeH	correct	n/a	0.43848	no	n/a	n/a
224.9042969	n/a	57575.5	largeHSmallH	correct	congruent	0.52295	no	H	H
225.4272461	n/a	57709.375	responseLargeH	correct	n/a	0.52295	no	n/a	n/a
226.4907227	n/a	57981.625	largeTSmallH	correct	incongruent	0.52393	no	T	H
227.0146484	n/a	58115.75	responseLargeT	correct	n/a	0.52393	no	n/a	n/a
228.0776367	n/a	58387.875	largeHSmallT	correct	incongruent	0.49902	no	H	T
228.5766602	n/a	58515.625	responseLargeH	correct	n/a	0.49902	no	n/a	n/a
229.6508789	n/a	58790.625	largeTSmallH	correct	incongruent	0.4751	no	T	H
230.1259766	n/a	58912.25	responseLargeT	correct	n/a	0.4751	no	n/a	n/a
231.1972656	n/a	59186.5	largeTSmallT	correct	congruent	0.46143	no	T	T
231.6586914	n/a	59304.625	responseLargeT	correct	n/a	0.46143	no	n/a	n/a
232.730957	n/a	59579.125	largeTSmallH	correct	incongruent	0.48535	no	T	H
233.2163086	n/a	59703.375	responseLargeT	correct	n/a	0.48535	no	n/a	n/a
234.2905273	n/a	59978.375	largeTSmallH	correct	incongruent	0.37939	no	T	H
234.6699219	n/a	60075.5	responseLargeT	correct	n/a	0.37939	no	n/a	n/a
235.7441406	n/a	60350.5	largeTSmallT	correct	congruent	0.39062	no	T	T
236.1347656	n/a	60450.5	responseLargeT	correct	n/a	0.39062	no	n/a	n/a
237.2104492	n/a	60725.875	largeHSmallT	correct	incongruent	0.56396	no	H	T
237.7744141	n/a	60870.25	responseLargeH	correct	n/a	0.56396	no	n/a	n/a
238.8505859	n/a	61145.75	largeHSmallH	correct	congruent	0.46387	no	H	H
239.3144531	n/a	61264.5	responseLargeH	correct	n/a	0.46387	no	n/a	n/a
240.3969727	n/a	61541.625	largeTSmallH	correct	incongruent	0.53906	no	T	H
240.9360352	n/a	61679.625	responseLargeT	correct	n/a	0.53906	no	n/a	n/a
242.0107422	n/a	61954.75	largeTSmallH	correct	incongruent	0.45605	no	T	H
242.4667969	n/a	62071.5	responseLargeT	correct	n/a	0.45605	no	n/a	n/a
243.5439453	n/a	62347.25	largeTSmallT	correct	congruent	0.46484	no	T	T
244.0087891	n/a	62466.25	responseLargeT	correct	n/a	0.46484	no	n/a	n/a
245.090332	n/a	62743.125	largeHSmallH	correct	congruent	0.479	no	H	H
245.5693359	n/a	62865.75	responseLargeH	correct	n/a	0.479	no	n/a	n/a
246.6503906	n/a	63142.5	largeTSmallT	correct	congruent	0.42822	no	T	T
247.0786133	n/a	63252.125	responseLargeT	correct	n/a	0.42822	no	n/a	n/a
248.144043	n/a	63524.875	largeHSmallH	correct	congruent	0.45068	no	H	H
248.5947266	n/a	63640.25	responseLargeH	correct	n/a	0.45068	no	n/a	n/a
249.6635742	n/a	63913.875	largeHSmallT	correct	incongruent	0.49658	no	H	T
250.1601562	n/a	64041	responseLargeH	correct	n/a	0.49658	no	n/a	n/a
251.2373047	n/a	64316.75	largeTSmallT	correct	congruent	0.45068	no	T	T
251.6879883	n/a	64432.125	responseLargeT	correct	n/a	0.45068	no	n/a	n/a
252.7573242	n/a	64705.875	largeTSmallH	correct	incongruent	0.44678	no	T	H
253.2041016	n/a	64820.25	responseLargeT	correct	n/a	0.44678	no	n/a	n/a
254.2768555	n/a	65094.875	largeTSmallH	correct	incongruent	0.43408	no	T	H
254.7109375	n/a	65206	responseLargeT	correct	n/a	0.43408	no	n/a	n/a
255.796875	n/a	65484	largeTSmallT	correct	congruent	0.37744	no	T	T
256.1743164	n/a	65580.625	responseLargeT	correct	n/a	0.37744	no	n/a	n/a
257.2368164	n/a	65852.625	largeTSmallH	correct	incongruent	0.42285	no	T	H
257.659668	n/a	65960.875	responseLargeT	correct	n/a	0.42285	no	n/a	n/a
258.7436523	n/a	66238.375	largeTSmallT	correct	congruent	0.42041	no	T	T
259.1640625	n/a	66346	responseLargeT	correct	n/a	0.42041	no	n/a	n/a
260.2368164	n/a	66620.625	largeTSmallT	correct	congruent	0.36719	no	T	T
260.6040039	n/a	66714.625	responseLargeT	correct	n/a	0.36719	no	n/a	n/a
261.6767578	n/a	66989.25	largeHSmallT	error	incongruent	0.39746	no	H	T
262.0742188	n/a	67091	responseLargeT	error	n/a	0.39746	no	n/a	n/a
263.1567383	n/a	67368.125	largeTSmallT	correct	congruent	0.5332	no	T	T
263.6899414	n/a	67504.625	responseLargeT	correct	n/a	0.5332	no	n/a	n/a
264.7568359	n/a	67777.75	largeHSmallT	correct	incongruent	0.63086	no	H	T
265.3876953	n/a	67939.25	responseLargeH	correct	n/a	0.63086	no	n/a	n/a
266.4633789	n/a	68214.625	largeHSmallH	correct	congruent	0.4458	no	H	H
266.9091797	n/a	68328.75	responseLargeH	correct	n/a	0.4458	no	n/a	n/a
267.9697266	n/a	68600.25	largeTSmallH	correct	incongruent	0.58691	no	T	H
268.5566406	n/a	68750.5	responseLargeT	correct	n/a	0.58691	no	n/a	n/a
269.6230469	n/a	69023.5	largeTSmallH	correct	incongruent	0.44824	no	T	H
270.0712891	n/a	69138.25	responseLargeT	correct	n/a	0.44824	no	n/a	n/a
271.1430664	n/a	69412.625	largeHSmallT	correct	incongruent	0.46582	no	H	T
271.6088867	n/a	69531.875	responseLargeH	correct	n/a	0.46582	no	n/a	n/a
272.6899414	n/a	69808.625	largeTSmallT	correct	congruent	0.44678	no	T	T
273.1367188	n/a	69923	responseLargeT	correct	n/a	0.44678	no	n/a	n/a
274.2099609	n/a	70197.75	largeTSmallH	correct	incongruent	0.4502	no	T	H
274.6601562	n/a	70313	responseLargeT	correct	n/a	0.4502	no	n/a	n/a
275.7294922	n/a	70586.75	largeHSmallH	correct	congruent	0.46191	no	H	H
276.1914062	n/a	70705	responseLargeH	correct	n/a	0.46191	no	n/a	n/a
277.2495117	n/a	70975.875	largeHSmallH	correct	congruent	0.51465	no	H	H
277.7641602	n/a	71107.625	responseLargeH	correct	n/a	0.51465	no	n/a	n/a
278.8364258	n/a	71382.125	largeHSmallT	correct	incongruent	0.4751	no	H	T
279.3115234	n/a	71503.75	responseLargeH	correct	n/a	0.4751	no	n/a	n/a
280.3696289	n/a	71774.625	largeTSmallH	correct	incongruent	0.47412	no	T	H
280.84375	n/a	71896	responseLargeT	correct	n/a	0.47412	no	n/a	n/a
281.9160156	n/a	72170.5	largeTSmallH	correct	incongruent	0.45703	no	T	H
282.3730469	n/a	72287.5	responseLargeT	correct	n/a	0.45703	no	n/a	n/a
283.449707	n/a	72563.125	largeTSmallT	correct	congruent	0.4126	no	T	T
283.8623047	n/a	72668.75	responseLargeT	correct	n/a	0.4126	no	n/a	n/a
284.9291992	n/a	72941.875	largeHSmallH	correct	congruent	0.43262	no	H	H
285.3618164	n/a	73052.625	responseLargeH	correct	n/a	0.43262	no	n/a	n/a
286.4228516	n/a	73324.25	largeHSmallT	correct	incongruent	0.40918	no	H	T
286.8320312	n/a	73429	responseLargeH	correct	n/a	0.40918	no	n/a	n/a
287.9160156	n/a	73706.5	largeTSmallT	correct	congruent	0.46338	no	T	T
288.3793945	n/a	73825.125	responseLargeT	correct	n/a	0.46338	no	n/a	n/a
289.4492188	n/a	74099	largeHSmallT	correct	incongruent	0.53027	no	H	T
289.9794922	n/a	74234.75	responseLargeH	correct	n/a	0.53027	no	n/a	n/a
291.0493164	n/a	74508.625	largeTSmallH	correct	incongruent	0.62891	no	T	H
291.6782227	n/a	74669.625	responseLargeT	correct	n/a	0.62891	no	n/a	n/a
292.7426758	n/a	74942.125	largeHSmallH	correct	congruent	0.40527	no	H	H
293.1479492	n/a	75045.875	responseLargeH	correct	n/a	0.40527	no	n/a	n/a
294.2089844	n/a	75317.5	largeTSmallT	correct	congruent	0.40332	no	T	T
294.6123047	n/a	75420.75	responseLargeT	correct	n/a	0.40332	no	n/a	n/a
295.6757812	n/a	75693	largeTSmallT	correct	congruent	0.45117	no	T	T
296.1269531	n/a	75808.5	responseLargeT	correct	n/a	0.45117	no	n/a	n/a
297.1958008	n/a	76082.125	largeTSmallH	correct	incongruent	0.51611	no	T	H
297.7119141	n/a	76214.25	responseLargeT	correct	n/a	0.51611	no	n/a	n/a
298.7827148	n/a	76488.375	largeTSmallT	correct	congruent	0.38867	no	T	T
299.1713867	n/a	76587.875	responseLargeT	correct	n/a	0.38867	no	n/a	n/a
300.2490234	n/a	76863.75	largeHSmallH	correct	congruent	0.41895	no	H	H
300.6679688	n/a	76971	responseLargeH	correct	n/a	0.41895	no	n/a	n/a
301.7426758	n/a	77246.125	largeTSmallT	correct	congruent	0.33447	no	T	T
302.0771484	n/a	77331.75	responseLargeT	correct	n/a	0.33447	no	n/a	n/a
303.1557617	n/a	77607.875	largeHSmallH	correct	congruent	0.41309	no	H	H
303.5688477	n/a	77713.625	responseLargeH	correct	n/a	0.41309	no	n/a	n/a
304.6357422	n/a	77986.75	largeHSmallH	correct	congruent	0.44971	no	H	H
305.0854492	n/a	78101.875	responseLargeH	correct	n/a	0.44971	no	n/a	n/a
306.1557617	n/a	78375.875	largeHSmallT	correct	incongruent	0.46729	no	H	T
306.6230469	n/a	78495.5	responseLargeH	correct	n/a	0.46729	no	n/a	n/a
307.6889648	n/a	78768.375	largeHSmallT	correct	incongruent	0.33203	no	H	T
308.0209961	n/a	78853.375	responseLargeH	correct	n/a	0.33203	no	n/a	n/a
309.1020508	n/a	79130.125	largeTSmallT	error	congruent	0.43115	no	T	T
309.5332031	n/a	79240.5	responseLargeH	error	n/a	0.43115	no	n/a	n/a
310.6088867	n/a	79515.875	largeTSmallH	correct	incongruent	0.55322	no	T	H
311.1621094	n/a	79657.5	responseLargeT	correct	n/a	0.55322	no	n/a	n/a
312.2353516	n/a	79932.25	largeHSmallH	correct	congruent	0.44971	no	H	H
312.6850586	n/a	80047.375	responseLargeH	correct	n/a	0.44971	no	n/a	n/a
313.7553711	n/a	80321.375	largeTSmallH	correct	incongruent	0.44092	no	T	H
314.1962891	n/a	80434.25	responseLargeT	correct	n/a	0.44092	no	n/a	n/a
315.2753906	n/a	80710.5	largeHSmallT	correct	incongruent	0.63818	no	H	T
315.9135742	n/a	80873.875	responseLargeH	correct	n/a	0.63818	no	n/a	n/a
316.9956055	n/a	81150.875	largeTSmallH	correct	incongruent	0.48828	no	T	H
317.4838867	n/a	81275.875	responseLargeT	correct	n/a	0.48828	no	n/a	n/a
318.5551758	n/a	81550.125	largeHSmallT	correct	incongruent	0.51514	no	H	T
319.0703125	n/a	81682	responseLargeH	correct	n/a	0.51514	no	n/a	n/a
320.1420898	n/a	81956.375	largeHSmallH	correct	congruent	0.44092	no	H	H
320.5830078	n/a	82069.25	responseLargeH	correct	n/a	0.44092	no	n/a	n/a
321.6484375	n/a	82342	largeHSmallH	correct	congruent	0.39502	no	H	H
322.043457	n/a	82443.125	responseLargeH	correct	n/a	0.39502	no	n/a	n/a
323.1152344	n/a	82717.5	largeTSmallH	correct	incongruent	0.479	no	T	H
323.5942383	n/a	82840.125	responseLargeT	correct	n/a	0.479	no	n/a	n/a
324.6616211	n/a	83113.375	largeHSmallT	correct	incongruent	0.55176	no	H	T
325.2133789	n/a	83254.625	responseLargeH	correct	n/a	0.55176	no	n/a	n/a
326.2880859	n/a	83529.75	largeHSmallT	correct	incongruent	0.44043	no	H	T
326.7285156	n/a	83642.5	responseLargeH	correct	n/a	0.44043	no	n/a	n/a
327.7949219	n/a	83915.5	largeHSmallH	correct	congruent	0.40674	no	H	H
328.2016602	n/a	84019.625	responseLargeH	correct	n/a	0.40674	no	n/a	n/a
329.2617188	n/a	84291	largeTSmallT	correct	congruent	0.48242	no	T	T
329.7441406	n/a	84414.5	responseLargeT	correct	n/a	0.48242	no	n/a	n/a
330.8081055	n/a	84686.875	largeHSmallT	correct	incongruent	0.55469	no	H	T
331.362793	n/a	84828.875	responseLargeH	correct	n/a	0.55469	no	n/a	n/a
336.487793	n/a	86140.875	largeHSmallT	correct	incongruent	0.61279	no	H	T
337.1005859	n/a	86297.75	responseSmallT	correct	n/a	0.61279	no	n/a	n/a
338.168457	n/a	86571.125	largeTSmallH	correct	incongruent	0.5791	no	T	H
338.7475586	n/a	86719.375	responseSmallH	correct	n/a	0.5791	no	n/a	n/a
339.8081055	n/a	86990.875	largeTSmallH	correct	incongruent	0.92383	no	T	H
340.7319336	n/a	87227.375	responseSmallH	correct	n/a	0.92383	no	n/a	n/a
341.8081055	n/a	87502.875	largeTSmallH	correct	incongruent	0.4707	no	T	H
342.2788086	n/a	87623.375	responseSmallH	correct	n/a	0.4707	no	n/a	n/a
343.3544922	n/a	87898.75	largeTSmallT	error	congruent	0.63916	no	T	T
343.9936523	n/a	88062.375	responseSmallH	error	n/a	0.63916	no	n/a	n/a
345.074707	n/a	88339.125	largeHSmallT	correct	incongruent	1.1992	no	H	T
346.2739258	n/a	88646.125	responseSmallT	correct	n/a	1.1992	no	n/a	n/a
347.3413086	n/a	88919.375	largeHSmallH	correct	congruent	0.55029	no	H	H
347.8916016	n/a	89060.25	responseSmallH	correct	n/a	0.55029	no	n/a	n/a
348.9677734	n/a	89335.75	largeTSmallT	correct	congruent	0.60205	no	T	T
349.5698242	n/a	89489.875	responseSmallT	correct	n/a	0.60205	no	n/a	n/a
350.6342773	n/a	89762.375	largeTSmallH	correct	incongruent	0.66064	no	T	H
351.2949219	n/a	89931.5	responseSmallH	correct	n/a	0.66064	no	n/a	n/a
352.3681641	n/a	90206.25	largeHSmallH	correct	congruent	0.64697	no	H	H
353.0151367	n/a	90371.875	responseSmallH	correct	n/a	0.64697	no	n/a	n/a
354.0878906	n/a	90646.5	largeHSmallH	correct	congruent	0.56445	no	H	H
354.6523438	n/a	90791	responseSmallH	correct	n/a	0.56445	no	n/a	n/a
355.7275391	n/a	91066.25	largeHSmallH	correct	congruent	0.73438	no	H	H
356.4619141	n/a	91254.25	responseSmallH	correct	n/a	0.73438	no	n/a	n/a
357.5410156	n/a	91530.5	largeTSmallH	correct	incongruent	0.56299	no	T	H
358.1040039	n/a	91674.625	responseSmallH	correct	n/a	0.56299	no	n/a	n/a
359.1674805	n/a	91946.875	largeHSmallT	correct	incongruent	0.54492	no	H	T
359.7124023	n/a	92086.375	responseSmallT	correct	n/a	0.54492	no	n/a	n/a
360.7807617	n/a	92359.875	largeHSmallT	correct	incongruent	0.55029	no	H	T
361.3310547	n/a	92500.75	responseSmallT	correct	n/a	0.55029	no	n/a	n/a
362.394043	n/a	92772.875	largeHSmallH	correct	congruent	0.64111	no	H	H
363.0351562	n/a	92937	responseSmallH	correct	n/a	0.64111	no	n/a	n/a
364.1005859	n/a	93209.75	largeHSmallT	correct	incongruent	0.55225	no	H	T
364.652832	n/a	93351.125	responseSmallT	correct	n/a	0.55225	no	n/a	n/a
365.7270508	n/a	93626.125	largeTSmallH	correct	incongruent	0.50146	no	T	H
366.2285156	n/a	93754.5	responseSmallH	correct	n/a	0.50146	no	n/a	n/a
367.3007812	n/a	94029	largeHSmallT	correct	incongruent	0.54639	no	H	T
367.847168	n/a	94168.875	responseSmallT	correct	n/a	0.54639	no	n/a	n/a
368.9272461	n/a	94445.375	largeTSmallH	correct	incongruent	0.50293	no	T	H
369.4301758	n/a	94574.125	responseSmallH	correct	n/a	0.50293	no	n/a	n/a
370.5004883	n/a	94848.125	largeTSmallH	correct	incongruent	0.4585	no	T	H
370.9589844	n/a	94965.5	responseSmallH	correct	n/a	0.4585	no	n/a	n/a
372.0205078	n/a	95237.25	largeTSmallT	correct	congruent	0.44971	no	T	T
372.4702148	n/a	95352.375	responseSmallT	correct	n/a	0.44971	no	n/a	n/a
373.5405273	n/a	95626.375	largeHSmallT	correct	incongruent	0.55176	no	H	T
374.0922852	n/a	95767.625	responseSmallT	correct	n/a	0.55176	no	n/a	n/a
375.1542969	n/a	96039.5	largeHSmallT	correct	incongruent	0.52295	no	H	T
375.6772461	n/a	96173.375	responseSmallT	correct	n/a	0.52295	no	n/a	n/a
376.7539062	n/a	96449	largeHSmallH	correct	congruent	0.52734	no	H	H
377.28125	n/a	96584	responseSmallH	correct	n/a	0.52734	no	n/a	n/a
378.3535156	n/a	96858.5	largeHSmallT	correct	incongruent	0.52783	no	H	T
378.8813477	n/a	96993.625	responseSmallT	correct	n/a	0.52783	no	n/a	n/a
379.9536133	n/a	97268.125	largeTSmallH	correct	incongruent	0.4834	no	T	H
380.4370117	n/a	97391.875	responseSmallH	correct	n/a	0.4834	no	n/a	n/a
381.5136719	n/a	97667.5	largeTSmallH	correct	incongruent	0.49219	no	T	H
382.0058594	n/a	97793.5	responseSmallH	correct	n/a	0.49219	no	n/a	n/a
383.0737305	n/a	98066.875	largeHSmallT	correct	incongruent	0.54248	no	H	T
383.6162109	n/a	98205.75	responseSmallT	correct	n/a	0.54248	no	n/a	n/a
384.6870117	n/a	98479.875	largeTSmallH	correct	incongruent	0.4209	no	T	H
385.1079102	n/a	98587.625	responseSmallH	correct	n/a	0.4209	no	n/a	n/a
386.1801758	n/a	98862.125	largeHSmallH	correct	congruent	0.49561	no	H	H
386.6757812	n/a	98989	responseSmallH	correct	n/a	0.49561	no	n/a	n/a
387.753418	n/a	99264.875	largeTSmallT	correct	congruent	0.44189	no	T	T
388.1953125	n/a	99378	responseSmallT	correct	n/a	0.44189	no	n/a	n/a
389.2602539	n/a	99650.625	largeTSmallH	correct	incongruent	0.4834	no	T	H
389.7436523	n/a	99774.375	responseSmallH	correct	n/a	0.4834	no	n/a	n/a
390.8066406	n/a	100046.5	largeHSmallT	correct	incongruent	0.60742	no	H	T
391.4140625	n/a	100202	responseSmallT	correct	n/a	0.60742	no	n/a	n/a
392.4873047	n/a	100476.75	largeTSmallT	correct	congruent	0.45654	no	T	T
392.9438477	n/a	100593.625	responseSmallT	correct	n/a	0.45654	no	n/a	n/a
394.0200195	n/a	100869.125	largeHSmallT	correct	incongruent	0.53271	no	H	T
394.5527344	n/a	101005.5	responseSmallT	correct	n/a	0.53271	no	n/a	n/a
395.6333008	n/a	101282.125	largeHSmallT	correct	incongruent	0.46826	no	H	T
396.1015625	n/a	101402	responseSmallT	correct	n/a	0.46826	no	n/a	n/a
397.1796875	n/a	101678	largeHSmallT	correct	incongruent	0.43799	no	H	T
397.6176758	n/a	101790.125	responseSmallT	correct	n/a	0.43799	no	n/a	n/a
398.6865234	n/a	102063.75	largeHSmallT	correct	incongruent	0.36426	no	H	T
399.0507812	n/a	102157	responseSmallT	correct	n/a	0.36426	no	n/a	n/a
400.1137695	n/a	102429.125	largeHSmallT	correct	incongruent	0.42383	no	H	T
400.5375977	n/a	102537.625	responseSmallT	correct	n/a	0.42383	no	n/a	n/a
401.6064453	n/a	102811.25	largeTSmallT	correct	congruent	0.41357	no	T	T
402.0200195	n/a	102917.125	responseSmallT	correct	n/a	0.41357	no	n/a	n/a
403.0864258	n/a	103190.125	largeTSmallT	correct	congruent	0.37549	no	T	T
403.4619141	n/a	103286.25	responseSmallT	correct	n/a	0.37549	no	n/a	n/a
404.5395508	n/a	103562.125	largeTSmallT	correct	congruent	0.39014	no	T	T
404.9296875	n/a	103662	responseSmallT	correct	n/a	0.39014	no	n/a	n/a
406.0063477	n/a	103937.625	largeHSmallH	correct	congruent	0.49561	no	H	H
406.5019531	n/a	104064.5	responseSmallH	correct	n/a	0.49561	no	n/a	n/a
407.5795898	n/a	104340.375	largeTSmallT	correct	congruent	0.50439	no	T	T
408.0839844	n/a	104469.5	responseSmallT	correct	n/a	0.50439	no	n/a	n/a
409.152832	n/a	104743.125	largeTSmallT	correct	congruent	0.52686	no	T	T
409.6796875	n/a	104878	responseSmallT	correct	n/a	0.52686	no	n/a	n/a
410.7392578	n/a	105149.25	largeTSmallH	correct	incongruent	0.49268	no	T	H
411.2319336	n/a	105275.375	responseSmallH	correct	n/a	0.49268	no	n/a	n/a
412.2993164	n/a	105548.625	largeTSmallT	correct	congruent	0.50732	no	T	T
412.8066406	n/a	105678.5	responseSmallT	correct	n/a	0.50732	no	n/a	n/a
413.8730469	n/a	105951.5	largeTSmallH	correct	incongruent	0.47705	no	T	H
414.3500977	n/a	106073.625	responseSmallH	correct	n/a	0.47705	no	n/a	n/a
415.4194336	n/a	106347.375	largeTSmallH	correct	incongruent	0.42236	no	T	H
415.8417969	n/a	106455.5	responseSmallH	correct	n/a	0.42236	no	n/a	n/a
416.9125977	n/a	106729.625	largeTSmallT	correct	congruent	0.53369	no	T	T
417.4462891	n/a	106866.25	responseSmallT	correct	n/a	0.53369	no	n/a	n/a
418.5126953	n/a	107139.25	largeTSmallH	correct	incongruent	0.4248	no	T	H
418.9375	n/a	107248	responseSmallH	correct	n/a	0.4248	no	n/a	n/a
420.0058594	n/a	107521.5	largeHSmallT	correct	incongruent	0.49951	no	H	T
420.5053711	n/a	107649.375	responseSmallT	correct	n/a	0.49951	no	n/a	n/a
421.5664062	n/a	107921	largeHSmallH	correct	congruent	0.38916	no	H	H
421.9555664	n/a	108020.625	responseSmallH	correct	n/a	0.38916	no	n/a	n/a
423.019043	n/a	108292.875	largeHSmallH	correct	congruent	0.47949	no	H	H
423.4985352	n/a	108415.625	responseSmallH	correct	n/a	0.47949	no	n/a	n/a
424.565918	n/a	108688.875	largeHSmallT	correct	incongruent	0.57861	no	H	T
425.1445312	n/a	108837	responseSmallT	correct	n/a	0.57861	no	n/a	n/a
426.2192383	n/a	109112.125	largeHSmallH	correct	congruent	0.60059	no	H	H
426.8198242	n/a	109265.875	responseSmallH	correct	n/a	0.60059	no	n/a	n/a
427.8857422	n/a	109538.75	largeHSmallH	correct	congruent	0.45166	no	H	H
428.3374023	n/a	109654.375	responseSmallH	correct	n/a	0.45166	no	n/a	n/a
429.4057617	n/a	109927.875	largeTSmallH	correct	incongruent	0.67139	no	T	H
430.0771484	n/a	110099.75	responseSmallH	correct	n/a	0.67139	no	n/a	n/a
431.1523438	n/a	110375	largeTSmallT	correct	congruent	0.48877	no	T	T
431.6411133	n/a	110500.125	responseSmallT	correct	n/a	0.48877	no	n/a	n/a
432.7124023	n/a	110774.375	largeTSmallT	correct	congruent	0.52197	no	T	T
433.234375	n/a	110908	responseSmallT	correct	n/a	0.52197	no	n/a	n/a
434.2988281	n/a	111180.5	largeTSmallH	error	incongruent	0.39258	no	T	H
434.6914062	n/a	111281	responseSmallT	error	n/a	0.39258	no	n/a	n/a
435.765625	n/a	111556	largeHSmallH	correct	congruent	0.62451	no	H	H
436.3901367	n/a	111715.875	responseSmallH	correct	n/a	0.62451	no	n/a	n/a
437.472168	n/a	111992.875	largeTSmallH	correct	incongruent	0.44189	no	T	H
437.9140625	n/a	112106	responseSmallH	correct	n/a	0.44189	no	n/a	n/a
438.9790039	n/a	112378.625	largeTSmallT	correct	congruent	0.42676	no	T	T
439.4057617	n/a	112487.875	responseSmallT	correct	n/a	0.42676	no	n/a	n/a
440.4853516	n/a	112764.25	largeHSmallT	correct	incongruent	0.5835	no	H	T
441.0688477	n/a	112913.625	responseSmallT	correct	n/a	0.5835	no	n/a	n/a
442.1518555	n/a	113190.875	largeHSmallH	correct	congruent	0.48389	no	H	H
442.6357422	n/a	113314.75	responseSmallH	correct	n/a	0.48389	no	n/a	n/a
443.7119141	n/a	113590.25	largeTSmallH	correct	incongruent	0.47021	no	T	H
444.1821289	n/a	113710.625	responseSmallH	correct	n/a	0.47021	no	n/a	n/a
445.2456055	n/a	113982.875	largeHSmallH	correct	congruent	0.49219	no	H	H
445.737793	n/a	114108.875	responseSmallH	correct	n/a	0.49219	no	n/a	n/a
446.8188477	n/a	114385.625	largeHSmallH	correct	congruent	0.49121	no	H	H
447.3100586	n/a	114511.375	responseSmallH	correct	n/a	0.49121	no	n/a	n/a
448.3920898	n/a	114788.375	largeHSmallH	correct	congruent	0.40039	no	H	H
448.7924805	n/a	114890.875	responseSmallH	correct	n/a	0.40039	no	n/a	n/a
449.8720703	n/a	115167.25	largeHSmallT	correct	incongruent	0.5415	no	H	T
450.4135742	n/a	115305.875	responseSmallT	correct	n/a	0.5415	no	n/a	n/a
451.4985352	n/a	115583.625	largeHSmallH	correct	congruent	0.44043	no	H	H
451.9389648	n/a	115696.375	responseSmallH	correct	n/a	0.44043	no	n/a	n/a
453.0048828	n/a	115969.25	largeHSmallH	correct	congruent	0.45752	no	H	H
453.4624023	n/a	116086.375	responseSmallH	correct	n/a	0.45752	no	n/a	n/a
454.5385742	n/a	116361.875	largeTSmallH	correct	incongruent	0.50391	no	T	H
455.0424805	n/a	116490.875	responseSmallH	correct	n/a	0.50391	no	n/a	n/a
456.1118164	n/a	116764.625	largeTSmallH	correct	incongruent	0.43652	no	T	H
456.5483398	n/a	116876.375	responseSmallH	correct	n/a	0.43652	no	n/a	n/a
457.6186523	n/a	117150.375	largeTSmallH	correct	incongruent	0.37988	no	T	H
457.9985352	n/a	117247.625	responseSmallH	correct	n/a	0.37988	no	n/a	n/a
459.0717773	n/a	117522.375	largeHSmallT	correct	incongruent	0.42773	no	H	T
459.4995117	n/a	117631.875	responseSmallT	correct	n/a	0.42773	no	n/a	n/a
460.5654297	n/a	117904.75	largeTSmallT	correct	congruent	0.49316	no	T	T
461.0585938	n/a	118031	responseSmallT	correct	n/a	0.49316	no	n/a	n/a
462.125	n/a	118304	largeTSmallH	correct	incongruent	0.4458	no	T	H
462.5708008	n/a	118418.125	responseSmallH	correct	n/a	0.4458	no	n/a	n/a
463.6450195	n/a	118693.125	largeTSmallH	correct	incongruent	0.43213	no	T	H
464.0771484	n/a	118803.75	responseSmallH	correct	n/a	0.43213	no	n/a	n/a
465.1381836	n/a	119075.375	largeTSmallH	correct	incongruent	0.36719	no	T	H
465.5053711	n/a	119169.375	responseSmallH	correct	n/a	0.36719	no	n/a	n/a
466.578125	n/a	119444	largeHSmallT	correct	incongruent	0.45996	no	H	T
467.0380859	n/a	119561.75	responseSmallT	correct	n/a	0.45996	no	n/a	n/a
468.1113281	n/a	119836.5	largeTSmallH	correct	incongruent	0.41357	no	T	H
468.5249023	n/a	119942.375	responseSmallH	correct	n/a	0.41357	no	n/a	n/a
469.5913086	n/a	120215.375	largeHSmallT	correct	incongruent	0.63379	no	H	T
470.2250977	n/a	120377.625	responseSmallT	correct	n/a	0.63379	no	n/a	n/a
471.284668	n/a	120648.875	largeTSmallH	correct	incongruent	0.46777	no	T	H
471.7524414	n/a	120768.625	responseSmallH	correct	n/a	0.46777	no	n/a	n/a
472.8178711	n/a	121041.375	largeHSmallT	correct	incongruent	0.41357	no	H	T
473.2314453	n/a	121147.25	responseSmallT	correct	n/a	0.41357	no	n/a	n/a
474.2978516	n/a	121420.25	largeHSmallH	correct	congruent	0.44629	no	H	H
474.7441406	n/a	121534.5	responseSmallH	correct	n/a	0.44629	no	n/a	n/a
475.8178711	n/a	121809.375	largeTSmallT	correct	congruent	0.67529	no	T	T
476.4931641	n/a	121982.25	responseSmallT	correct	n/a	0.67529	no	n/a	n/a
477.5644531	n/a	122256.5	largeHSmallH	correct	congruent	0.52051	no	H	H
478.0849609	n/a	122389.75	responseSmallH	correct	n/a	0.52051	no	n/a	n/a
479.1508789	n/a	122662.625	largeHSmallH	error	congruent	0.33887	no	H	H
479.4897461	n/a	122749.375	responseSmallT	error	n/a	0.33887	no	n/a	n/a
480.5507812	n/a	123021	largeTSmallT	correct	congruent	0.6626	no	T	T
481.2133789	n/a	123190.625	responseSmallT	correct	n/a	0.6626	no	n/a	n/a
482.2841797	n/a	123464.75	largeTSmallT	correct	congruent	0.71533	no	T	T
482.9995117	n/a	123647.875	responseSmallT	correct	n/a	0.71533	no	n/a	n/a
484.0581055	n/a	123918.875	largeTSmallH	correct	incongruent	0.43848	no	T	H
484.496582	n/a	124031.125	responseSmallH	correct	n/a	0.43848	no	n/a	n/a
485.5644531	n/a	124304.5	largeTSmallH	correct	incongruent	0.42334	no	T	H
485.987793	n/a	124412.875	responseSmallH	correct	n/a	0.42334	no	n/a	n/a
487.0576172	n/a	124686.75	largeHSmallH	correct	congruent	0.47656	no	H	H
487.5341797	n/a	124808.75	responseSmallH	correct	n/a	0.47656	no	n/a	n/a
488.6040039	n/a	125082.625	largeHSmallH	correct	congruent	0.39307	no	H	H
488.9970703	n/a	125183.25	responseSmallH	correct	n/a	0.39307	no	n/a	n/a
490.0708008	n/a	125458.125	largeTSmallT	correct	congruent	0.5918	no	T	T
490.6625977	n/a	125609.625	responseSmallT	correct	n/a	0.5918	no	n/a	n/a
491.7373047	n/a	125884.75	largeHSmallH	correct	congruent	0.54053	no	H	H
492.277832	n/a	126023.125	responseSmallH	correct	n/a	0.54053	no	n/a	n/a
493.3505859	n/a	126297.75	largeTSmallT	correct	congruent	0.54004	no	T	T
493.890625	n/a	126436	responseSmallT	correct	n/a	0.54004	no	n/a	n/a
494.9775391	n/a	126714.25	largeHSmallH	correct	congruent	0.62891	no	H	H
495.6064453	n/a	126875.25	responseSmallH	correct	n/a	0.62891	no	n/a	n/a
496.684082	n/a	127151.125	largeTSmallH	correct	incongruent	0.42432	no	T	H
497.1083984	n/a	127259.75	responseSmallH	correct	n/a	0.42432	no	n/a	n/a
498.1904297	n/a	127536.75	largeTSmallT	error	congruent	0.41016	no	T	T
498.6005859	n/a	127641.75	responseSmallH	error	n/a	0.41016	no	n/a	n/a
499.6704102	n/a	127915.625	largeHSmallT	correct	incongruent	0.60352	no	H	T
500.2739258	n/a	128070.125	responseSmallT	correct	n/a	0.60352	no	n/a	n/a
501.3505859	n/a	128345.75	largeHSmallH	correct	congruent	0.521	no	H	H
501.871582	n/a	128479.125	responseSmallH	correct	n/a	0.521	no	n/a	n/a
502.9370117	n/a	128751.875	largeHSmallH	correct	congruent	0.42773	no	H	H
503.3647461	n/a	128861.375	responseSmallH	correct	n/a	0.42773	no	n/a	n/a
504.4438477	n/a	129137.625	largeTSmallT	correct	congruent	0.49072	no	T	T
504.9345703	n/a	129263.25	responseSmallT	correct	n/a	0.49072	no	n/a	n/a
506.0039062	n/a	129537	largeHSmallT	correct	incongruent	0.5	no	H	T
506.5039062	n/a	129665	responseSmallT	correct	n/a	0.5	no	n/a	n/a
507.5771484	n/a	129939.75	largeHSmallT	correct	incongruent	0.48047	no	H	T
508.0576172	n/a	130062.75	responseSmallT	correct	n/a	0.48047	no	n/a	n/a
509.137207	n/a	130339.125	largeHSmallH	correct	congruent	0.45752	no	H	H
509.5947266	n/a	130456.25	responseSmallH	correct	n/a	0.45752	no	n/a	n/a
510.6567383	n/a	130728.125	largeHSmallH	correct	congruent	0.69092	no	H	H
511.3476562	n/a	130905	responseSmallH	correct	n/a	0.69092	no	n/a	n/a
512.4301758	n/a	131182.125	largeHSmallH	correct	congruent	0.4209	no	H	H
512.8510742	n/a	131289.875	responseSmallH	correct	n/a	0.4209	no	n/a	n/a
513.9233398	n/a	131564.375	largeHSmallT	correct	incongruent	0.49561	no	H	T
514.4189453	n/a	131691.25	responseSmallT	correct	n/a	0.49561	no	n/a	n/a
515.4833984	n/a	131963.75	largeHSmallH	correct	congruent	0.45361	no	H	H
515.9370117	n/a	132079.875	responseSmallH	correct	n/a	0.45361	no	n/a	n/a
517.0170898	n/a	132356.375	largeTSmallT	correct	congruent	0.59375	no	T	T
517.6108398	n/a	132508.375	responseSmallT	correct	n/a	0.59375	no	n/a	n/a
518.6835938	n/a	132783	largeTSmallH	correct	incongruent	0.63623	no	T	H
519.3198242	n/a	132945.875	responseSmallH	correct	n/a	0.63623	no	n/a	n/a
520.3901367	n/a	133219.875	largeTSmallT	correct	congruent	0.43994	no	T	T
520.8300781	n/a	133332.5	responseSmallT	correct	n/a	0.43994	no	n/a	n/a
521.8964844	n/a	133605.5	largeHSmallH	correct	congruent	0.48975	no	H	H
522.3862305	n/a	133730.875	responseSmallH	correct	n/a	0.48975	no	n/a	n/a
523.456543	n/a	134004.875	largeHSmallT	correct	incongruent	0.4873	no	H	T
523.9438477	n/a	134129.625	responseSmallT	correct	n/a	0.4873	no	n/a	n/a
525.0166016	n/a	134404.25	largeTSmallT	correct	congruent	0.42871	no	T	T
525.4453125	n/a	134514	responseSmallT	correct	n/a	0.42871	no	n/a	n/a
526.5097656	n/a	134786.5	largeHSmallT	correct	incongruent	0.47119	no	H	T
526.980957	n/a	134907.125	responseSmallT	correct	n/a	0.47119	no	n/a	n/a
528.0566406	n/a	135182.5	largeHSmallT	correct	incongruent	0.40918	no	H	T
528.4658203	n/a	135287.25	responseSmallT	correct	n/a	0.40918	no	n/a	n/a
529.5366211	n/a	135561.375	largeHSmallH	correct	congruent	0.51758	no	H	H
530.0541992	n/a	135693.875	responseSmallH	correct	n/a	0.51758	no	n/a	n/a
531.1362305	n/a	135970.875	largeTSmallT	correct	congruent	0.58398	no	T	T
531.7202148	n/a	136120.375	responseSmallT	correct	n/a	0.58398	no	n/a	n/a
532.7895508	n/a	136394.125	largeTSmallT	correct	congruent	0.52783	no	T	T
533.3173828	n/a	136529.25	responseSmallT	correct	n/a	0.52783	no	n/a	n/a
534.3896484	n/a	136803.75	largeTSmallT	correct	congruent	0.4541	no	T	T
534.84375	n/a	136920	responseSmallT	correct	n/a	0.4541	no	n/a	n/a
535.9228516	n/a	137196.25	largeTSmallT	correct	congruent	0.42139	no	T	T
536.3442383	n/a	137304.125	responseSmallT	correct	n/a	0.42139	no	n/a	n/a
537.4160156	n/a	137578.5	largeTSmallH	correct	incongruent	0.44873	no	T	H
537.8647461	n/a	137693.375	responseSmallH	correct	n/a	0.44873	no	n/a	n/a
538.9360352	n/a	137967.625	largeHSmallT	correct	incongruent	0.47412	no	H	T
539.4101562	n/a	138089	responseSmallT	correct	n/a	0.47412	no	n/a	n/a
540.4692383	n/a	138360.125	largeHSmallH	correct	congruent	0.45703	no	H	H
540.9262695	n/a	138477.125	responseSmallH	correct	n/a	0.45703	no	n/a	n/a
542.0029297	n/a	138752.75	largeHSmallT	correct	incongruent	0.53662	no	H	T
542.5395508	n/a	138890.125	responseSmallT	correct	n/a	0.53662	no	n/a	n/a
543.6162109	n/a	139165.75	largeHSmallH	correct	congruent	0.44922	no	H	H
544.0654297	n/a	139280.75	responseSmallH	correct	n/a	0.44922	no	n/a	n/a
545.1362305	n/a	139554.875	largeHSmallT	correct	incongruent	0.49951	no	H	T
545.6357422	n/a	139682.75	responseSmallT	correct	n/a	0.49951	no	n/a	n/a
546.6958008	n/a	139954.125	largeHSmallT	correct	incongruent	0.47021	no	H	T
547.1660156	n/a	140074.5	responseSmallT	correct	n/a	0.47021	no	n/a	n/a
548.2426758	n/a	140350.125	largeHSmallT	correct	incongruent	0.50391	no	H	T
548.746582	n/a	140479.125	responseSmallT	correct	n/a	0.50391	no	n/a	n/a
549.815918	n/a	140752.875	largeHSmallH	correct	congruent	0.4707	no	H	H
550.2866211	n/a	140873.375	responseSmallH	correct	n/a	0.4707	no	n/a	n/a
551.362793	n/a	141148.875	largeTSmallH	correct	incongruent	0.45703	no	T	H
551.8198242	n/a	141265.875	responseSmallH	correct	n/a	0.45703	no	n/a	n/a
552.8955078	n/a	141541.25	largeTSmallH	correct	incongruent	0.4624	no	T	H
553.3579102	n/a	141659.625	responseSmallH	correct	n/a	0.4624	no	n/a	n/a
554.4423828	n/a	141937.25	largeTSmallH	correct	incongruent	0.44434	no	T	H
554.8867188	n/a	142051	responseSmallH	correct	n/a	0.44434	no	n/a	n/a
555.9624023	n/a	142326.375	largeHSmallT	correct	incongruent	0.41162	no	H	T
556.3740234	n/a	142431.75	responseSmallT	correct	n/a	0.41162	no	n/a	n/a
557.4423828	n/a	142705.25	largeHSmallH	correct	congruent	0.44141	no	H	H
557.8837891	n/a	142818.25	responseSmallH	correct	n/a	0.44141	no	n/a	n/a
558.9624023	n/a	143094.375	largeTSmallT	correct	congruent	0.48145	no	T	T
559.4438477	n/a	143217.625	responseSmallT	correct	n/a	0.48145	no	n/a	n/a
560.5219727	n/a	143493.625	largeHSmallT	correct	incongruent	0.43896	no	H	T
560.9609375	n/a	143606	responseSmallT	correct	n/a	0.43896	no	n/a	n/a
562.0288086	n/a	143879.375	largeHSmallH	correct	congruent	0.46484	no	H	H
562.4936523	n/a	143998.375	responseSmallH	correct	n/a	0.46484	no	n/a	n/a
563.5620117	n/a	144271.875	largeTSmallH	correct	incongruent	0.41211	no	T	H
563.9741211	n/a	144377.375	responseSmallH	correct	n/a	0.41211	no	n/a	n/a
565.0419922	n/a	144650.75	largeTSmallH	correct	incongruent	0.4375	no	T	H
565.4794922	n/a	144762.75	responseSmallH	correct	n/a	0.4375	no	n/a	n/a
566.5620117	n/a	145039.875	largeHSmallH	correct	congruent	0.41895	no	H	H
566.980957	n/a	145147.125	responseSmallH	correct	n/a	0.41895	no	n/a	n/a
568.0556641	n/a	145422.25	largeTSmallT	correct	congruent	0.4541	no	T	T
568.5097656	n/a	145538.5	responseSmallT	correct	n/a	0.4541	no	n/a	n/a
569.5888672	n/a	145814.75	largeHSmallT	correct	incongruent	0.52393	no	H	T
570.112793	n/a	145948.875	responseSmallT	correct	n/a	0.52393	no	n/a	n/a
571.1884766	n/a	146224.25	largeHSmallH	correct	congruent	0.52539	no	H	H
571.7138672	n/a	146358.75	responseSmallH	correct	n/a	0.52539	no	n/a	n/a
572.7885742	n/a	146633.875	largeHSmallH	correct	congruent	0.43066	no	H	H
573.2192383	n/a	146744.125	responseSmallH	correct	n/a	0.43066	no	n/a	n/a
574.2954102	n/a	147019.625	largeTSmallT	correct	congruent	0.49707	no	T	T
574.7924805	n/a	147146.875	responseSmallT	correct	n/a	0.49707	no	n/a	n/a
575.8554688	n/a	147419	largeHSmallH	correct	congruent	0.48096	no	H	H
576.3364258	n/a	147542.125	responseSmallH	correct	n/a	0.48096	no	n/a	n/a
577.4018555	n/a	147814.875	largeTSmallH	correct	incongruent	0.5835	no	T	H
577.9853516	n/a	147964.25	responseSmallH	correct	n/a	0.5835	no	n/a	n/a
579.0551758	n/a	148238.125	largeHSmallH	correct	congruent	0.58008	no	H	H
579.6352539	n/a	148386.625	responseSmallH	correct	n/a	0.58008	no	n/a	n/a
580.7084961	n/a	148661.375	largeTSmallT	correct	congruent	0.47656	no	T	T
581.1850586	n/a	148783.375	responseSmallT	correct	n/a	0.47656	no	n/a	n/a
582.2548828	n/a	149057.25	largeHSmallT	error	incongruent	0.39258	no	H	T
582.6474609	n/a	149157.75	responseSmallH	error	n/a	0.39258	no	n/a	n/a
583.7216797	n/a	149432.75	largeHSmallH	correct	congruent	0.45801	no	H	H
584.1796875	n/a	149550	responseSmallH	correct	n/a	0.45801	no	n/a	n/a
585.2416992	n/a	149821.875	largeHSmallT	correct	incongruent	0.45654	no	H	T
585.6982422	n/a	149938.75	responseSmallT	correct	n/a	0.45654	no	n/a	n/a
586.7749023	n/a	150214.375	largeTSmallH	correct	incongruent	0.44434	no	T	H
587.2192383	n/a	150328.125	responseSmallH	correct	n/a	0.44434	no	n/a	n/a
588.2949219	n/a	150603.5	largeTSmallT	correct	congruent	0.52148	no	T	T
588.8164062	n/a	150737	responseSmallT	correct	n/a	0.52148	no	n/a	n/a
589.8808594	n/a	151009.5	largeHSmallH	correct	congruent	0.49951	no	H	H
590.3803711	n/a	151137.375	responseSmallH	correct	n/a	0.49951	no	n/a	n/a
591.4550781	n/a	151412.5	largeHSmallT	correct	incongruent	0.57471	no	H	T
592.0297852	n/a	151559.625	responseSmallT	correct	n/a	0.57471	no	n/a	n/a
593.0947266	n/a	151832.25	largeTSmallH	correct	incongruent	0.56299	no	T	H
593.6577148	n/a	151976.375	responseSmallH	correct	n/a	0.56299	no	n/a	n/a
594.7348633	n/a	152252.125	largeHSmallT	correct	incongruent	0.53418	no	H	T
595.269043	n/a	152388.875	responseSmallT	correct	n/a	0.53418	no	n/a	n/a
596.3344727	n/a	152661.625	largeHSmallT	correct	incongruent	0.51562	no	H	T
596.8500977	n/a	152793.625	responseSmallT	correct	n/a	0.51562	no	n/a	n/a
597.9213867	n/a	153067.875	largeHSmallT	correct	incongruent	0.47607	no	H	T
598.3974609	n/a	153189.75	responseSmallT	correct	n/a	0.47607	no	n/a	n/a
599.4682617	n/a	153463.875	largeHSmallH	correct	congruent	0.52344	no	H	H
599.9916992	n/a	153597.875	responseSmallH	correct	n/a	0.52344	no	n/a	n/a
601.0678711	n/a	153873.375	largeTSmallH	correct	incongruent	0.54346	no	T	H
601.6113281	n/a	154012.5	responseSmallH	correct	n/a	0.54346	no	n/a	n/a
602.6943359	n/a	154289.75	largeTSmallT	correct	congruent	0.52051	no	T	T
603.2148438	n/a	154423	responseSmallT	correct	n/a	0.52051	no	n/a	n/a
604.28125	n/a	154696	largeTSmallT	correct	congruent	0.52441	no	T	T
604.8056641	n/a	154830.25	responseSmallT	correct	n/a	0.52441	no	n/a	n/a
605.8676758	n/a	155102.125	largeTSmallH	correct	incongruent	0.41943	no	T	H
606.2871094	n/a	155209.5	responseSmallH	correct	n/a	0.41943	no	n/a	n/a
607.3476562	n/a	155481	largeTSmallT	correct	congruent	0.37695	no	T	T
607.7246094	n/a	155577.5	responseSmallT	correct	n/a	0.37695	no	n/a	n/a
608.8007812	n/a	155853	largeHSmallH	correct	congruent	0.49072	no	H	H
609.2915039	n/a	155978.625	responseSmallH	correct	n/a	0.49072	no	n/a	n/a
610.3608398	n/a	156252.375	largeTSmallH	correct	incongruent	0.54541	no	T	H
610.90625	n/a	156392	responseSmallH	correct	n/a	0.54541	no	n/a	n/a
611.9741211	n/a	156665.375	largeTSmallT	correct	congruent	0.48633	no	T	T
612.4604492	n/a	156789.875	responseSmallT	correct	n/a	0.48633	no	n/a	n/a
613.5341797	n/a	157064.75	largeHSmallT	correct	incongruent	0.64014	no	H	T
614.1743164	n/a	157228.625	responseSmallT	correct	n/a	0.64014	no	n/a	n/a
615.2412109	n/a	157501.75	largeTSmallT	correct	congruent	0.43213	no	T	T
615.6733398	n/a	157612.375	responseSmallT	correct	n/a	0.43213	no	n/a	n/a
616.7475586	n/a	157887.375	largeHSmallH	correct	congruent	0.48975	no	H	H
617.2373047	n/a	158012.75	responseSmallH	correct	n/a	0.48975	no	n/a	n/a
618.3071289	n/a	158286.625	largeTSmallH	correct	incongruent	0.68115	no	T	H
618.9882812	n/a	158461	responseSmallH	correct	n/a	0.68115	no	n/a	n/a
620.0673828	n/a	158737.25	largeTSmallT	correct	congruent	0.47705	no	T	T
620.5444336	n/a	158859.375	responseSmallT	correct	n/a	0.47705	no	n/a	n/a
621.6137695	n/a	159133.125	largeTSmallH	correct	incongruent	0.4248	no	T	H
622.0385742	n/a	159241.875	responseSmallH	correct	n/a	0.4248	no	n/a	n/a
623.1074219	n/a	159515.5	largeTSmallT	correct	congruent	0.38721	no	T	T
623.4946289	n/a	159614.625	responseSmallT	correct	n/a	0.38721	no	n/a	n/a
624.5605469	n/a	159887.5	largeHSmallT	correct	incongruent	0.47021	no	H	T
625.0307617	n/a	160007.875	responseSmallT	correct	n/a	0.47021	no	n/a	n/a
626.1074219	n/a	160283.5	largeHSmallH	correct	congruent	0.47656	no	H	H
626.5839844	n/a	160405.5	responseSmallH	correct	n/a	0.47656	no	n/a	n/a
627.6538086	n/a	160679.375	largeTSmallT	correct	congruent	0.4043	no	T	T
628.0581055	n/a	160782.875	responseSmallT	correct	n/a	0.4043	no	n/a	n/a
629.1337891	n/a	161058.25	largeTSmallH	correct	incongruent	0.45068	no	T	H
629.5844727	n/a	161173.625	responseSmallH	correct	n/a	0.45068	no	n/a	n/a
630.6538086	n/a	161447.375	largeTSmallT	correct	congruent	0.36377	no	T	T
631.0175781	n/a	161540.5	responseSmallT	correct	n/a	0.36377	no	n/a	n/a
632.09375	n/a	161816	largeTSmallH	correct	incongruent	0.55469	no	T	H
632.6484375	n/a	161958	responseSmallH	correct	n/a	0.55469	no	n/a	n/a
633.7202148	n/a	162232.375	largeTSmallT	correct	congruent	0.52881	no	T	T
634.2490234	n/a	162367.75	responseSmallT	correct	n/a	0.52881	no	n/a	n/a
635.3203125	n/a	162642	largeTSmallT	correct	congruent	0.56494	no	T	T
635.8852539	n/a	162786.625	responseSmallT	correct	n/a	0.56494	no	n/a	n/a
636.9604492	n/a	163061.875	largeHSmallT	correct	incongruent	0.43457	no	H	T
637.3950195	n/a	163173.125	responseSmallT	correct	n/a	0.43457	no	n/a	n/a
638.4536133	n/a	163444.125	largeTSmallT	correct	congruent	0.43652	no	T	T
638.8901367	n/a	163555.875	responseSmallT	correct	n/a	0.43652	no	n/a	n/a
639.9599609	n/a	163829.75	largeTSmallT	correct	congruent	0.4375	no	T	T
640.3974609	n/a	163941.75	responseSmallT	correct	n/a	0.4375	no	n/a	n/a
641.4667969	n/a	164215.5	largeHSmallT	correct	incongruent	0.37158	no	H	T
641.8383789	n/a	164310.625	responseSmallT	correct	n/a	0.37158	no	n/a	n/a
642.9067383	n/a	164584.125	largeTSmallT	correct	congruent	0.35596	no	T	T
643.2626953	n/a	164675.25	responseSmallT	correct	n/a	0.35596	no	n/a	n/a
644.3466797	n/a	164952.75	largeTSmallH	error	incongruent	0.3125	no	T	H
644.6591797	n/a	165032.75	responseSmallT	error	n/a	0.3125	no	n/a	n/a
645.7202148	n/a	165304.375	largeTSmallT	correct	congruent	0.5127	no	T	T
646.2329102	n/a	165435.625	responseSmallT	correct	n/a	0.5127	no	n/a	n/a
647.3071289	n/a	165710.625	largeHSmallT	correct	incongruent	0.52441	no	H	T
647.831543	n/a	165844.875	responseSmallT	correct	n/a	0.52441	no	n/a	n/a
648.8930664	n/a	166116.625	largeTSmallH	correct	incongruent	0.45557	no	T	H
649.3486328	n/a	166233.25	responseSmallH	correct	n/a	0.45557	no	n/a	n/a
656.4130859	n/a	168041.75	largeTSmallT	correct	congruent	0.56641	no	T	T
656.9794922	n/a	168186.75	responseLargeT	correct	n/a	0.56641	no	n/a	n/a
658.0532227	n/a	168461.625	largeTSmallT	correct	congruent	0.50098	no	T	T
658.5541992	n/a	168589.875	responseLargeT	correct	n/a	0.50098	no	n/a	n/a
659.6264648	n/a	168864.375	largeTSmallH	error	incongruent	0.5791	no	T	H
660.2055664	n/a	169012.625	responseLargeH	error	n/a	0.5791	no	n/a	n/a
661.2797852	n/a	169287.625	largeTSmallH	correct	incongruent	0.71387	no	T	H
661.9936523	n/a	169470.375	responseLargeT	correct	n/a	0.71387	no	n/a	n/a
663.0664062	n/a	169745	largeHSmallT	correct	incongruent	0.43896	no	H	T
663.5053711	n/a	169857.375	responseLargeH	correct	n/a	0.43896	no	n/a	n/a
664.5732422	n/a	170130.75	largeTSmallT	correct	congruent	0.45654	no	T	T
665.0297852	n/a	170247.625	responseLargeT	correct	n/a	0.45654	no	n/a	n/a
666.105957	n/a	170523.125	largeTSmallH	correct	incongruent	0.72119	no	T	H
666.8271484	n/a	170707.75	responseLargeT	correct	n/a	0.72119	no	n/a	n/a
667.8930664	n/a	170980.625	largeTSmallH	correct	incongruent	0.4668	no	T	H
668.3598633	n/a	171100.125	responseLargeT	correct	n/a	0.4668	no	n/a	n/a
669.4262695	n/a	171373.125	largeHSmallH	correct	congruent	0.49658	no	H	H
669.9228516	n/a	171500.25	responseLargeH	correct	n/a	0.49658	no	n/a	n/a
670.9995117	n/a	171775.875	largeTSmallH	correct	incongruent	0.51074	no	T	H
671.5102539	n/a	171906.625	responseLargeT	correct	n/a	0.51074	no	n/a	n/a
672.5727539	n/a	172178.625	largeTSmallH	correct	incongruent	0.53955	no	T	H
673.1123047	n/a	172316.75	responseLargeT	correct	n/a	0.53955	no	n/a	n/a
674.1860352	n/a	172591.625	largeHSmallH	correct	congruent	0.479	no	H	H
674.6650391	n/a	172714.25	responseLargeH	correct	n/a	0.479	no	n/a	n/a
675.7460938	n/a	172991	largeTSmallT	correct	congruent	0.39648	no	T	T
676.1425781	n/a	173092.5	responseLargeT	correct	n/a	0.39648	no	n/a	n/a
677.2124023	n/a	173366.375	largeTSmallH	correct	incongruent	0.42383	no	T	H
677.6362305	n/a	173474.875	responseLargeT	correct	n/a	0.42383	no	n/a	n/a
678.7055664	n/a	173748.625	largeHSmallT	correct	incongruent	0.3916	no	H	T
679.097168	n/a	173848.875	responseLargeH	correct	n/a	0.3916	no	n/a	n/a
680.1723633	n/a	174124.125	largeHSmallH	correct	congruent	0.46582	no	H	H
680.6381836	n/a	174243.375	responseLargeH	correct	n/a	0.46582	no	n/a	n/a
681.7060547	n/a	174516.75	largeHSmallH	correct	congruent	0.39453	no	H	H
682.1005859	n/a	174617.75	responseLargeH	correct	n/a	0.39453	no	n/a	n/a
683.1723633	n/a	174892.125	largeHSmallH	correct	congruent	0.49365	no	H	H
683.6660156	n/a	175018.5	responseLargeH	correct	n/a	0.49365	no	n/a	n/a
684.7456055	n/a	175294.875	largeTSmallH	correct	incongruent	0.44336	no	T	H
685.1889648	n/a	175408.375	responseLargeT	correct	n/a	0.44336	no	n/a	n/a
686.2524414	n/a	175680.625	largeTSmallT	correct	congruent	0.44482	no	T	T
686.6972656	n/a	175794.5	responseLargeT	correct	n/a	0.44482	no	n/a	n/a
687.7724609	n/a	176069.75	largeHSmallH	correct	congruent	0.42529	no	H	H
688.1977539	n/a	176178.625	responseLargeH	correct	n/a	0.42529	no	n/a	n/a
689.265625	n/a	176452	largeHSmallT	correct	incongruent	0.47168	no	H	T
689.7373047	n/a	176572.75	responseLargeH	correct	n/a	0.47168	no	n/a	n/a
690.8120117	n/a	176847.875	largeTSmallH	correct	incongruent	0.41553	no	T	H
691.2275391	n/a	176954.25	responseLargeT	correct	n/a	0.41553	no	n/a	n/a
692.2919922	n/a	177226.75	largeTSmallT	correct	congruent	0.45703	no	T	T
692.7490234	n/a	177343.75	responseLargeT	correct	n/a	0.45703	no	n/a	n/a
693.8251953	n/a	177619.25	largeTSmallT	correct	congruent	0.43213	no	T	T
694.2573242	n/a	177729.875	responseLargeT	correct	n/a	0.43213	no	n/a	n/a
695.3325195	n/a	178005.125	largeHSmallH	correct	congruent	0.33252	no	H	H
695.6650391	n/a	178090.25	responseLargeH	correct	n/a	0.33252	no	n/a	n/a
696.7456055	n/a	178366.875	largeHSmallH	correct	congruent	0.42139	no	H	H
697.1669922	n/a	178474.75	responseLargeH	correct	n/a	0.42139	no	n/a	n/a
698.2387695	n/a	178749.125	largeHSmallT	correct	incongruent	0.37402	no	H	T
698.612793	n/a	178844.875	responseLargeH	correct	n/a	0.37402	no	n/a	n/a
699.6918945	n/a	179121.125	largeHSmallT	correct	incongruent	0.3623	no	H	T
700.0541992	n/a	179213.875	responseLargeH	correct	n/a	0.3623	no	n/a	n/a
701.1186523	n/a	179486.375	largeTSmallT	correct	congruent	0.50586	no	T	T
701.6245117	n/a	179615.875	responseLargeT	correct	n/a	0.50586	no	n/a	n/a
702.7050781	n/a	179892.5	largeHSmallH	correct	congruent	0.41211	no	H	H
703.1171875	n/a	179998	responseLargeH	correct	n/a	0.41211	no	n/a	n/a
704.1855469	n/a	180271.5	largeHSmallH	correct	congruent	0.39209	no	H	H
704.5776367	n/a	180371.875	responseLargeH	correct	n/a	0.39209	no	n/a	n/a
705.6518555	n/a	180646.875	largeHSmallT	correct	incongruent	0.41602	no	H	T
706.0678711	n/a	180753.375	responseLargeH	correct	n/a	0.41602	no	n/a	n/a
707.1455078	n/a	181029.25	largeHSmallT	correct	incongruent	0.33057	no	H	T
707.4760742	n/a	181113.875	responseLargeH	correct	n/a	0.33057	no	n/a	n/a
708.5449219	n/a	181387.5	largeHSmallH	correct	congruent	0.40479	no	H	H
708.949707	n/a	181491.125	responseLargeH	correct	n/a	0.40479	no	n/a	n/a
710.0117188	n/a	181763	largeTSmallH	error	incongruent	0.28613	no	T	H
710.2978516	n/a	181836.25	responseLargeH	error	n/a	0.28613	no	n/a	n/a
711.371582	n/a	182111.125	largeTSmallT	correct	congruent	0.40039	no	T	T
711.7719727	n/a	182213.625	responseLargeT	correct	n/a	0.40039	no	n/a	n/a
712.8383789	n/a	182486.625	largeHSmallH	correct	congruent	0.45898	no	H	H
713.2973633	n/a	182604.125	responseLargeH	correct	n/a	0.45898	no	n/a	n/a
714.371582	n/a	182879.125	largeTSmallT	correct	congruent	0.38818	no	T	T
714.7597656	n/a	182978.5	responseLargeT	correct	n/a	0.38818	no	n/a	n/a
715.8383789	n/a	183254.625	largeHSmallH	correct	congruent	0.51562	no	H	H
716.3540039	n/a	183386.625	responseLargeH	correct	n/a	0.51562	no	n/a	n/a
717.4248047	n/a	183660.75	largeHSmallH	correct	congruent	0.42725	no	H	H
717.8520508	n/a	183770.125	responseLargeH	correct	n/a	0.42725	no	n/a	n/a
718.9179688	n/a	184043	largeTSmallH	correct	incongruent	0.45264	no	T	H
719.3706055	n/a	184158.875	responseLargeT	correct	n/a	0.45264	no	n/a	n/a
720.4379883	n/a	184432.125	largeTSmallH	correct	incongruent	0.3999	no	T	H
720.8378906	n/a	184534.5	responseLargeT	correct	n/a	0.3999	no	n/a	n/a
721.9047852	n/a	184807.625	largeTSmallH	correct	incongruent	0.39355	no	T	H
722.2983398	n/a	184908.375	responseLargeT	correct	n/a	0.39355	no	n/a	n/a
723.371582	n/a	185183.125	largeTSmallT	correct	congruent	0.42773	no	T	T
723.7993164	n/a	185292.625	responseLargeT	correct	n/a	0.42773	no	n/a	n/a
724.8647461	n/a	185565.375	largeTSmallH	correct	incongruent	0.43994	no	T	H
725.3046875	n/a	185678	responseLargeT	correct	n/a	0.43994	no	n/a	n/a
726.3847656	n/a	185954.5	largeHSmallT	error	incongruent	0.48926	no	H	T
726.8740234	n/a	186079.75	responseLargeT	error	n/a	0.48926	no	n/a	n/a
727.9443359	n/a	186353.75	largeTSmallH	correct	incongruent	0.48047	no	T	H
728.4248047	n/a	186476.75	responseLargeT	correct	n/a	0.48047	no	n/a	n/a
729.5043945	n/a	186753.125	largeTSmallH	correct	incongruent	0.49805	no	T	H
730.0024414	n/a	186880.625	responseLargeT	correct	n/a	0.49805	no	n/a	n/a
731.0776367	n/a	187155.875	largeHSmallH	correct	congruent	0.46582	no	H	H
731.543457	n/a	187275.125	responseLargeH	correct	n/a	0.46582	no	n/a	n/a
732.6245117	n/a	187551.875	largeHSmallT	correct	incongruent	0.43945	no	H	T
733.0639648	n/a	187664.375	responseLargeH	correct	n/a	0.43945	no	n/a	n/a
734.1313477	n/a	187937.625	largeTSmallH	correct	incongruent	0.40332	no	T	H
734.534668	n/a	188040.875	responseLargeT	correct	n/a	0.40332	no	n/a	n/a
735.5976562	n/a	188313	largeHSmallH	correct	congruent	0.41992	no	H	H
736.0175781	n/a	188420.5	responseLargeH	correct	n/a	0.41992	no	n/a	n/a
737.0776367	n/a	188691.875	largeTSmallT	correct	congruent	0.40723	no	T	T
737.4848633	n/a	188796.125	responseLargeT	correct	n/a	0.40723	no	n/a	n/a
738.5444336	n/a	189067.375	largeTSmallT	error	congruent	0.28271	no	T	T
738.8271484	n/a	189139.75	responseLargeH	error	n/a	0.28271	no	n/a	n/a
739.9042969	n/a	189415.5	largeHSmallH	error	congruent	0.60156	no	H	H
740.5058594	n/a	189569.5	responseLargeT	error	n/a	0.60156	no	n/a	n/a
741.5708008	n/a	189842.125	largeTSmallH	correct	incongruent	0.65137	no	T	H
742.222168	n/a	190008.875	responseLargeT	correct	n/a	0.65137	no	n/a	n/a
743.2910156	n/a	190282.5	largeHSmallT	error	incongruent	0.45996	no	H	T
743.7509766	n/a	190400.25	responseLargeT	error	n/a	0.45996	no	n/a	n/a
744.8242188	n/a	190675	largeHSmallT	error	incongruent	0.5415	no	H	T
745.3657227	n/a	190813.625	responseLargeT	error	n/a	0.5415	no	n/a	n/a
746.4375	n/a	191088	largeTSmallT	correct	congruent	0.52295	no	T	T
746.9604492	n/a	191221.875	responseLargeT	correct	n/a	0.52295	no	n/a	n/a
748.0375977	n/a	191497.625	largeTSmallH	correct	incongruent	0.52441	no	T	H
748.5620117	n/a	191631.875	responseLargeT	correct	n/a	0.52441	no	n/a	n/a
749.637207	n/a	191907.125	largeTSmallH	correct	incongruent	0.44434	no	T	H
750.081543	n/a	192020.875	responseLargeT	correct	n/a	0.44434	no	n/a	n/a
751.1572266	n/a	192296.25	largeTSmallT	correct	congruent	0.46143	no	T	T
751.6186523	n/a	192414.375	responseLargeT	correct	n/a	0.46143	no	n/a	n/a
752.6772461	n/a	192685.375	largeTSmallT	correct	congruent	0.3877	no	T	T
753.0649414	n/a	192784.625	responseLargeT	correct	n/a	0.3877	no	n/a	n/a
754.1303711	n/a	193057.375	largeTSmallH	correct	incongruent	0.45215	no	T	H
754.5825195	n/a	193173.125	responseLargeT	correct	n/a	0.45215	no	n/a	n/a
755.6376953	n/a	193443.25	largeHSmallH	correct	congruent	0.50146	no	H	H
756.1391602	n/a	193571.625	responseLargeH	correct	n/a	0.50146	no	n/a	n/a
757.2104492	n/a	193845.875	largeTSmallH	correct	incongruent	0.46289	no	T	H
757.6733398	n/a	193964.375	responseLargeT	correct	n/a	0.46289	no	n/a	n/a
758.7441406	n/a	194238.5	largeTSmallT	correct	congruent	0.61279	no	T	T
759.3569336	n/a	194395.375	responseLargeT	correct	n/a	0.61279	no	n/a	n/a
760.4370117	n/a	194671.875	largeTSmallT	correct	congruent	0.57129	no	T	T
761.0083008	n/a	194818.125	responseLargeT	correct	n/a	0.57129	no	n/a	n/a
762.0771484	n/a	195091.75	largeTSmallT	correct	congruent	0.47412	no	T	T
762.5512695	n/a	195213.125	responseLargeT	correct	n/a	0.47412	no	n/a	n/a
763.6235352	n/a	195487.625	largeHSmallT	correct	incongruent	0.56836	no	H	T
764.1918945	n/a	195633.125	responseLargeH	correct	n/a	0.56836	no	n/a	n/a
765.2504883	n/a	195904.125	largeHSmallH	correct	congruent	0.38965	no	H	H
765.6401367	n/a	196003.875	responseLargeH	correct	n/a	0.38965	no	n/a	n/a
766.7036133	n/a	196276.125	largeHSmallT	correct	incongruent	0.51367	no	H	T
767.2172852	n/a	196407.625	responseLargeH	correct	n/a	0.51367	no	n/a	n/a
768.2900391	n/a	196682.25	largeTSmallT	correct	congruent	0.49463	no	T	T
768.784668	n/a	196808.875	responseLargeT	correct	n/a	0.49463	no	n/a	n/a
769.8637695	n/a	197085.125	largeTSmallH	correct	incongruent	0.58545	no	T	H
770.4492188	n/a	197235	responseLargeT	correct	n/a	0.58545	no	n/a	n/a
771.5302734	n/a	197511.75	largeHSmallT	correct	incongruent	0.51465	no	H	T
772.0449219	n/a	197643.5	responseLargeH	correct	n/a	0.51465	no	n/a	n/a
773.1166992	n/a	197917.875	largeHSmallT	correct	incongruent	0.57129	no	H	T
773.6879883	n/a	198064.125	responseLargeH	correct	n/a	0.57129	no	n/a	n/a
774.7563477	n/a	198337.625	largeHSmallT	correct	incongruent	0.59033	no	H	T
775.3466797	n/a	198488.75	responseLargeH	correct	n/a	0.59033	no	n/a	n/a
776.4233398	n/a	198764.375	largeTSmallT	correct	congruent	0.48584	no	T	T
776.9091797	n/a	198888.75	responseLargeT	correct	n/a	0.48584	no	n/a	n/a
777.9833984	n/a	199163.75	largeHSmallT	correct	incongruent	0.51367	no	H	T
778.4970703	n/a	199295.25	responseLargeH	correct	n/a	0.51367	no	n/a	n/a
779.5566406	n/a	199566.5	largeTSmallT	correct	congruent	0.52051	no	T	T
780.0771484	n/a	199699.75	responseLargeT	correct	n/a	0.52051	no	n/a	n/a
781.15625	n/a	199976	largeHSmallH	correct	congruent	0.39697	no	H	H
781.5532227	n/a	200077.625	responseLargeH	correct	n/a	0.39697	no	n/a	n/a
782.6230469	n/a	200351.5	largeHSmallH	correct	congruent	0.48438	no	H	H
783.1074219	n/a	200475.5	responseLargeH	correct	n/a	0.48438	no	n/a	n/a
784.1831055	n/a	200750.875	largeTSmallH	correct	incongruent	0.4873	no	T	H
784.6704102	n/a	200875.625	responseLargeT	correct	n/a	0.4873	no	n/a	n/a
785.7431641	n/a	201150.25	largeHSmallH	correct	congruent	0.54346	no	H	H
786.2866211	n/a	201289.375	responseLargeH	correct	n/a	0.54346	no	n/a	n/a
787.3564453	n/a	201563.25	largeTSmallH	correct	incongruent	0.58105	no	T	H
787.9375	n/a	201712	responseLargeT	correct	n/a	0.58105	no	n/a	n/a
789.0097656	n/a	201986.5	largeHSmallT	correct	incongruent	0.51709	no	H	T
789.5268555	n/a	202118.875	responseLargeH	correct	n/a	0.51709	no	n/a	n/a
790.5961914	n/a	202392.625	largeHSmallT	correct	incongruent	0.50342	no	H	T
791.0996094	n/a	202521.5	responseLargeH	correct	n/a	0.50342	no	n/a	n/a
792.1694336	n/a	202795.375	largeHSmallT	correct	incongruent	0.42529	no	H	T
792.5947266	n/a	202904.25	responseLargeH	correct	n/a	0.42529	no	n/a	n/a
793.6625977	n/a	203177.625	largeHSmallT	correct	incongruent	0.38574	no	H	T
794.0483398	n/a	203276.375	responseLargeH	correct	n/a	0.38574	no	n/a	n/a
795.1162109	n/a	203549.75	largeTSmallH	correct	incongruent	0.59033	no	T	H
795.706543	n/a	203700.875	responseLargeT	correct	n/a	0.59033	no	n/a	n/a
796.7827148	n/a	203976.375	largeHSmallH	correct	congruent	0.48193	no	H	H
797.2646484	n/a	204099.75	responseLargeH	correct	n/a	0.48193	no	n/a	n/a
798.3427734	n/a	204375.75	largeHSmallT	correct	incongruent	0.40527	no	H	T
798.7480469	n/a	204479.5	responseLargeH	correct	n/a	0.40527	no	n/a	n/a
799.8227539	n/a	204754.625	largeTSmallT	correct	congruent	0.50146	no	T	T
800.3242188	n/a	204883	responseLargeT	correct	n/a	0.50146	no	n/a	n/a
801.3959961	n/a	205157.375	largeHSmallT	correct	incongruent	0.44287	no	H	T
801.8388672	n/a	205270.75	responseLargeH	correct	n/a	0.44287	no	n/a	n/a
802.9160156	n/a	205546.5	largeTSmallT	correct	congruent	0.43311	no	T	T
803.3491211	n/a	205657.375	responseLargeT	correct	n/a	0.43311	no	n/a	n/a
804.4223633	n/a	205932.125	largeHSmallT	correct	incongruent	0.38428	no	H	T
804.8066406	n/a	206030.5	responseLargeH	correct	n/a	0.38428	no	n/a	n/a
805.8759766	n/a	206304.25	largeHSmallH	correct	congruent	0.47266	no	H	H
806.3486328	n/a	206425.25	responseLargeH	correct	n/a	0.47266	no	n/a	n/a
807.4223633	n/a	206700.125	largeHSmallT	correct	incongruent	0.46191	no	H	T
807.8842773	n/a	206818.375	responseLargeH	correct	n/a	0.46191	no	n/a	n/a
808.9555664	n/a	207092.625	largeTSmallH	correct	incongruent	0.49072	no	T	H
809.4462891	n/a	207218.25	responseLargeT	correct	n/a	0.49072	no	n/a	n/a
810.515625	n/a	207492	largeHSmallT	correct	incongruent	0.40039	no	H	T
810.9160156	n/a	207594.5	responseLargeH	correct	n/a	0.40039	no	n/a	n/a
811.9956055	n/a	207870.875	largeHSmallT	correct	incongruent	0.45801	no	H	T
812.4536133	n/a	207988.125	responseLargeH	correct	n/a	0.45801	no	n/a	n/a
813.5288086	n/a	208263.375	largeTSmallT	correct	congruent	0.47998	no	T	T
814.0087891	n/a	208386.25	responseLargeT	correct	n/a	0.47998	no	n/a	n/a
815.0893555	n/a	208662.875	largeHSmallH	correct	congruent	0.49072	no	H	H
815.5800781	n/a	208788.5	responseLargeH	correct	n/a	0.49072	no	n/a	n/a
816.6621094	n/a	209065.5	largeTSmallT	correct	congruent	0.50732	no	T	T
817.1694336	n/a	209195.375	responseLargeT	correct	n/a	0.50732	no	n/a	n/a
818.2353516	n/a	209468.25	largeTSmallH	correct	incongruent	0.49023	no	T	H
818.7255859	n/a	209593.75	responseLargeT	correct	n/a	0.49023	no	n/a	n/a
819.7954102	n/a	209867.625	largeTSmallT	correct	congruent	0.45557	no	T	T
820.2509766	n/a	209984.25	responseLargeT	correct	n/a	0.45557	no	n/a	n/a
821.3286133	n/a	210260.125	largeTSmallH	correct	incongruent	0.57861	no	T	H
821.9072266	n/a	210408.25	responseLargeT	correct	n/a	0.57861	no	n/a	n/a
822.9819336	n/a	210683.375	largeHSmallT	correct	incongruent	0.48193	no	H	T
823.4638672	n/a	210806.75	responseLargeH	correct	n/a	0.48193	no	n/a	n/a
824.5288086	n/a	211079.375	largeTSmallH	correct	incongruent	0.4917	no	T	H
825.0205078	n/a	211205.25	responseLargeT	correct	n/a	0.4917	no	n/a	n/a
826.0888672	n/a	211478.75	largeTSmallH	correct	incongruent	0.50098	no	T	H
826.5898438	n/a	211607	responseLargeT	correct	n/a	0.50098	no	n/a	n/a
827.6621094	n/a	211881.5	largeHSmallH	correct	congruent	0.4751	no	H	H
828.137207	n/a	212003.125	responseLargeH	correct	n/a	0.4751	no	n/a	n/a
829.222168	n/a	212280.875	largeHSmallT	correct	incongruent	0.51416	no	H	T
829.7363281	n/a	212412.5	responseLargeH	correct	n/a	0.51416	no	n/a	n/a
830.8085938	n/a	212687	largeHSmallH	correct	congruent	0.3833	no	H	H
831.1918945	n/a	212785.125	responseLargeH	correct	n/a	0.3833	no	n/a	n/a
832.2617188	n/a	213059	largeHSmallH	correct	congruent	0.4585	no	H	H
832.7202148	n/a	213176.375	responseLargeH	correct	n/a	0.4585	no	n/a	n/a
833.7817383	n/a	213448.125	largeTSmallT	correct	congruent	0.4624	no	T	T
834.2441406	n/a	213566.5	responseLargeT	correct	n/a	0.4624	no	n/a	n/a
835.3149414	n/a	213840.625	largeTSmallH	correct	incongruent	0.48926	no	T	H
835.8041992	n/a	213965.875	responseLargeT	correct	n/a	0.48926	no	n/a	n/a
836.875	n/a	214240	largeHSmallH	correct	congruent	0.41309	no	H	H
837.2880859	n/a	214345.75	responseLargeH	correct	n/a	0.41309	no	n/a	n/a
838.3549805	n/a	214618.875	largeHSmallH	correct	congruent	0.41895	no	H	H
838.7739258	n/a	214726.125	responseLargeH	correct	n/a	0.41895	no	n/a	n/a
839.8349609	n/a	214997.75	largeHSmallH	correct	congruent	0.50244	no	H	H
840.3374023	n/a	215126.375	responseLargeH	correct	n/a	0.50244	no	n/a	n/a
841.4082031	n/a	215400.5	largeTSmallH	correct	incongruent	0.43408	no	T	H
841.8422852	n/a	215511.625	responseLargeT	correct	n/a	0.43408	no	n/a	n/a
842.9150391	n/a	215786.25	largeTSmallH	correct	incongruent	0.48584	no	T	H
843.4008789	n/a	215910.625	responseLargeT	correct	n/a	0.48584	no	n/a	n/a
844.4750977	n/a	216185.625	largeTSmallT	correct	congruent	0.52783	no	T	T
845.0029297	n/a	216320.75	responseLargeT	correct	n/a	0.52783	no	n/a	n/a
846.074707	n/a	216595.125	largeHSmallT	error	incongruent	0.44727	no	H	T
846.5219727	n/a	216709.625	responseLargeT	error	n/a	0.44727	no	n/a	n/a
847.5947266	n/a	216984.25	largeTSmallT	correct	congruent	0.49854	no	T	T
848.0932617	n/a	217111.875	responseLargeT	correct	n/a	0.49854	no	n/a	n/a
849.1679688	n/a	217387	largeTSmallH	correct	incongruent	0.65234	no	T	H
849.8203125	n/a	217554	responseLargeT	correct	n/a	0.65234	no	n/a	n/a
850.8881836	n/a	217827.375	largeHSmallH	correct	congruent	0.38037	no	H	H
851.2685547	n/a	217924.75	responseLargeH	correct	n/a	0.38037	no	n/a	n/a
852.328125	n/a	218196	largeTSmallH	correct	incongruent	0.71143	no	T	H
853.0395508	n/a	218378.125	responseLargeT	correct	n/a	0.71143	no	n/a	n/a
854.1147461	n/a	218653.375	largeHSmallT	correct	incongruent	0.60693	no	H	T
854.7216797	n/a	218808.75	responseLargeH	correct	n/a	0.60693	no	n/a	n/a
855.7944336	n/a	219083.375	largeHSmallT	correct	incongruent	0.45264	no	H	T
856.2470703	n/a	219199.25	responseLargeH	correct	n/a	0.45264	no	n/a	n/a
857.3144531	n/a	219472.5	largeHSmallT	correct	incongruent	0.4751	no	H	T
857.7895508	n/a	219594.125	responseLargeH	correct	n/a	0.4751	no	n/a	n/a
858.8608398	n/a	219868.375	largeHSmallH	correct	congruent	0.45361	no	H	H
859.3144531	n/a	219984.5	responseLargeH	correct	n/a	0.45361	no	n/a	n/a
860.3813477	n/a	220257.625	largeTSmallT	correct	congruent	0.45508	no	T	T
860.8364258	n/a	220374.125	responseLargeT	correct	n/a	0.45508	no	n/a	n/a
861.9145508	n/a	220650.125	largeTSmallH	correct	incongruent	0.47119	no	T	H
862.3857422	n/a	220770.75	responseLargeT	correct	n/a	0.47119	no	n/a	n/a
863.4609375	n/a	221046	largeTSmallH	correct	incongruent	0.48145	no	T	H
863.9423828	n/a	221169.25	responseLargeT	correct	n/a	0.48145	no	n/a	n/a
865.0209961	n/a	221445.375	largeTSmallT	correct	congruent	0.396	no	T	T
865.4169922	n/a	221546.75	responseLargeT	correct	n/a	0.396	no	n/a	n/a
866.4873047	n/a	221820.75	largeHSmallT	correct	incongruent	0.43848	no	H	T
866.9257812	n/a	221933	responseLargeH	correct	n/a	0.43848	no	n/a	n/a
867.9941406	n/a	222206.5	largeHSmallT	correct	incongruent	0.41602	no	H	T
868.4101562	n/a	222313	responseLargeH	correct	n/a	0.41602	no	n/a	n/a
869.4873047	n/a	222588.75	largeHSmallH	correct	congruent	0.37793	no	H	H
869.8652344	n/a	222685.5	responseLargeH	correct	n/a	0.37793	no	n/a	n/a
870.9272461	n/a	222957.375	largeHSmallT	correct	incongruent	0.32861	no	H	T
871.2558594	n/a	223041.5	responseLargeH	correct	n/a	0.32861	no	n/a	n/a
872.3408203	n/a	223319.25	largeTSmallT	error	congruent	0.35156	no	T	T
872.6923828	n/a	223409.25	responseLargeH	error	n/a	0.35156	no	n/a	n/a
873.7675781	n/a	223684.5	largeTSmallT	correct	congruent	0.42822	no	T	T
874.1958008	n/a	223794.125	responseLargeT	correct	n/a	0.42822	no	n/a	n/a
875.2739258	n/a	224070.125	largeTSmallT	correct	congruent	0.34473	no	T	T
875.6186523	n/a	224158.375	responseLargeT	correct	n/a	0.34473	no	n/a	n/a
876.6875	n/a	224432	largeTSmallT	correct	congruent	0.35596	no	T	T
877.043457	n/a	224523.125	responseLargeT	correct	n/a	0.35596	no	n/a	n/a
878.1274414	n/a	224800.625	largeTSmallT	correct	congruent	0.34961	no	T	T
878.4770508	n/a	224890.125	responseLargeT	correct	n/a	0.34961	no	n/a	n/a
879.5405273	n/a	225162.375	largeTSmallT	correct	congruent	0.37793	no	T	T
879.918457	n/a	225259.125	responseLargeT	correct	n/a	0.37793	no	n/a	n/a
880.9936523	n/a	225534.375	largeTSmallT	correct	congruent	0.35889	no	T	T
881.3525391	n/a	225626.25	responseLargeT	correct	n/a	0.35889	no	n/a	n/a
882.4335938	n/a	225903	largeHSmallH	error	congruent	0.31592	no	H	H
882.7495117	n/a	225983.875	responseLargeT	error	n/a	0.31592	no	n/a	n/a
883.8208008	n/a	226258.125	largeHSmallH	correct	congruent	0.43408	no	H	H
884.2548828	n/a	226369.25	responseLargeH	correct	n/a	0.43408	no	n/a	n/a
885.3271484	n/a	226643.75	largeHSmallH	correct	congruent	0.38672	no	H	H
885.7138672	n/a	226742.75	responseLargeH	correct	n/a	0.38672	no	n/a	n/a
886.7802734	n/a	227015.75	largeHSmallT	correct	incongruent	0.34814	no	H	T
887.128418	n/a	227104.875	responseLargeH	correct	n/a	0.34814	no	n/a	n/a
888.1938477	n/a	227377.625	largeHSmallT	correct	incongruent	0.37012	no	H	T
888.5639648	n/a	227472.375	responseLargeH	correct	n/a	0.37012	no	n/a	n/a
889.6337891	n/a	227746.25	largeTSmallT	error	congruent	0.42871	no	T	T
890.0625	n/a	227856	responseLargeH	error	n/a	0.42871	no	n/a	n/a
891.1401367	n/a	228131.875	largeTSmallT	correct	congruent	0.48438	no	T	T
891.6245117	n/a	228255.875	responseLargeT	correct	n/a	0.48438	no	n/a	n/a
892.6870117	n/a	228527.875	largeHSmallT	correct	incongruent	0.48877	no	H	T
893.1757812	n/a	228653	responseLargeH	correct	n/a	0.48877	no	n/a	n/a
894.2470703	n/a	228927.25	largeTSmallT	correct	congruent	0.43164	no	T	T
894.6787109	n/a	229037.75	responseLargeT	correct	n/a	0.43164	no	n/a	n/a
895.753418	n/a	229312.875	largeTSmallT	correct	congruent	0.57031	no	T	T
896.3237305	n/a	229458.875	responseLargeT	correct	n/a	0.57031	no	n/a	n/a
897.3935547	n/a	229732.75	largeTSmallH	correct	incongruent	0.53906	no	T	H
897.9326172	n/a	229870.75	responseLargeT	correct	n/a	0.53906	no	n/a	n/a
899.0068359	n/a	230145.75	largeTSmallH	correct	incongruent	0.48975	no	T	H
899.496582	n/a	230271.125	responseLargeT	correct	n/a	0.48975	no	n/a	n/a
900.5664062	n/a	230545	largeHSmallT	correct	incongruent	0.49365	no	H	T
901.0600586	n/a	230671.375	responseLargeH	correct	n/a	0.49365	no	n/a	n/a
902.1264648	n/a	230944.375	largeHSmallT	correct	incongruent	0.51562	no	H	T
902.6420898	n/a	231076.375	responseLargeH	correct	n/a	0.51562	no	n/a	n/a
903.699707	n/a	231347.125	largeHSmallT	correct	incongruent	0.39307	no	H	T
904.0927734	n/a	231447.75	responseLargeH	correct	n/a	0.39307	no	n/a	n/a
905.1533203	n/a	231719.25	largeHSmallH	correct	congruent	0.37793	no	H	H
905.53125	n/a	231816	responseLargeH	correct	n/a	0.37793	no	n/a	n/a
906.6064453	n/a	232091.25	largeTSmallT	correct	congruent	0.41504	no	T	T
907.0214844	n/a	232197.5	responseLargeT	correct	n/a	0.41504	no	n/a	n/a
908.0864258	n/a	232470.125	largeHSmallH	correct	congruent	0.56104	no	H	H
908.6474609	n/a	232613.75	responseLargeH	correct	n/a	0.56104	no	n/a	n/a
909.7133789	n/a	232886.625	largeHSmallT	correct	incongruent	0.47559	no	H	T
910.1889648	n/a	233008.375	responseLargeH	correct	n/a	0.47559	no	n/a	n/a
911.2597656	n/a	233282.5	largeHSmallH	correct	congruent	0.48438	no	H	H
911.7441406	n/a	233406.5	responseLargeH	correct	n/a	0.48438	no	n/a	n/a
912.8198242	n/a	233681.875	largeHSmallH	correct	congruent	0.47607	no	H	H
913.2958984	n/a	233803.75	responseLargeH	correct	n/a	0.47607	no	n/a	n/a
914.3662109	n/a	234077.75	largeHSmallH	correct	congruent	0.41602	no	H	H
914.7822266	n/a	234184.25	responseLargeH	correct	n/a	0.41602	no	n/a	n/a
915.8598633	n/a	234460.125	largeHSmallT	correct	incongruent	0.41016	no	H	T
916.2700195	n/a	234565.125	responseLargeH	correct	n/a	0.41016	no	n/a	n/a
917.3398438	n/a	234839	largeTSmallT	error	congruent	0.33154	no	T	T
917.6713867	n/a	234923.875	responseLargeH	error	n/a	0.33154	no	n/a	n/a
918.7397461	n/a	235197.375	largeTSmallH	correct	incongruent	0.65186	no	T	H
919.3916016	n/a	235364.25	responseLargeT	correct	n/a	0.65186	no	n/a	n/a
920.4594727	n/a	235637.625	largeHSmallH	correct	congruent	0.37207	no	H	H
920.831543	n/a	235732.875	responseLargeH	correct	n/a	0.37207	no	n/a	n/a
921.8994141	n/a	236006.25	largeHSmallH	correct	congruent	0.38672	no	H	H
922.2861328	n/a	236105.25	responseLargeH	correct	n/a	0.38672	no	n/a	n/a
923.3662109	n/a	236381.75	largeTSmallT	correct	congruent	0.41797	no	T	T
923.7841797	n/a	236488.75	responseLargeT	correct	n/a	0.41797	no	n/a	n/a
924.859375	n/a	236764	largeHSmallH	correct	congruent	0.36035	no	H	H
925.2197266	n/a	236856.25	responseLargeH	correct	n/a	0.36035	no	n/a	n/a
926.2993164	n/a	237132.625	largeTSmallH	correct	incongruent	0.52246	no	T	H
926.8217773	n/a	237266.375	responseLargeT	correct	n/a	0.52246	no	n/a	n/a
927.8857422	n/a	237538.75	largeTSmallH	correct	incongruent	0.53369	no	T	H
928.4194336	n/a	237675.375	responseLargeT	correct	n/a	0.53369	no	n/a	n/a
929.4990234	n/a	237951.75	largeTSmallH	correct	incongruent	0.46973	no	T	H
929.96875	n/a	238072	responseLargeT	correct	n/a	0.46973	no	n/a	n/a
931.0327148	n/a	238344.375	largeHSmallT	correct	incongruent	0.48535	no	H	T
931.5180664	n/a	238468.625	responseLargeH	correct	n/a	0.48535	no	n/a	n/a
932.5791016	n/a	238740.25	largeTSmallT	correct	congruent	0.45703	no	T	T
933.0361328	n/a	238857.25	responseLargeT	correct	n/a	0.45703	no	n/a	n/a
934.1123047	n/a	239132.75	largeHSmallH	correct	congruent	0.48193	no	H	H
934.5942383	n/a	239256.125	responseLargeH	correct	n/a	0.48193	no	n/a	n/a
935.6723633	n/a	239532.125	largeHSmallT	correct	incongruent	0.49414	no	H	T
936.1665039	n/a	239658.625	responseLargeH	correct	n/a	0.49414	no	n/a	n/a
937.2324219	n/a	239931.5	largeHSmallT	correct	incongruent	0.40918	no	H	T
937.6416016	n/a	240036.25	responseLargeH	correct	n/a	0.40918	no	n/a	n/a
938.7124023	n/a	240310.375	largeTSmallH	correct	incongruent	0.46143	no	T	H
939.1738281	n/a	240428.5	responseLargeT	correct	n/a	0.46143	no	n/a	n/a
940.2456055	n/a	240702.875	largeTSmallT	correct	congruent	0.52881	no	T	T
940.7744141	n/a	240838.25	responseLargeT	correct	n/a	0.52881	no	n/a	n/a
941.8457031	n/a	241112.5	largeHSmallT	correct	incongruent	0.43359	no	H	T
942.2792969	n/a	241223.5	responseLargeH	correct	n/a	0.43359	no	n/a	n/a
943.3520508	n/a	241498.125	largeHSmallH	correct	congruent	0.41797	no	H	H
943.7700195	n/a	241605.125	responseLargeH	correct	n/a	0.41797	no	n/a	n/a
944.8452148	n/a	241880.375	largeTSmallH	correct	incongruent	0.4707	no	T	H
945.315918	n/a	242000.875	responseLargeT	correct	n/a	0.4707	no	n/a	n/a
946.3920898	n/a	242276.375	largeTSmallT	correct	congruent	0.45215	no	T	T
946.8442383	n/a	242392.125	responseLargeT	correct	n/a	0.45215	no	n/a	n/a
947.9121094	n/a	242665.5	largeTSmallT	correct	congruent	0.44971	no	T	T
948.3618164	n/a	242780.625	responseLargeT	correct	n/a	0.44971	no	n/a	n/a
949.4321289	n/a	243054.625	largeTSmallH	correct	incongruent	0.5332	no	T	H
949.965332	n/a	243191.125	responseLargeT	correct	n/a	0.5332	no	n/a	n/a
951.0322266	n/a	243464.25	largeHSmallT	correct	incongruent	0.59863	no	H	T
951.6308594	n/a	243617.5	responseLargeH	correct	n/a	0.59863	no	n/a	n/a
952.7119141	n/a	243894.25	largeHSmallT	correct	incongruent	0.58594	no	H	T
953.2978516	n/a	244044.25	responseLargeH	correct	n/a	0.58594	no	n/a	n/a
954.378418	n/a	244320.875	largeHSmallH	correct	congruent	0.39893	no	H	H
954.7773438	n/a	244423	responseLargeH	correct	n/a	0.39893	no	n/a	n/a
955.8452148	n/a	244696.375	largeTSmallH	correct	incongruent	0.62451	no	T	H
956.4697266	n/a	244856.25	responseLargeT	correct	n/a	0.62451	no	n/a	n/a
957.5385742	n/a	245129.875	largeTSmallH	correct	incongruent	0.53467	no	T	H
958.0732422	n/a	245266.75	responseLargeT	correct	n/a	0.53467	no	n/a	n/a
959.1518555	n/a	245542.875	largeTSmallH	correct	incongruent	0.42041	no	T	H
959.5722656	n/a	245650.5	responseLargeT	correct	n/a	0.42041	no	n/a	n/a
960.6450195	n/a	245925.125	largeHSmallH	correct	congruent	0.80957	no	H	H
961.4545898	n/a	246132.375	responseLargeH	correct	n/a	0.80957	no	n/a	n/a
962.5253906	n/a	246406.5	largeHSmallH	correct	congruent	0.40869	no	H	H
962.934082	n/a	246511.125	responseLargeH	correct	n/a	0.40869	no	n/a	n/a
970.6977539	n/a	248498.625	largeTSmallT	correct	congruent	0.94385	no	T	T
971.6416016	n/a	248740.25	responseSmallT	correct	n/a	0.94385	no	n/a	n/a
972.6982422	n/a	249010.75	largeHSmallT	correct	incongruent	0.55273	no	H	T
973.2509766	n/a	249152.25	responseSmallT	correct	n/a	0.55273	no	n/a	n/a
974.324707	n/a	249427.125	largeTSmallH	correct	incongruent	0.50146	no	T	H
974.8261719	n/a	249555.5	responseSmallH	correct	n/a	0.50146	no	n/a	n/a
975.8979492	n/a	249829.875	largeTSmallH	correct	incongruent	0.41113	no	T	H
976.309082	n/a	249935.125	responseSmallH	correct	n/a	0.41113	no	n/a	n/a
977.3916016	n/a	250212.25	largeTSmallH	correct	incongruent	0.43555	no	T	H
977.8271484	n/a	250323.75	responseSmallH	correct	n/a	0.43555	no	n/a	n/a
978.8979492	n/a	250597.875	largeTSmallT	correct	congruent	0.49316	no	T	T
979.3911133	n/a	250724.125	responseSmallT	correct	n/a	0.49316	no	n/a	n/a
980.4580078	n/a	250997.25	largeTSmallH	correct	incongruent	0.4502	no	T	H
980.9082031	n/a	251112.5	responseSmallH	correct	n/a	0.4502	no	n/a	n/a
981.9648438	n/a	251383	largeHSmallH	correct	congruent	0.50537	no	H	H
982.4702148	n/a	251512.375	responseSmallH	correct	n/a	0.50537	no	n/a	n/a
983.5507812	n/a	251789	largeTSmallT	correct	congruent	0.64453	no	T	T
984.1953125	n/a	251954	responseSmallT	correct	n/a	0.64453	no	n/a	n/a
985.2578125	n/a	252226	largeHSmallH	correct	congruent	0.47998	no	H	H
985.737793	n/a	252348.875	responseSmallH	correct	n/a	0.47998	no	n/a	n/a
986.8041992	n/a	252621.875	largeTSmallH	correct	incongruent	0.44189	no	T	H
987.2460938	n/a	252735	responseSmallH	correct	n/a	0.44189	no	n/a	n/a
988.3242188	n/a	253011	largeTSmallT	correct	congruent	0.44189	no	T	T
988.7661133	n/a	253124.125	responseSmallT	correct	n/a	0.44189	no	n/a	n/a
989.8310547	n/a	253396.75	largeHSmallH	correct	congruent	0.44043	no	H	H
990.2714844	n/a	253509.5	responseSmallH	correct	n/a	0.44043	no	n/a	n/a
991.3510742	n/a	253785.875	largeTSmallT	correct	congruent	0.43359	no	T	T
991.784668	n/a	253896.875	responseSmallT	correct	n/a	0.43359	no	n/a	n/a
992.8574219	n/a	254171.5	largeTSmallH	correct	incongruent	0.41211	no	T	H
993.2695312	n/a	254277	responseSmallH	correct	n/a	0.41211	no	n/a	n/a
994.3374023	n/a	254550.375	largeHSmallT	correct	incongruent	0.53369	no	H	T
994.8710938	n/a	254687	responseSmallT	correct	n/a	0.53369	no	n/a	n/a
995.9506836	n/a	254963.375	largeHSmallH	correct	congruent	0.47461	no	H	H
996.425293	n/a	255084.875	responseSmallH	correct	n/a	0.47461	no	n/a	n/a
997.4975586	n/a	255359.375	largeTSmallT	correct	congruent	0.58594	no	T	T
998.0834961	n/a	255509.375	responseSmallT	correct	n/a	0.58594	no	n/a	n/a
999.1508789	n/a	255782.625	largeHSmallT	correct	incongruent	0.52686	no	H	T
999.6777344	n/a	255917.5	responseSmallT	correct	n/a	0.52686	no	n/a	n/a
1000.750488	n/a	256192.125	largeTSmallH	correct	incongruent	0.60205	no	T	H
1001.352539	n/a	256346.25	responseSmallH	correct	n/a	0.60205	no	n/a	n/a
1002.41748	n/a	256618.875	largeTSmallT	correct	congruent	0.45117	no	T	T
1002.868652	n/a	256734.375	responseSmallT	correct	n/a	0.45117	no	n/a	n/a
1003.9375	n/a	257008	largeHSmallH	correct	congruent	0.45996	no	H	H
1004.397461	n/a	257125.75	responseSmallH	correct	n/a	0.45996	no	n/a	n/a
1005.470703	n/a	257400.5	largeHSmallT	correct	incongruent	0.50342	no	H	T
1005.974121	n/a	257529.375	responseSmallT	correct	n/a	0.50342	no	n/a	n/a
1007.043945	n/a	257803.25	largeHSmallT	error	incongruent	0.45947	no	H	T
1007.503418	n/a	257920.875	responseSmallH	error	n/a	0.45947	no	n/a	n/a
1008.577148	n/a	258195.75	largeHSmallH	correct	congruent	0.50244	no	H	H
1009.07959	n/a	258324.375	responseSmallH	correct	n/a	0.50244	no	n/a	n/a
1010.150391	n/a	258598.5	largeTSmallT	correct	congruent	0.43506	no	T	T
1010.585449	n/a	258709.875	responseSmallT	correct	n/a	0.43506	no	n/a	n/a
1011.657227	n/a	258984.25	largeTSmallT	correct	congruent	0.44238	no	T	T
1012.099609	n/a	259097.5	responseSmallT	correct	n/a	0.44238	no	n/a	n/a
1013.177246	n/a	259373.375	largeTSmallT	correct	congruent	0.55713	no	T	T
1013.734375	n/a	259516	responseSmallT	correct	n/a	0.55713	no	n/a	n/a
1014.803711	n/a	259789.75	largeTSmallH	correct	incongruent	0.48682	no	T	H
1015.290527	n/a	259914.375	responseSmallH	correct	n/a	0.48682	no	n/a	n/a
1016.350098	n/a	260185.625	largeTSmallH	correct	incongruent	0.42041	no	T	H
1016.770508	n/a	260293.25	responseSmallH	correct	n/a	0.42041	no	n/a	n/a
1017.84375	n/a	260568	largeTSmallH	correct	incongruent	0.42822	no	T	H
1018.271973	n/a	260677.625	responseSmallH	correct	n/a	0.42822	no	n/a	n/a
1019.350098	n/a	260953.625	largeHSmallH	correct	congruent	0.52539	no	H	H
1019.875488	n/a	261088.125	responseSmallH	correct	n/a	0.52539	no	n/a	n/a
1020.936523	n/a	261359.75	largeTSmallT	correct	congruent	0.45947	no	T	T
1021.395996	n/a	261477.375	responseSmallT	correct	n/a	0.45947	no	n/a	n/a
1022.470215	n/a	261752.375	largeHSmallT	correct	incongruent	0.46582	no	H	T
1022.936035	n/a	261871.625	responseSmallT	correct	n/a	0.46582	no	n/a	n/a
1024.016602	n/a	262148.25	largeHSmallH	correct	congruent	0.47021	no	H	H
1024.486816	n/a	262268.625	responseSmallH	correct	n/a	0.47021	no	n/a	n/a
1025.563477	n/a	262544.25	largeTSmallT	correct	congruent	0.52686	no	T	T
1026.090332	n/a	262679.125	responseSmallT	correct	n/a	0.52686	no	n/a	n/a
1027.163086	n/a	262953.75	largeHSmallH	correct	congruent	0.43506	no	H	H
1027.598145	n/a	263065.125	responseSmallH	correct	n/a	0.43506	no	n/a	n/a
1028.669922	n/a	263339.5	largeTSmallH	correct	incongruent	0.43506	no	T	H
1029.10498	n/a	263450.875	responseSmallH	correct	n/a	0.43506	no	n/a	n/a
1030.176758	n/a	263725.25	largeHSmallT	correct	incongruent	0.5127	no	H	T
1030.689453	n/a	263856.5	responseSmallT	correct	n/a	0.5127	no	n/a	n/a
1031.763184	n/a	264131.375	largeTSmallT	correct	congruent	0.48242	no	T	T
1032.245605	n/a	264254.875	responseSmallT	correct	n/a	0.48242	no	n/a	n/a
1033.30957	n/a	264527.25	largeTSmallH	correct	incongruent	0.50244	no	T	H
1033.812012	n/a	264655.875	responseSmallH	correct	n/a	0.50244	no	n/a	n/a
1034.882812	n/a	264930	largeHSmallH	correct	congruent	0.40088	no	H	H
1035.283691	n/a	265032.625	responseSmallH	correct	n/a	0.40088	no	n/a	n/a
1036.349609	n/a	265305.5	largeHSmallH	correct	congruent	0.43506	no	H	H
1036.784668	n/a	265416.875	responseSmallH	correct	n/a	0.43506	no	n/a	n/a
1037.856445	n/a	265691.25	largeHSmallT	correct	incongruent	0.53271	no	H	T
1038.38916	n/a	265827.625	responseSmallT	correct	n/a	0.53271	no	n/a	n/a
1039.456543	n/a	266100.875	largeTSmallH	correct	incongruent	0.34473	no	T	H
1039.80127	n/a	266189.125	responseSmallH	correct	n/a	0.34473	no	n/a	n/a
1040.882812	n/a	266466	largeHSmallT	correct	incongruent	0.52295	no	H	T
1041.405762	n/a	266599.875	responseSmallT	correct	n/a	0.52295	no	n/a	n/a
1042.48291	n/a	266875.625	largeHSmallT	correct	incongruent	0.44092	no	H	T
1042.923828	n/a	266988.5	responseSmallT	correct	n/a	0.44092	no	n/a	n/a
1043.989746	n/a	267261.375	largeTSmallT	correct	congruent	0.42041	no	T	T
1044.410156	n/a	267369	responseSmallT	correct	n/a	0.42041	no	n/a	n/a
1045.48291	n/a	267643.625	largeTSmallH	error	incongruent	0.40967	no	T	H
1045.892578	n/a	267748.5	responseSmallT	error	n/a	0.40967	no	n/a	n/a
1046.962891	n/a	268022.5	largeTSmallH	correct	incongruent	1.6958	yes	T	H
1048.658691	n/a	268456.625	responseSmallH	correct	n/a	1.6958	yes	n/a	n/a
1049.722656	n/a	268729	largeTSmallT	correct	congruent	0.55029	no	T	T
1050.272949	n/a	268869.875	responseSmallT	correct	n/a	0.55029	no	n/a	n/a
1051.349121	n/a	269145.375	largeTSmallH	correct	incongruent	0.42334	no	T	H
1051.772461	n/a	269253.75	responseSmallH	correct	n/a	0.42334	no	n/a	n/a
1052.842773	n/a	269527.75	largeTSmallH	correct	incongruent	0.42285	no	T	H
1053.265625	n/a	269636	responseSmallH	correct	n/a	0.42285	no	n/a	n/a
1054.335938	n/a	269910	largeTSmallH	correct	incongruent	0.54492	no	T	H
1054.880859	n/a	270049.5	responseSmallH	correct	n/a	0.54492	no	n/a	n/a
1055.949219	n/a	270323	largeHSmallH	correct	congruent	0.55908	no	H	H
1056.508301	n/a	270466.125	responseSmallH	correct	n/a	0.55908	no	n/a	n/a
1057.589355	n/a	270742.875	largeHSmallT	correct	incongruent	0.49854	no	H	T
1058.087891	n/a	270870.5	responseSmallT	correct	n/a	0.49854	no	n/a	n/a
1059.162598	n/a	271145.625	largeHSmallT	correct	incongruent	0.50342	no	H	T
1059.666016	n/a	271274.5	responseSmallT	correct	n/a	0.50342	no	n/a	n/a
1060.73584	n/a	271548.375	largeHSmallT	correct	incongruent	0.49609	no	H	T
1061.231934	n/a	271675.375	responseSmallT	correct	n/a	0.49609	no	n/a	n/a
1062.29541	n/a	271947.625	largeHSmallH	correct	congruent	0.54883	no	H	H
1062.844238	n/a	272088.125	responseSmallH	correct	n/a	0.54883	no	n/a	n/a
1063.922363	n/a	272364.125	largeHSmallT	correct	incongruent	0.40234	no	H	T
1064.324707	n/a	272467.125	responseSmallT	correct	n/a	0.40234	no	n/a	n/a
1065.402344	n/a	272743	largeTSmallT	correct	congruent	0.5127	no	T	T
1065.915039	n/a	272874.25	responseSmallT	correct	n/a	0.5127	no	n/a	n/a
1066.98877	n/a	273149.125	largeTSmallT	correct	congruent	0.40967	no	T	T
1067.398438	n/a	273254	responseSmallT	correct	n/a	0.40967	no	n/a	n/a
1068.46875	n/a	273528	largeHSmallH	correct	congruent	0.47754	no	H	H
1068.946289	n/a	273650.25	responseSmallH	correct	n/a	0.47754	no	n/a	n/a
1070.015625	n/a	273924	largeHSmallH	correct	congruent	0.45361	no	H	H
1070.469238	n/a	274040.125	responseSmallH	correct	n/a	0.45361	no	n/a	n/a
1071.548828	n/a	274316.5	largeTSmallT	correct	congruent	0.41357	no	T	T
1071.962402	n/a	274422.375	responseSmallT	correct	n/a	0.41357	no	n/a	n/a
1073.028809	n/a	274695.375	largeHSmallT	correct	incongruent	0.46484	no	H	T
1073.493652	n/a	274814.375	responseSmallT	correct	n/a	0.46484	no	n/a	n/a
1074.562012	n/a	275087.875	largeHSmallH	correct	congruent	0.43018	no	H	H
1074.992188	n/a	275198	responseSmallH	correct	n/a	0.43018	no	n/a	n/a
1076.055176	n/a	275470.125	largeHSmallT	correct	incongruent	0.45166	no	H	T
1076.506836	n/a	275585.75	responseSmallT	correct	n/a	0.45166	no	n/a	n/a
1077.588379	n/a	275862.625	largeHSmallH	correct	congruent	0.46875	no	H	H
1078.057129	n/a	275982.625	responseSmallH	correct	n/a	0.46875	no	n/a	n/a
1079.12207	n/a	276255.25	largeTSmallT	correct	congruent	0.46973	no	T	T
1079.591797	n/a	276375.5	responseSmallT	correct	n/a	0.46973	no	n/a	n/a
1080.655273	n/a	276647.75	largeTSmallH	correct	incongruent	0.45605	no	T	H
1081.111328	n/a	276764.5	responseSmallH	correct	n/a	0.45605	no	n/a	n/a
1082.188477	n/a	277040.25	largeHSmallT	correct	incongruent	0.43555	no	H	T
1082.624023	n/a	277151.75	responseSmallT	correct	n/a	0.43555	no	n/a	n/a
1083.694824	n/a	277425.875	largeHSmallT	correct	incongruent	0.45996	no	H	T
1084.154785	n/a	277543.625	responseSmallT	correct	n/a	0.45996	no	n/a	n/a
1085.228516	n/a	277818.5	largeTSmallH	correct	incongruent	0.46533	no	T	H
1085.693848	n/a	277937.625	responseSmallH	correct	n/a	0.46533	no	n/a	n/a
1086.761719	n/a	278211	largeTSmallH	correct	incongruent	0.43994	no	T	H
1087.20166	n/a	278323.625	responseSmallH	correct	n/a	0.43994	no	n/a	n/a
1088.268066	n/a	278596.625	largeTSmallH	correct	incongruent	0.4126	no	T	H
1088.680664	n/a	278702.25	responseSmallH	correct	n/a	0.4126	no	n/a	n/a
1089.748047	n/a	278975.5	largeHSmallH	correct	congruent	0.45557	no	H	H
1090.203613	n/a	279092.125	responseSmallH	correct	n/a	0.45557	no	n/a	n/a
1091.281738	n/a	279368.125	largeTSmallT	correct	congruent	0.44824	no	T	T
1091.72998	n/a	279482.875	responseSmallT	correct	n/a	0.44824	no	n/a	n/a
1092.801758	n/a	279757.25	largeHSmallT	correct	incongruent	0.58594	no	H	T
1093.387695	n/a	279907.25	responseSmallT	correct	n/a	0.58594	no	n/a	n/a
1094.46875	n/a	280184	largeTSmallH	correct	incongruent	0.41113	no	T	H
1094.879883	n/a	280289.25	responseSmallH	correct	n/a	0.41113	no	n/a	n/a
1095.948242	n/a	280562.75	largeTSmallT	correct	congruent	0.48486	no	T	T
1096.433105	n/a	280686.875	responseSmallT	correct	n/a	0.48486	no	n/a	n/a
1097.508301	n/a	280962.125	largeHSmallT	correct	incongruent	0.49707	no	H	T
1098.005371	n/a	281089.375	responseSmallT	correct	n/a	0.49707	no	n/a	n/a
1099.081543	n/a	281364.875	largeHSmallT	correct	incongruent	0.4834	no	H	T
1099.564941	n/a	281488.625	responseSmallT	correct	n/a	0.4834	no	n/a	n/a
1100.641113	n/a	281764.125	largeHSmallH	correct	congruent	0.45996	no	H	H
1101.101074	n/a	281881.875	responseSmallH	correct	n/a	0.45996	no	n/a	n/a
1102.174805	n/a	282156.75	largeHSmallT	correct	incongruent	0.44678	no	H	T
1102.621582	n/a	282271.125	responseSmallT	correct	n/a	0.44678	no	n/a	n/a
1103.694336	n/a	282545.75	largeTSmallH	correct	incongruent	0.52441	no	T	H
1104.21875	n/a	282680	responseSmallH	correct	n/a	0.52441	no	n/a	n/a
1105.294434	n/a	282955.375	largeTSmallT	correct	congruent	0.96777	no	T	T
1106.262207	n/a	283203.125	responseSmallT	correct	n/a	0.96777	no	n/a	n/a
1107.334473	n/a	283477.625	largeTSmallH	correct	incongruent	0.5752	no	T	H
1107.909668	n/a	283624.875	responseSmallH	correct	n/a	0.5752	no	n/a	n/a
1108.987793	n/a	283900.875	largeHSmallT	correct	incongruent	0.56055	no	H	T
1109.54834	n/a	284044.375	responseSmallT	correct	n/a	0.56055	no	n/a	n/a
1110.62793	n/a	284320.75	largeTSmallH	correct	incongruent	0.52539	no	T	H
1111.15332	n/a	284455.25	responseSmallH	correct	n/a	0.52539	no	n/a	n/a
1112.227539	n/a	284730.25	largeHSmallT	correct	incongruent	0.43311	no	H	T
1112.660645	n/a	284841.125	responseSmallT	correct	n/a	0.43311	no	n/a	n/a
1113.734375	n/a	285116	largeTSmallH	correct	incongruent	0.46875	no	T	H
1114.203125	n/a	285236	responseSmallH	correct	n/a	0.46875	no	n/a	n/a
1115.268066	n/a	285508.625	largeTSmallT	correct	congruent	0.41699	no	T	T
1115.685059	n/a	285615.375	responseSmallT	correct	n/a	0.41699	no	n/a	n/a
1116.760742	n/a	285890.75	largeTSmallH	correct	incongruent	0.51025	no	T	H
1117.270996	n/a	286021.375	responseSmallH	correct	n/a	0.51025	no	n/a	n/a
1118.347656	n/a	286297	largeHSmallH	correct	congruent	0.64502	no	H	H
