onset	duration	sample	value	response_type	congruence	response_time	response_out_of_range	largeletter	smallletter
14.63671875	n/a	3747	largeHSmallH	correct	congruent	0.58984	no	H	H
15.2265625	n/a	3898	responseLargeH	correct	n/a	0.58984	no	n/a	n/a
16.28515625	n/a	4169	largeTSmallT	correct	congruent	0.96875	no	T	T
17.25390625	n/a	4417	responseLargeT	correct	n/a	0.96875	no	n/a	n/a
18.3125	n/a	4688	largeTSmallH	correct	incongruent	0.59375	no	T	H
18.90625	n/a	4840	responseLargeT	correct	n/a	0.59375	no	n/a	n/a
19.96484375	n/a	5111	largeHSmallT	correct	incongruent	0.53516	no	H	T
20.5	n/a	5248	responseLargeH	correct	n/a	0.53516	no	n/a	n/a
21.578125	n/a	5524	largeHSmallH	correct	congruent	0.52344	no	H	H
22.1015625	n/a	5658	responseLargeH	correct	n/a	0.52344	no	n/a	n/a
23.1640625	n/a	5930	largeHSmallT	correct	incongruent	0.41016	no	H	T
23.57421875	n/a	6035	responseLargeH	correct	n/a	0.41016	no	n/a	n/a
24.6328125	n/a	6306	largeTSmallH	correct	incongruent	0.50391	no	T	H
25.13671875	n/a	6435	responseLargeT	correct	n/a	0.50391	no	n/a	n/a
26.20703125	n/a	6709	largeHSmallT	correct	incongruent	0.48828	no	H	T
26.6953125	n/a	6834	responseLargeH	correct	n/a	0.48828	no	n/a	n/a
27.765625	n/a	7108	largeTSmallT	correct	congruent	0.5625	no	T	T
28.328125	n/a	7252	responseLargeT	correct	n/a	0.5625	no	n/a	n/a
29.39453125	n/a	7525	largeTSmallH	correct	incongruent	0.4375	no	T	H
29.83203125	n/a	7637	responseLargeT	correct	n/a	0.4375	no	n/a	n/a
30.8984375	n/a	7910	largeHSmallH	correct	congruent	0.47266	no	H	H
31.37109375	n/a	8031	responseLargeH	correct	n/a	0.47266	no	n/a	n/a
32.43359375	n/a	8303	largeHSmallT	correct	incongruent	0.38672	no	H	T
32.8203125	n/a	8402	responseLargeH	correct	n/a	0.38672	no	n/a	n/a
33.88671875	n/a	8675	largeHSmallH	correct	congruent	0.47266	no	H	H
34.359375	n/a	8796	responseLargeH	correct	n/a	0.47266	no	n/a	n/a
35.43359375	n/a	9071	largeTSmallH	correct	incongruent	0.54297	no	T	H
35.9765625	n/a	9210	responseLargeT	correct	n/a	0.54297	no	n/a	n/a
37.046875	n/a	9484	largeTSmallT	correct	congruent	0.46484	no	T	T
37.51171875	n/a	9603	responseLargeT	correct	n/a	0.46484	no	n/a	n/a
38.578125	n/a	9876	largeTSmallH	correct	incongruent	0.49219	no	T	H
39.0703125	n/a	10002	responseLargeT	correct	n/a	0.49219	no	n/a	n/a
40.13671875	n/a	10275	largeTSmallT	correct	congruent	0.40234	no	T	T
40.5390625	n/a	10378	responseLargeT	correct	n/a	0.40234	no	n/a	n/a
41.60546875	n/a	10651	largeHSmallH	correct	congruent	0.55469	no	H	H
42.16015625	n/a	10793	responseLargeH	correct	n/a	0.55469	no	n/a	n/a
43.23046875	n/a	11067	largeTSmallT	correct	congruent	0.46875	no	T	T
43.69921875	n/a	11187	responseLargeT	correct	n/a	0.46875	no	n/a	n/a
44.77734375	n/a	11463	largeTSmallH	correct	incongruent	0.52344	no	T	H
45.30078125	n/a	11597	responseLargeT	correct	n/a	0.52344	no	n/a	n/a
46.3671875	n/a	11870	largeTSmallH	correct	incongruent	0.44922	no	T	H
46.81640625	n/a	11985	responseLargeT	correct	n/a	0.44922	no	n/a	n/a
47.88671875	n/a	12259	largeTSmallT	correct	congruent	0.49219	no	T	T
48.37890625	n/a	12385	responseLargeT	correct	n/a	0.49219	no	n/a	n/a
49.45703125	n/a	12661	largeTSmallT	correct	congruent	0.44531	no	T	T
49.90234375	n/a	12775	responseLargeT	correct	n/a	0.44531	no	n/a	n/a
50.96484375	n/a	13047	largeHSmallH	correct	congruent	0.48828	no	H	H
51.453125	n/a	13172	responseLargeH	correct	n/a	0.48828	no	n/a	n/a
52.5234375	n/a	13446	largeTSmallH	correct	incongruent	0.57031	no	T	H
53.09375	n/a	13592	responseLargeT	correct	n/a	0.57031	no	n/a	n/a
54.1640625	n/a	13866	largeTSmallT	correct	congruent	0.45703	no	T	T
54.62109375	n/a	13983	responseLargeT	correct	n/a	0.45703	no	n/a	n/a
55.69921875	n/a	14259	largeTSmallT	correct	congruent	0.45703	no	T	T
56.15625	n/a	14376	responseLargeT	correct	n/a	0.45703	no	n/a	n/a
57.21875	n/a	14648	largeTSmallH	correct	incongruent	0.36328	no	T	H
57.58203125	n/a	14741	responseLargeT	correct	n/a	0.36328	no	n/a	n/a
58.64453125	n/a	15013	largeTSmallH	correct	incongruent	0.36719	no	T	H
59.01171875	n/a	15107	responseLargeT	correct	n/a	0.36719	no	n/a	n/a
60.0703125	n/a	15378	largeTSmallH	correct	incongruent	0.32031	no	T	H
60.390625	n/a	15460	responseLargeT	correct	n/a	0.32031	no	n/a	n/a
61.45703125	n/a	15733	largeHSmallT	correct	incongruent	0.46094	no	H	T
61.91796875	n/a	15851	responseLargeH	correct	n/a	0.46094	no	n/a	n/a
62.9765625	n/a	16122	largeHSmallT	correct	incongruent	0.44141	no	H	T
63.41796875	n/a	16235	responseLargeH	correct	n/a	0.44141	no	n/a	n/a
64.47265625	n/a	16505	largeTSmallT	correct	congruent	0.53125	no	T	T
65.00390625	n/a	16641	responseLargeT	correct	n/a	0.53125	no	n/a	n/a
66.0703125	n/a	16914	largeHSmallH	correct	congruent	0.51562	no	H	H
66.5859375	n/a	17046	responseLargeH	correct	n/a	0.51562	no	n/a	n/a
67.65625	n/a	17320	largeTSmallH	correct	incongruent	0.42969	no	T	H
68.0859375	n/a	17430	responseLargeT	correct	n/a	0.42969	no	n/a	n/a
69.15234375	n/a	17703	largeTSmallH	correct	incongruent	0.55078	no	T	H
69.703125	n/a	17844	responseLargeT	correct	n/a	0.55078	no	n/a	n/a
70.765625	n/a	18116	largeHSmallT	error	incongruent	0.37891	no	H	T
71.14453125	n/a	18213	responseLargeT	error	n/a	0.37891	no	n/a	n/a
72.21875	n/a	18488	largeTSmallT	correct	congruent	0.62109	no	T	T
72.83984375	n/a	18647	responseLargeT	correct	n/a	0.62109	no	n/a	n/a
73.91015625	n/a	18921	largeTSmallT	correct	congruent	0.50781	no	T	T
74.41796875	n/a	19051	responseLargeT	correct	n/a	0.50781	no	n/a	n/a
75.484375	n/a	19324	largeTSmallH	correct	incongruent	0.46875	no	T	H
75.953125	n/a	19444	responseLargeT	correct	n/a	0.46875	no	n/a	n/a
77.01953125	n/a	19717	largeHSmallT	error	incongruent	0.4375	no	H	T
77.45703125	n/a	19829	responseLargeT	error	n/a	0.4375	no	n/a	n/a
78.51171875	n/a	20099	largeTSmallH	correct	incongruent	0.69922	no	T	H
79.2109375	n/a	20278	responseLargeT	correct	n/a	0.69922	no	n/a	n/a
80.28515625	n/a	20553	largeHSmallH	correct	congruent	0.47656	no	H	H
80.76171875	n/a	20675	responseLargeH	correct	n/a	0.47656	no	n/a	n/a
81.81640625	n/a	20945	largeTSmallH	correct	incongruent	0.64453	no	T	H
82.4609375	n/a	21110	responseLargeT	correct	n/a	0.64453	no	n/a	n/a
83.5234375	n/a	21382	largeTSmallT	correct	congruent	0.47266	no	T	T
83.99609375	n/a	21503	responseLargeT	correct	n/a	0.47266	no	n/a	n/a
85.0703125	n/a	21778	largeHSmallT	correct	incongruent	0.51953	no	H	T
85.58984375	n/a	21911	responseLargeH	correct	n/a	0.51953	no	n/a	n/a
86.65625	n/a	22184	largeTSmallT	correct	congruent	0.51172	no	T	T
87.16796875	n/a	22315	responseLargeT	correct	n/a	0.51172	no	n/a	n/a
88.23046875	n/a	22587	largeTSmallT	correct	congruent	0.52344	no	T	T
88.75390625	n/a	22721	responseLargeT	correct	n/a	0.52344	no	n/a	n/a
89.83203125	n/a	22997	largeTSmallH	correct	incongruent	0.74219	no	T	H
90.57421875	n/a	23187	responseLargeT	correct	n/a	0.74219	no	n/a	n/a
91.6328125	n/a	23458	largeTSmallH	correct	incongruent	0.74219	no	T	H
92.375	n/a	23648	responseLargeT	correct	n/a	0.74219	no	n/a	n/a
93.4453125	n/a	23922	largeTSmallH	correct	incongruent	0.51953	no	T	H
93.96484375	n/a	24055	responseLargeT	correct	n/a	0.51953	no	n/a	n/a
95.04296875	n/a	24331	largeHSmallT	correct	incongruent	0.48828	no	H	T
95.53125	n/a	24456	responseLargeH	correct	n/a	0.48828	no	n/a	n/a
96.58984375	n/a	24727	largeHSmallH	correct	congruent	0.58203	no	H	H
97.171875	n/a	24876	responseLargeH	correct	n/a	0.58203	no	n/a	n/a
98.23046875	n/a	25147	largeHSmallH	correct	congruent	0.44922	no	H	H
98.6796875	n/a	25262	responseLargeH	correct	n/a	0.44922	no	n/a	n/a
99.75	n/a	25536	largeHSmallH	error	congruent	0.57422	no	H	H
100.3242188	n/a	25683	responseLargeT	error	n/a	0.57422	no	n/a	n/a
101.390625	n/a	25956	largeHSmallH	correct	congruent	0.54688	no	H	H
101.9375	n/a	26096	responseLargeH	correct	n/a	0.54688	no	n/a	n/a
103.0039062	n/a	26369	largeHSmallH	correct	congruent	0.47656	no	H	H
103.4804688	n/a	26491	responseLargeH	correct	n/a	0.47656	no	n/a	n/a
104.5507812	n/a	26765	largeTSmallT	correct	congruent	0.68359	no	T	T
105.234375	n/a	26940	responseLargeT	correct	n/a	0.68359	no	n/a	n/a
106.296875	n/a	27212	largeHSmallT	correct	incongruent	0.42969	no	H	T
106.7265625	n/a	27322	responseLargeH	correct	n/a	0.42969	no	n/a	n/a
107.8046875	n/a	27598	largeHSmallT	correct	incongruent	0.61719	no	H	T
108.421875	n/a	27756	responseLargeH	correct	n/a	0.61719	no	n/a	n/a
109.484375	n/a	28028	largeHSmallT	correct	incongruent	0.38672	no	H	T
109.8710938	n/a	28127	responseLargeH	correct	n/a	0.38672	no	n/a	n/a
110.9375	n/a	28400	largeTSmallH	correct	incongruent	0.63672	no	T	H
111.5742188	n/a	28563	responseLargeT	correct	n/a	0.63672	no	n/a	n/a
112.6445312	n/a	28837	largeTSmallH	correct	incongruent	0.52734	no	T	H
113.171875	n/a	28972	responseLargeT	correct	n/a	0.52734	no	n/a	n/a
114.2421875	n/a	29246	largeHSmallH	correct	congruent	0.51953	no	H	H
114.7617188	n/a	29379	responseLargeH	correct	n/a	0.51953	no	n/a	n/a
115.8320312	n/a	29653	largeHSmallH	correct	congruent	0.44922	no	H	H
116.28125	n/a	29768	responseLargeH	correct	n/a	0.44922	no	n/a	n/a
117.3515625	n/a	30042	largeHSmallT	correct	incongruent	0.48438	no	H	T
117.8359375	n/a	30166	responseLargeH	correct	n/a	0.48438	no	n/a	n/a
118.9101562	n/a	30441	largeTSmallH	correct	incongruent	0.44922	no	T	H
119.359375	n/a	30556	responseLargeT	correct	n/a	0.44922	no	n/a	n/a
120.4296875	n/a	30830	largeHSmallH	correct	congruent	0.42188	no	H	H
120.8515625	n/a	30938	responseLargeH	correct	n/a	0.42188	no	n/a	n/a
121.9101562	n/a	31209	largeTSmallT	correct	congruent	0.51172	no	T	T
122.421875	n/a	31340	responseLargeT	correct	n/a	0.51172	no	n/a	n/a
123.484375	n/a	31612	largeTSmallT	correct	congruent	0.57422	no	T	T
124.0585938	n/a	31759	responseLargeT	correct	n/a	0.57422	no	n/a	n/a
125.125	n/a	32032	largeTSmallH	correct	incongruent	0.57812	no	T	H
125.703125	n/a	32180	responseLargeT	correct	n/a	0.57812	no	n/a	n/a
126.7617188	n/a	32451	largeHSmallH	correct	congruent	0.63281	no	H	H
127.3945312	n/a	32613	responseLargeH	correct	n/a	0.63281	no	n/a	n/a
128.46875	n/a	32888	largeHSmallT	correct	incongruent	0.52734	no	H	T
128.9960938	n/a	33023	responseLargeH	correct	n/a	0.52734	no	n/a	n/a
130.0546875	n/a	33294	largeHSmallH	correct	congruent	0.42578	no	H	H
130.4804688	n/a	33403	responseLargeH	correct	n/a	0.42578	no	n/a	n/a
131.5351562	n/a	33673	largeHSmallH	correct	congruent	0.45312	no	H	H
131.9882812	n/a	33789	responseLargeH	correct	n/a	0.45312	no	n/a	n/a
133.0585938	n/a	34063	largeTSmallH	correct	incongruent	0.61719	no	T	H
133.6757812	n/a	34221	responseLargeT	correct	n/a	0.61719	no	n/a	n/a
134.7382812	n/a	34493	largeTSmallT	correct	congruent	0.4375	no	T	T
135.1757812	n/a	34605	responseLargeT	correct	n/a	0.4375	no	n/a	n/a
136.2421875	n/a	34878	largeHSmallH	correct	congruent	0.5625	no	H	H
136.8046875	n/a	35022	responseLargeH	correct	n/a	0.5625	no	n/a	n/a
137.8710938	n/a	35295	largeHSmallH	correct	congruent	0.5	no	H	H
138.3710938	n/a	35423	responseLargeH	correct	n/a	0.5	no	n/a	n/a
139.4296875	n/a	35694	largeHSmallT	correct	incongruent	0.39844	no	H	T
139.828125	n/a	35796	responseLargeH	correct	n/a	0.39844	no	n/a	n/a
140.8945312	n/a	36069	largeHSmallH	correct	congruent	0.37109	no	H	H
141.265625	n/a	36164	responseLargeH	correct	n/a	0.37109	no	n/a	n/a
142.3359375	n/a	36438	largeHSmallT	correct	incongruent	0.41016	no	H	T
142.7460938	n/a	36543	responseLargeH	correct	n/a	0.41016	no	n/a	n/a
143.8164062	n/a	36817	largeTSmallT	correct	congruent	0.71094	no	T	T
144.5273438	n/a	36999	responseLargeT	correct	n/a	0.71094	no	n/a	n/a
145.5898438	n/a	37271	largeHSmallT	correct	incongruent	0.44141	no	H	T
146.03125	n/a	37384	responseLargeH	correct	n/a	0.44141	no	n/a	n/a
147.0976562	n/a	37657	largeTSmallH	correct	incongruent	0.68359	no	T	H
147.78125	n/a	37832	responseLargeT	correct	n/a	0.68359	no	n/a	n/a
148.8554688	n/a	38107	largeHSmallH	correct	congruent	0.52344	no	H	H
149.3789062	n/a	38241	responseLargeH	correct	n/a	0.52344	no	n/a	n/a
150.4414062	n/a	38513	largeTSmallH	correct	incongruent	0.57812	no	T	H
151.0195312	n/a	38661	responseLargeT	correct	n/a	0.57812	no	n/a	n/a
152.0820312	n/a	38933	largeTSmallH	correct	incongruent	0.69531	no	T	H
152.7773438	n/a	39111	responseLargeT	correct	n/a	0.69531	no	n/a	n/a
153.8554688	n/a	39387	largeTSmallH	correct	incongruent	0.66016	no	T	H
154.515625	n/a	39556	responseLargeT	correct	n/a	0.66016	no	n/a	n/a
155.5742188	n/a	39827	largeTSmallT	correct	congruent	0.48438	no	T	T
156.0585938	n/a	39951	responseLargeT	correct	n/a	0.48438	no	n/a	n/a
157.1210938	n/a	40223	largeHSmallH	correct	congruent	0.42969	no	H	H
157.5507812	n/a	40333	responseLargeH	correct	n/a	0.42969	no	n/a	n/a
158.6171875	n/a	40606	largeTSmallH	correct	incongruent	0.55859	no	T	H
159.1757812	n/a	40749	responseLargeT	correct	n/a	0.55859	no	n/a	n/a
160.2421875	n/a	41022	largeTSmallT	correct	congruent	0.47656	no	T	T
160.71875	n/a	41144	responseLargeT	correct	n/a	0.47656	no	n/a	n/a
161.7890625	n/a	41418	largeHSmallT	correct	incongruent	0.51562	no	H	T
162.3046875	n/a	41550	responseLargeH	correct	n/a	0.51562	no	n/a	n/a
163.3632812	n/a	41821	largeHSmallH	correct	congruent	0.57422	no	H	H
163.9375	n/a	41968	responseLargeH	correct	n/a	0.57422	no	n/a	n/a
165.0039062	n/a	42241	largeHSmallH	correct	congruent	0.52344	no	H	H
165.5273438	n/a	42375	responseLargeH	correct	n/a	0.52344	no	n/a	n/a
166.5898438	n/a	42647	largeHSmallT	correct	incongruent	0.40234	no	H	T
166.9921875	n/a	42750	responseLargeH	correct	n/a	0.40234	no	n/a	n/a
168.0546875	n/a	43022	largeTSmallH	correct	incongruent	0.66797	no	T	H
168.7226562	n/a	43193	responseLargeT	correct	n/a	0.66797	no	n/a	n/a
169.7890625	n/a	43466	largeTSmallH	correct	incongruent	0.51172	no	T	H
170.3007812	n/a	43597	responseLargeT	correct	n/a	0.51172	no	n/a	n/a
171.3632812	n/a	43869	largeTSmallH	correct	incongruent	0.40625	no	T	H
171.7695312	n/a	43973	responseLargeT	correct	n/a	0.40625	no	n/a	n/a
172.828125	n/a	44244	largeHSmallT	correct	incongruent	0.52344	no	H	T
173.3515625	n/a	44378	responseLargeH	correct	n/a	0.52344	no	n/a	n/a
174.4296875	n/a	44654	largeTSmallT	correct	congruent	0.49219	no	T	T
174.921875	n/a	44780	responseLargeT	correct	n/a	0.49219	no	n/a	n/a
175.9882812	n/a	45053	largeHSmallT	correct	incongruent	0.58984	no	H	T
176.578125	n/a	45204	responseLargeH	correct	n/a	0.58984	no	n/a	n/a
177.640625	n/a	45476	largeHSmallH	correct	congruent	0.41016	no	H	H
178.0507812	n/a	45581	responseLargeH	correct	n/a	0.41016	no	n/a	n/a
179.1210938	n/a	45855	largeTSmallH	correct	incongruent	0.60547	no	T	H
179.7265625	n/a	46010	responseLargeT	correct	n/a	0.60547	no	n/a	n/a
180.7890625	n/a	46282	largeHSmallH	correct	congruent	0.45312	no	H	H
181.2421875	n/a	46398	responseLargeH	correct	n/a	0.45312	no	n/a	n/a
182.3085938	n/a	46671	largeHSmallT	correct	incongruent	0.55078	no	H	T
182.859375	n/a	46812	responseLargeH	correct	n/a	0.55078	no	n/a	n/a
183.921875	n/a	47084	largeHSmallT	correct	incongruent	0.47266	no	H	T
184.3945312	n/a	47205	responseLargeH	correct	n/a	0.47266	no	n/a	n/a
185.46875	n/a	47480	largeHSmallH	correct	congruent	0.51172	no	H	H
185.9804688	n/a	47611	responseLargeH	correct	n/a	0.51172	no	n/a	n/a
187.0429688	n/a	47883	largeHSmallH	correct	congruent	0.49219	no	H	H
187.5351562	n/a	48009	responseLargeH	correct	n/a	0.49219	no	n/a	n/a
188.6015625	n/a	48282	largeTSmallT	correct	congruent	0.72656	no	T	T
189.328125	n/a	48468	responseLargeT	correct	n/a	0.72656	no	n/a	n/a
190.4023438	n/a	48743	largeTSmallT	correct	congruent	0.46484	no	T	T
190.8671875	n/a	48862	responseLargeT	correct	n/a	0.46484	no	n/a	n/a
191.9335938	n/a	49135	largeTSmallT	correct	congruent	0.36328	no	T	T
192.296875	n/a	49228	responseLargeT	correct	n/a	0.36328	no	n/a	n/a
193.3632812	n/a	49501	largeHSmallT	correct	incongruent	0.67969	no	H	T
194.0429688	n/a	49675	responseLargeH	correct	n/a	0.67969	no	n/a	n/a
195.109375	n/a	49948	largeHSmallH	correct	congruent	0.53516	no	H	H
195.6445312	n/a	50085	responseLargeH	correct	n/a	0.53516	no	n/a	n/a
196.7226562	n/a	50361	largeTSmallT	correct	congruent	0.67969	no	T	T
197.4023438	n/a	50535	responseLargeT	correct	n/a	0.67969	no	n/a	n/a
198.46875	n/a	50808	largeTSmallH	correct	incongruent	0.60938	no	T	H
199.078125	n/a	50964	responseLargeT	correct	n/a	0.60938	no	n/a	n/a
200.1484375	n/a	51238	largeHSmallT	correct	incongruent	0.71484	no	H	T
200.8632812	n/a	51421	responseLargeH	correct	n/a	0.71484	no	n/a	n/a
201.9335938	n/a	51695	largeTSmallH	correct	incongruent	0.61719	no	T	H
202.5507812	n/a	51853	responseLargeT	correct	n/a	0.61719	no	n/a	n/a
203.6132812	n/a	52125	largeHSmallH	correct	congruent	0.52344	no	H	H
204.1367188	n/a	52259	responseLargeH	correct	n/a	0.52344	no	n/a	n/a
205.203125	n/a	52532	largeHSmallT	correct	incongruent	0.42578	no	H	T
205.6289062	n/a	52641	responseLargeH	correct	n/a	0.42578	no	n/a	n/a
206.7070312	n/a	52917	largeHSmallT	correct	incongruent	0.51172	no	H	T
207.21875	n/a	53048	responseLargeH	correct	n/a	0.51172	no	n/a	n/a
208.296875	n/a	53324	largeHSmallH	correct	congruent	0.46094	no	H	H
208.7578125	n/a	53442	responseLargeH	correct	n/a	0.46094	no	n/a	n/a
209.8164062	n/a	53713	largeTSmallT	correct	congruent	0.56641	no	T	T
210.3828125	n/a	53858	responseLargeT	correct	n/a	0.56641	no	n/a	n/a
211.4414062	n/a	54129	largeHSmallT	correct	incongruent	0.53906	no	H	T
211.9804688	n/a	54267	responseLargeH	correct	n/a	0.53906	no	n/a	n/a
213.0546875	n/a	54542	largeTSmallH	correct	incongruent	0.57031	no	T	H
213.625	n/a	54688	responseLargeT	correct	n/a	0.57031	no	n/a	n/a
214.6953125	n/a	54962	largeTSmallH	correct	incongruent	0.45703	no	T	H
215.1523438	n/a	55079	responseLargeT	correct	n/a	0.45703	no	n/a	n/a
216.2148438	n/a	55351	largeHSmallH	correct	congruent	0.48438	no	H	H
216.6992188	n/a	55475	responseLargeH	correct	n/a	0.48438	no	n/a	n/a
217.7617188	n/a	55747	largeTSmallT	correct	congruent	0.61328	no	T	T
218.375	n/a	55904	responseLargeT	correct	n/a	0.61328	no	n/a	n/a
219.453125	n/a	56180	largeTSmallH	correct	incongruent	0.52344	no	T	H
219.9765625	n/a	56314	responseLargeT	correct	n/a	0.52344	no	n/a	n/a
221.0429688	n/a	56587	largeHSmallH	correct	congruent	0.53906	no	H	H
221.5820312	n/a	56725	responseLargeH	correct	n/a	0.53906	no	n/a	n/a
222.640625	n/a	56996	largeHSmallT	correct	incongruent	0.55078	no	H	T
223.1914062	n/a	57137	responseLargeH	correct	n/a	0.55078	no	n/a	n/a
224.2539062	n/a	57409	largeHSmallT	correct	incongruent	0.41797	no	H	T
224.671875	n/a	57516	responseLargeH	correct	n/a	0.41797	no	n/a	n/a
225.734375	n/a	57788	largeHSmallT	correct	incongruent	0.44531	no	H	T
226.1796875	n/a	57902	responseLargeH	correct	n/a	0.44531	no	n/a	n/a
227.2539062	n/a	58177	largeTSmallT	error	congruent	0.50781	no	T	T
227.7617188	n/a	58307	responseLargeH	error	n/a	0.50781	no	n/a	n/a
228.8164062	n/a	58577	largeHSmallH	correct	congruent	0.46875	no	H	H
229.2851562	n/a	58697	responseLargeH	correct	n/a	0.46875	no	n/a	n/a
230.3476562	n/a	58969	largeHSmallH	correct	congruent	0.41016	no	H	H
230.7578125	n/a	59074	responseLargeH	correct	n/a	0.41016	no	n/a	n/a
231.8164062	n/a	59345	largeTSmallT	correct	congruent	0.57812	no	T	T
232.3945312	n/a	59493	responseLargeT	correct	n/a	0.57812	no	n/a	n/a
233.453125	n/a	59764	largeTSmallH	correct	incongruent	0.50781	no	T	H
233.9609375	n/a	59894	responseLargeT	correct	n/a	0.50781	no	n/a	n/a
235.0273438	n/a	60167	largeTSmallT	correct	congruent	0.48047	no	T	T
235.5078125	n/a	60290	responseLargeT	correct	n/a	0.48047	no	n/a	n/a
236.5742188	n/a	60563	largeHSmallH	correct	congruent	0.61719	no	H	H
237.1914062	n/a	60721	responseLargeH	correct	n/a	0.61719	no	n/a	n/a
238.2695312	n/a	60997	largeHSmallH	correct	congruent	0.35938	no	H	H
238.6289062	n/a	61089	responseLargeH	correct	n/a	0.35938	no	n/a	n/a
239.6953125	n/a	61362	largeHSmallT	correct	incongruent	0.41016	no	H	T
240.1054688	n/a	61467	responseLargeH	correct	n/a	0.41016	no	n/a	n/a
241.1757812	n/a	61741	largeTSmallT	correct	congruent	0.81641	no	T	T
241.9921875	n/a	61950	responseLargeT	correct	n/a	0.81641	no	n/a	n/a
243.0664062	n/a	62225	largeTSmallT	correct	congruent	0.48828	no	T	T
243.5546875	n/a	62350	responseLargeT	correct	n/a	0.48828	no	n/a	n/a
244.6289062	n/a	62625	largeHSmallT	correct	incongruent	0.57812	no	H	T
245.2070312	n/a	62773	responseLargeH	correct	n/a	0.57812	no	n/a	n/a
246.28125	n/a	63048	largeHSmallT	correct	incongruent	0.48438	no	H	T
246.765625	n/a	63172	responseLargeH	correct	n/a	0.48438	no	n/a	n/a
247.8398438	n/a	63447	largeTSmallH	correct	incongruent	0.56641	no	T	H
248.40625	n/a	63592	responseLargeT	correct	n/a	0.56641	no	n/a	n/a
249.4804688	n/a	63867	largeHSmallT	correct	incongruent	0.64453	no	H	T
250.125	n/a	64032	responseLargeH	correct	n/a	0.64453	no	n/a	n/a
251.1875	n/a	64304	largeTSmallH	correct	incongruent	0.50781	no	T	H
251.6953125	n/a	64434	responseLargeT	correct	n/a	0.50781	no	n/a	n/a
252.7734375	n/a	64710	largeTSmallH	correct	incongruent	0.60547	no	T	H
253.3789062	n/a	64865	responseLargeT	correct	n/a	0.60547	no	n/a	n/a
254.453125	n/a	65140	largeTSmallT	correct	congruent	0.63281	no	T	T
255.0859375	n/a	65302	responseLargeT	correct	n/a	0.63281	no	n/a	n/a
256.1484375	n/a	65574	largeHSmallH	correct	congruent	0.46875	no	H	H
256.6171875	n/a	65694	responseLargeH	correct	n/a	0.46875	no	n/a	n/a
257.6796875	n/a	65966	largeTSmallT	correct	congruent	0.62109	no	T	T
258.3007812	n/a	66125	responseLargeT	correct	n/a	0.62109	no	n/a	n/a
259.375	n/a	66400	largeHSmallH	correct	congruent	0.47656	no	H	H
259.8515625	n/a	66522	responseLargeH	correct	n/a	0.47656	no	n/a	n/a
260.90625	n/a	66792	largeHSmallH	correct	congruent	0.48828	no	H	H
261.3945312	n/a	66917	responseLargeH	correct	n/a	0.48828	no	n/a	n/a
262.453125	n/a	67188	largeHSmallT	correct	incongruent	0.42188	no	H	T
262.875	n/a	67296	responseLargeH	correct	n/a	0.42188	no	n/a	n/a
263.9335938	n/a	67567	largeTSmallH	correct	incongruent	0.71094	no	T	H
264.6445312	n/a	67749	responseLargeT	correct	n/a	0.71094	no	n/a	n/a
265.71875	n/a	68024	largeHSmallH	correct	congruent	0.45312	no	H	H
266.171875	n/a	68140	responseLargeH	correct	n/a	0.45312	no	n/a	n/a
267.2539062	n/a	68417	largeHSmallH	correct	congruent	0.39844	no	H	H
267.6523438	n/a	68519	responseLargeH	correct	n/a	0.39844	no	n/a	n/a
268.734375	n/a	68796	largeTSmallT	correct	congruent	0.52344	no	T	T
269.2578125	n/a	68930	responseLargeT	correct	n/a	0.52344	no	n/a	n/a
270.3320312	n/a	69205	largeHSmallH	correct	congruent	0.5625	no	H	H
270.8945312	n/a	69349	responseLargeH	correct	n/a	0.5625	no	n/a	n/a
271.9609375	n/a	69622	largeHSmallT	correct	incongruent	0.76562	no	H	T
272.7265625	n/a	69818	responseLargeH	correct	n/a	0.76562	no	n/a	n/a
273.8007812	n/a	70093	largeHSmallT	correct	incongruent	0.58984	no	H	T
274.390625	n/a	70244	responseLargeH	correct	n/a	0.58984	no	n/a	n/a
275.453125	n/a	70516	largeTSmallT	correct	congruent	0.51172	no	T	T
275.9648438	n/a	70647	responseLargeT	correct	n/a	0.51172	no	n/a	n/a
277.0273438	n/a	70919	largeTSmallT	correct	congruent	0.66016	no	T	T
277.6875	n/a	71088	responseLargeT	correct	n/a	0.66016	no	n/a	n/a
278.7617188	n/a	71363	largeTSmallT	correct	congruent	0.52344	no	T	T
279.2851562	n/a	71497	responseLargeT	correct	n/a	0.52344	no	n/a	n/a
280.3476562	n/a	71769	largeHSmallT	correct	incongruent	0.50781	no	H	T
280.8554688	n/a	71899	responseLargeH	correct	n/a	0.50781	no	n/a	n/a
281.921875	n/a	72172	largeTSmallT	correct	congruent	0.46875	no	T	T
282.390625	n/a	72292	responseLargeT	correct	n/a	0.46875	no	n/a	n/a
283.453125	n/a	72564	largeTSmallH	correct	incongruent	0.48438	no	T	H
283.9375	n/a	72688	responseLargeT	correct	n/a	0.48438	no	n/a	n/a
285	n/a	72960	largeHSmallT	error	incongruent	0.37109	no	H	T
285.3710938	n/a	73055	responseLargeT	error	n/a	0.37109	no	n/a	n/a
286.4414062	n/a	73329	largeTSmallT	correct	congruent	0.50391	no	T	T
286.9453125	n/a	73458	responseLargeT	correct	n/a	0.50391	no	n/a	n/a
288.0117188	n/a	73731	largeHSmallT	correct	incongruent	0.48047	no	H	T
288.4921875	n/a	73854	responseLargeH	correct	n/a	0.48047	no	n/a	n/a
289.546875	n/a	74124	largeTSmallT	correct	congruent	1.0273	no	T	T
290.5742188	n/a	74387	responseLargeT	correct	n/a	1.0273	no	n/a	n/a
291.640625	n/a	74660	largeTSmallH	correct	incongruent	0.54297	no	T	H
292.1835938	n/a	74799	responseLargeT	correct	n/a	0.54297	no	n/a	n/a
293.2539062	n/a	75073	largeHSmallH	correct	congruent	0.48047	no	H	H
293.734375	n/a	75196	responseLargeH	correct	n/a	0.48047	no	n/a	n/a
294.8125	n/a	75472	largeHSmallT	correct	incongruent	0.49609	no	H	T
295.3085938	n/a	75599	responseLargeH	correct	n/a	0.49609	no	n/a	n/a
296.375	n/a	75872	largeTSmallH	correct	incongruent	0.45312	no	T	H
296.828125	n/a	75988	responseLargeT	correct	n/a	0.45312	no	n/a	n/a
297.8945312	n/a	76261	largeHSmallT	correct	incongruent	0.56641	no	H	T
298.4609375	n/a	76406	responseLargeH	correct	n/a	0.56641	no	n/a	n/a
299.5195312	n/a	76677	largeTSmallH	correct	incongruent	0.66406	no	T	H
300.1835938	n/a	76847	responseLargeT	correct	n/a	0.66406	no	n/a	n/a
301.2539062	n/a	77121	largeHSmallH	correct	congruent	0.58203	no	H	H
301.8359375	n/a	77270	responseLargeH	correct	n/a	0.58203	no	n/a	n/a
302.90625	n/a	77544	largeHSmallT	correct	incongruent	0.41406	no	H	T
303.3203125	n/a	77650	responseLargeH	correct	n/a	0.41406	no	n/a	n/a
304.3867188	n/a	77923	largeHSmallT	correct	incongruent	0.49609	no	H	T
304.8828125	n/a	78050	responseLargeH	correct	n/a	0.49609	no	n/a	n/a
305.9453125	n/a	78322	largeHSmallH	correct	congruent	0.56641	no	H	H
306.5117188	n/a	78467	responseLargeH	correct	n/a	0.56641	no	n/a	n/a
307.5859375	n/a	78742	largeTSmallH	correct	incongruent	0.67188	no	T	H
308.2578125	n/a	78914	responseLargeT	correct	n/a	0.67188	no	n/a	n/a
309.3203125	n/a	79186	largeHSmallH	correct	congruent	0.47656	no	H	H
309.796875	n/a	79308	responseLargeH	correct	n/a	0.47656	no	n/a	n/a
310.8671875	n/a	79582	largeTSmallT	correct	congruent	0.57422	no	T	T
311.4414062	n/a	79729	responseLargeT	correct	n/a	0.57422	no	n/a	n/a
312.5078125	n/a	80002	largeTSmallH	correct	incongruent	0.48828	no	T	H
312.9960938	n/a	80127	responseLargeT	correct	n/a	0.48828	no	n/a	n/a
314.0664062	n/a	80401	largeTSmallT	correct	congruent	0.44141	no	T	T
314.5078125	n/a	80514	responseLargeT	correct	n/a	0.44141	no	n/a	n/a
315.5742188	n/a	80787	largeHSmallT	correct	incongruent	0.61328	no	H	T
316.1875	n/a	80944	responseLargeH	correct	n/a	0.61328	no	n/a	n/a
317.265625	n/a	81220	largeHSmallH	correct	congruent	0.38281	no	H	H
317.6484375	n/a	81318	responseLargeH	correct	n/a	0.38281	no	n/a	n/a
318.7070312	n/a	81589	largeTSmallT	correct	congruent	0.66797	no	T	T
319.375	n/a	81760	responseLargeT	correct	n/a	0.66797	no	n/a	n/a
320.4375	n/a	82032	largeTSmallH	correct	incongruent	1.0664	no	T	H
321.5039062	n/a	82305	responseLargeT	correct	n/a	1.0664	no	n/a	n/a
322.5585938	n/a	82575	largeTSmallT	correct	congruent	0.51172	no	T	T
323.0703125	n/a	82706	responseLargeT	correct	n/a	0.51172	no	n/a	n/a
324.1328125	n/a	82978	largeHSmallT	correct	incongruent	0.55859	no	H	T
324.6914062	n/a	83121	responseLargeH	correct	n/a	0.55859	no	n/a	n/a
325.7578125	n/a	83394	largeTSmallT	correct	congruent	0.49609	no	T	T
326.2539062	n/a	83521	responseLargeT	correct	n/a	0.49609	no	n/a	n/a
327.3203125	n/a	83794	largeTSmallT	correct	congruent	0.55078	no	T	T
327.8710938	n/a	83935	responseLargeT	correct	n/a	0.55078	no	n/a	n/a
328.9453125	n/a	84210	largeHSmallT	correct	incongruent	0.62109	no	H	T
329.5664062	n/a	84369	responseLargeH	correct	n/a	0.62109	no	n/a	n/a
330.625	n/a	84640	largeHSmallT	correct	incongruent	0.39453	no	H	T
331.0195312	n/a	84741	responseLargeH	correct	n/a	0.39453	no	n/a	n/a
332.09375	n/a	85016	largeTSmallT	correct	congruent	0.70312	no	T	T
332.796875	n/a	85196	responseLargeT	correct	n/a	0.70312	no	n/a	n/a
337.5703125	n/a	86418	largeTSmallT	correct	congruent	1.0312	no	T	T
338.6015625	n/a	86682	responseSmallT	correct	n/a	1.0312	no	n/a	n/a
339.6640625	n/a	86954	largeHSmallH	correct	congruent	0.55859	no	H	H
340.2226562	n/a	87097	responseSmallH	correct	n/a	0.55859	no	n/a	n/a
341.2773438	n/a	87367	largeTSmallT	correct	congruent	0.4375	no	T	T
341.7148438	n/a	87479	responseSmallT	correct	n/a	0.4375	no	n/a	n/a
342.7851562	n/a	87753	largeHSmallT	correct	incongruent	0.57422	no	H	T
343.359375	n/a	87900	responseSmallT	correct	n/a	0.57422	no	n/a	n/a
344.4257812	n/a	88173	largeHSmallH	correct	congruent	0.71484	no	H	H
345.140625	n/a	88356	responseSmallH	correct	n/a	0.71484	no	n/a	n/a
346.2109375	n/a	88630	largeTSmallT	correct	congruent	0.5	no	T	T
346.7109375	n/a	88758	responseSmallT	correct	n/a	0.5	no	n/a	n/a
347.7734375	n/a	89030	largeTSmallT	correct	congruent	0.46094	no	T	T
348.234375	n/a	89148	responseSmallT	correct	n/a	0.46094	no	n/a	n/a
349.3046875	n/a	89422	largeTSmallH	correct	incongruent	0.47656	no	T	H
349.78125	n/a	89544	responseSmallH	correct	n/a	0.47656	no	n/a	n/a
350.8515625	n/a	89818	largeTSmallT	correct	congruent	0.49219	no	T	T
351.34375	n/a	89944	responseSmallT	correct	n/a	0.49219	no	n/a	n/a
352.4101562	n/a	90217	largeTSmallT	correct	congruent	0.41016	no	T	T
352.8203125	n/a	90322	responseSmallT	correct	n/a	0.41016	no	n/a	n/a
353.890625	n/a	90596	largeHSmallT	correct	incongruent	0.49609	no	H	T
354.3867188	n/a	90723	responseSmallT	correct	n/a	0.49609	no	n/a	n/a
355.453125	n/a	90996	largeHSmallH	correct	congruent	0.52344	no	H	H
355.9765625	n/a	91130	responseSmallH	correct	n/a	0.52344	no	n/a	n/a
357.0390625	n/a	91402	largeHSmallH	correct	congruent	0.47656	no	H	H
357.515625	n/a	91524	responseSmallH	correct	n/a	0.47656	no	n/a	n/a
358.5859375	n/a	91798	largeHSmallH	correct	congruent	0.40625	no	H	H
358.9921875	n/a	91902	responseSmallH	correct	n/a	0.40625	no	n/a	n/a
360.0507812	n/a	92173	largeHSmallT	correct	incongruent	0.62109	no	H	T
360.671875	n/a	92332	responseSmallT	correct	n/a	0.62109	no	n/a	n/a
361.7304688	n/a	92603	largeHSmallT	correct	incongruent	0.36328	no	H	T
362.09375	n/a	92696	responseSmallT	correct	n/a	0.36328	no	n/a	n/a
363.15625	n/a	92968	largeHSmallT	correct	incongruent	0.39453	no	H	T
363.5507812	n/a	93069	responseSmallT	correct	n/a	0.39453	no	n/a	n/a
364.625	n/a	93344	largeTSmallH	correct	incongruent	0.5	no	T	H
365.125	n/a	93472	responseSmallH	correct	n/a	0.5	no	n/a	n/a
366.1992188	n/a	93747	largeTSmallH	correct	incongruent	0.41016	no	T	H
366.609375	n/a	93852	responseSmallH	correct	n/a	0.41016	no	n/a	n/a
367.6796875	n/a	94126	largeHSmallT	correct	incongruent	0.59375	no	H	T
368.2734375	n/a	94278	responseSmallT	correct	n/a	0.59375	no	n/a	n/a
369.34375	n/a	94552	largeHSmallH	correct	congruent	0.50781	no	H	H
369.8515625	n/a	94682	responseSmallH	correct	n/a	0.50781	no	n/a	n/a
370.9179688	n/a	94955	largeTSmallT	correct	congruent	0.51953	no	T	T
371.4375	n/a	95088	responseSmallT	correct	n/a	0.51953	no	n/a	n/a
372.5039062	n/a	95361	largeHSmallT	correct	incongruent	0.56641	no	H	T
373.0703125	n/a	95506	responseSmallT	correct	n/a	0.56641	no	n/a	n/a
374.1328125	n/a	95778	largeTSmallT	correct	congruent	0.36719	no	T	T
374.5	n/a	95872	responseSmallT	correct	n/a	0.36719	no	n/a	n/a
375.5703125	n/a	96146	largeTSmallT	correct	congruent	0.33203	no	T	T
375.9023438	n/a	96231	responseSmallT	correct	n/a	0.33203	no	n/a	n/a
376.984375	n/a	96508	largeTSmallH	correct	incongruent	0.66406	no	T	H
377.6484375	n/a	96678	responseSmallH	correct	n/a	0.66406	no	n/a	n/a
378.703125	n/a	96948	largeHSmallH	correct	congruent	0.47266	no	H	H
379.1757812	n/a	97069	responseSmallH	correct	n/a	0.47266	no	n/a	n/a
380.2382812	n/a	97341	largeTSmallT	correct	congruent	0.63281	no	T	T
380.8710938	n/a	97503	responseSmallT	correct	n/a	0.63281	no	n/a	n/a
381.9453125	n/a	97778	largeHSmallH	correct	congruent	0.51172	no	H	H
382.4570312	n/a	97909	responseSmallH	correct	n/a	0.51172	no	n/a	n/a
383.53125	n/a	98184	largeHSmallT	correct	incongruent	0.82812	no	H	T
384.359375	n/a	98396	responseSmallT	correct	n/a	0.82812	no	n/a	n/a
385.4375	n/a	98672	largeTSmallH	correct	incongruent	0.46484	no	T	H
385.9023438	n/a	98791	responseSmallH	correct	n/a	0.46484	no	n/a	n/a
386.9726562	n/a	99065	largeHSmallT	correct	incongruent	0.43359	no	H	T
387.40625	n/a	99176	responseSmallT	correct	n/a	0.43359	no	n/a	n/a
388.4765625	n/a	99450	largeHSmallT	correct	incongruent	0.45312	no	H	T
388.9296875	n/a	99566	responseSmallT	correct	n/a	0.45312	no	n/a	n/a
389.9960938	n/a	99839	largeHSmallT	correct	incongruent	0.55859	no	H	T
390.5546875	n/a	99982	responseSmallT	correct	n/a	0.55859	no	n/a	n/a
391.625	n/a	100256	largeTSmallH	correct	incongruent	0.54688	no	T	H
392.171875	n/a	100396	responseSmallH	correct	n/a	0.54688	no	n/a	n/a
393.25	n/a	100672	largeHSmallH	correct	congruent	0.49609	no	H	H
393.7460938	n/a	100799	responseSmallH	correct	n/a	0.49609	no	n/a	n/a
394.8125	n/a	101072	largeTSmallT	correct	congruent	0.48047	no	T	T
395.2929688	n/a	101195	responseSmallT	correct	n/a	0.48047	no	n/a	n/a
396.3710938	n/a	101471	largeTSmallT	correct	congruent	0.44531	no	T	T
396.8164062	n/a	101585	responseSmallT	correct	n/a	0.44531	no	n/a	n/a
397.8789062	n/a	101857	largeHSmallH	correct	congruent	0.57812	no	H	H
398.4570312	n/a	102005	responseSmallH	correct	n/a	0.57812	no	n/a	n/a
399.515625	n/a	102276	largeTSmallT	correct	congruent	0.64062	no	T	T
400.15625	n/a	102440	responseSmallT	correct	n/a	0.64062	no	n/a	n/a
401.2226562	n/a	102713	largeTSmallH	error	incongruent	0.46484	no	T	H
401.6875	n/a	102832	responseSmallT	error	n/a	0.46484	no	n/a	n/a
402.7421875	n/a	103102	largeHSmallT	correct	incongruent	0.4375	no	H	T
403.1796875	n/a	103214	responseSmallT	correct	n/a	0.4375	no	n/a	n/a
404.25	n/a	103488	largeTSmallH	correct	incongruent	0.64062	no	T	H
404.890625	n/a	103652	responseSmallH	correct	n/a	0.64062	no	n/a	n/a
405.9570312	n/a	103925	largeHSmallH	correct	congruent	0.45703	no	H	H
406.4140625	n/a	104042	responseSmallH	correct	n/a	0.45703	no	n/a	n/a
407.4921875	n/a	104318	largeTSmallT	correct	congruent	0.50391	no	T	T
407.9960938	n/a	104447	responseSmallT	correct	n/a	0.50391	no	n/a	n/a
409.0625	n/a	104720	largeHSmallT	correct	incongruent	0.49609	no	H	T
409.5585938	n/a	104847	responseSmallT	correct	n/a	0.49609	no	n/a	n/a
410.625	n/a	105120	largeTSmallH	correct	incongruent	0.54297	no	T	H
411.1679688	n/a	105259	responseSmallH	correct	n/a	0.54297	no	n/a	n/a
412.2382812	n/a	105533	largeHSmallT	correct	incongruent	0.55078	no	H	T
412.7890625	n/a	105674	responseSmallT	correct	n/a	0.55078	no	n/a	n/a
413.8515625	n/a	105946	largeTSmallT	correct	congruent	0.44141	no	T	T
414.2929688	n/a	106059	responseSmallT	correct	n/a	0.44141	no	n/a	n/a
415.3554688	n/a	106331	largeTSmallT	correct	congruent	0.39062	no	T	T
415.7460938	n/a	106431	responseSmallT	correct	n/a	0.39062	no	n/a	n/a
416.8242188	n/a	106707	largeTSmallH	error	incongruent	0.41016	no	T	H
417.234375	n/a	106812	responseSmallT	error	n/a	0.41016	no	n/a	n/a
418.3046875	n/a	107086	largeTSmallT	correct	congruent	0.77344	no	T	T
419.078125	n/a	107284	responseSmallT	correct	n/a	0.77344	no	n/a	n/a
420.1445312	n/a	107557	largeHSmallH	correct	congruent	0.5	no	H	H
420.6445312	n/a	107685	responseSmallH	correct	n/a	0.5	no	n/a	n/a
421.7148438	n/a	107959	largeTSmallH	correct	incongruent	0.40234	no	T	H
422.1171875	n/a	108062	responseSmallH	correct	n/a	0.40234	no	n/a	n/a
423.1835938	n/a	108335	largeTSmallH	correct	incongruent	0.46875	no	T	H
423.6523438	n/a	108455	responseSmallH	correct	n/a	0.46875	no	n/a	n/a
424.71875	n/a	108728	largeTSmallT	correct	congruent	1.1953	no	T	T
425.9140625	n/a	109034	responseSmallT	correct	n/a	1.1953	no	n/a	n/a
426.96875	n/a	109304	largeTSmallH	correct	incongruent	0.99219	no	T	H
427.9609375	n/a	109558	responseSmallH	correct	n/a	0.99219	no	n/a	n/a
429.0351562	n/a	109833	largeTSmallT	correct	congruent	0.59766	no	T	T
429.6328125	n/a	109986	responseSmallT	correct	n/a	0.59766	no	n/a	n/a
430.703125	n/a	110260	largeHSmallT	correct	incongruent	0.51172	no	H	T
431.2148438	n/a	110391	responseSmallT	correct	n/a	0.51172	no	n/a	n/a
432.2773438	n/a	110663	largeHSmallH	correct	congruent	0.45703	no	H	H
432.734375	n/a	110780	responseSmallH	correct	n/a	0.45703	no	n/a	n/a
433.8085938	n/a	111055	largeTSmallT	error	congruent	0.46094	no	T	T
434.2695312	n/a	111173	responseSmallH	error	n/a	0.46094	no	n/a	n/a
435.328125	n/a	111444	largeHSmallT	correct	incongruent	0.68359	no	H	T
436.0117188	n/a	111619	responseSmallT	correct	n/a	0.68359	no	n/a	n/a
437.0898438	n/a	111895	largeTSmallH	correct	incongruent	0.80859	no	T	H
437.8984375	n/a	112102	responseSmallH	correct	n/a	0.80859	no	n/a	n/a
438.96875	n/a	112376	largeHSmallH	correct	congruent	1.0078	no	H	H
439.9765625	n/a	112634	responseSmallH	correct	n/a	1.0078	no	n/a	n/a
441.0507812	n/a	112909	largeTSmallT	correct	congruent	0.49219	no	T	T
441.5429688	n/a	113035	responseSmallT	correct	n/a	0.49219	no	n/a	n/a
442.609375	n/a	113308	largeTSmallH	correct	incongruent	0.46484	no	T	H
443.0742188	n/a	113427	responseSmallH	correct	n/a	0.46484	no	n/a	n/a
444.1289062	n/a	113697	largeHSmallT	correct	incongruent	0.46484	no	H	T
444.59375	n/a	113816	responseSmallT	correct	n/a	0.46484	no	n/a	n/a
445.6640625	n/a	114090	largeHSmallT	correct	incongruent	0.45703	no	H	T
446.1210938	n/a	114207	responseSmallT	correct	n/a	0.45703	no	n/a	n/a
447.1953125	n/a	114482	largeTSmallH	correct	incongruent	0.48438	no	T	H
447.6796875	n/a	114606	responseSmallH	correct	n/a	0.48438	no	n/a	n/a
448.7578125	n/a	114882	largeHSmallH	correct	congruent	0.75781	no	H	H
449.515625	n/a	115076	responseSmallH	correct	n/a	0.75781	no	n/a	n/a
450.5820312	n/a	115349	largeHSmallH	correct	congruent	0.46875	no	H	H
451.0507812	n/a	115469	responseSmallH	correct	n/a	0.46875	no	n/a	n/a
452.1171875	n/a	115742	largeTSmallT	correct	congruent	1.3203	no	T	T
453.4375	n/a	116080	responseSmallT	correct	n/a	1.3203	no	n/a	n/a
454.515625	n/a	116356	largeTSmallT	correct	congruent	0.52734	no	T	T
455.0429688	n/a	116491	responseSmallT	correct	n/a	0.52734	no	n/a	n/a
456.1171875	n/a	116766	largeTSmallH	correct	incongruent	0.51953	no	T	H
456.6367188	n/a	116899	responseSmallH	correct	n/a	0.51953	no	n/a	n/a
457.703125	n/a	117172	largeTSmallT	correct	congruent	0.45312	no	T	T
458.15625	n/a	117288	responseSmallT	correct	n/a	0.45312	no	n/a	n/a
459.2226562	n/a	117561	largeTSmallH	correct	incongruent	0.53125	no	T	H
459.7539062	n/a	117697	responseSmallH	correct	n/a	0.53125	no	n/a	n/a
460.8242188	n/a	117971	largeHSmallH	correct	congruent	0.88281	no	H	H
461.7070312	n/a	118197	responseSmallH	correct	n/a	0.88281	no	n/a	n/a
462.78125	n/a	118472	largeTSmallT	correct	congruent	0.52734	no	T	T
463.3085938	n/a	118607	responseSmallT	correct	n/a	0.52734	no	n/a	n/a
464.3671875	n/a	118878	largeHSmallH	correct	congruent	0.51562	no	H	H
464.8828125	n/a	119010	responseSmallH	correct	n/a	0.51562	no	n/a	n/a
465.9414062	n/a	119281	largeTSmallH	correct	incongruent	0.62891	no	T	H
466.5703125	n/a	119442	responseSmallH	correct	n/a	0.62891	no	n/a	n/a
467.6484375	n/a	119718	largeTSmallT	correct	congruent	0.58594	no	T	T
468.234375	n/a	119868	responseSmallT	correct	n/a	0.58594	no	n/a	n/a
469.3007812	n/a	120141	largeTSmallH	correct	incongruent	0.55469	no	T	H
469.8554688	n/a	120283	responseSmallH	correct	n/a	0.55469	no	n/a	n/a
470.9140625	n/a	120554	largeTSmallH	correct	incongruent	0.47266	no	T	H
471.3867188	n/a	120675	responseSmallH	correct	n/a	0.47266	no	n/a	n/a
472.4492188	n/a	120947	largeHSmallH	correct	congruent	0.59375	no	H	H
473.0429688	n/a	121099	responseSmallH	correct	n/a	0.59375	no	n/a	n/a
474.1015625	n/a	121370	largeTSmallH	correct	incongruent	0.47266	no	T	H
474.5742188	n/a	121491	responseSmallH	correct	n/a	0.47266	no	n/a	n/a
475.6484375	n/a	121766	largeHSmallT	correct	incongruent	0.66016	no	H	T
476.3085938	n/a	121935	responseSmallT	correct	n/a	0.66016	no	n/a	n/a
477.3828125	n/a	122210	largeTSmallH	correct	incongruent	0.52344	no	T	H
477.90625	n/a	122344	responseSmallH	correct	n/a	0.52344	no	n/a	n/a
478.96875	n/a	122616	largeTSmallH	correct	incongruent	0.52344	no	T	H
479.4921875	n/a	122750	responseSmallH	correct	n/a	0.52344	no	n/a	n/a
480.5546875	n/a	123022	largeHSmallT	correct	incongruent	0.55859	no	H	T
481.1132812	n/a	123165	responseSmallT	correct	n/a	0.55859	no	n/a	n/a
482.1835938	n/a	123439	largeTSmallH	correct	incongruent	0.69531	no	T	H
482.8789062	n/a	123617	responseSmallH	correct	n/a	0.69531	no	n/a	n/a
483.9414062	n/a	123889	largeTSmallT	correct	congruent	0.44141	no	T	T
484.3828125	n/a	124002	responseSmallT	correct	n/a	0.44141	no	n/a	n/a
485.4492188	n/a	124275	largeHSmallH	correct	congruent	0.64844	no	H	H
486.0976562	n/a	124441	responseSmallH	correct	n/a	0.64844	no	n/a	n/a
487.15625	n/a	124712	largeTSmallH	correct	incongruent	0.44922	no	T	H
487.6054688	n/a	124827	responseSmallH	correct	n/a	0.44922	no	n/a	n/a
488.6757812	n/a	125101	largeTSmallH	correct	incongruent	0.4375	no	T	H
489.1132812	n/a	125213	responseSmallH	correct	n/a	0.4375	no	n/a	n/a
490.1835938	n/a	125487	largeTSmallH	correct	incongruent	0.43359	no	T	H
490.6171875	n/a	125598	responseSmallH	correct	n/a	0.43359	no	n/a	n/a
491.6875	n/a	125872	largeHSmallH	correct	congruent	0.40625	no	H	H
492.09375	n/a	125976	responseSmallH	correct	n/a	0.40625	no	n/a	n/a
493.1679688	n/a	126251	largeHSmallT	error	incongruent	0.39062	no	H	T
493.5585938	n/a	126351	responseSmallH	error	n/a	0.39062	no	n/a	n/a
494.6367188	n/a	126627	largeTSmallH	correct	incongruent	0.58594	no	T	H
495.2226562	n/a	126777	responseSmallH	correct	n/a	0.58594	no	n/a	n/a
496.2890625	n/a	127050	largeTSmallT	correct	congruent	0.61328	no	T	T
496.9023438	n/a	127207	responseSmallT	correct	n/a	0.61328	no	n/a	n/a
497.96875	n/a	127480	largeHSmallT	correct	incongruent	0.40625	no	H	T
498.375	n/a	127584	responseSmallT	correct	n/a	0.40625	no	n/a	n/a
499.4335938	n/a	127855	largeTSmallH	correct	incongruent	0.49609	no	T	H
499.9296875	n/a	127982	responseSmallH	correct	n/a	0.49609	no	n/a	n/a
500.9960938	n/a	128255	largeTSmallH	correct	incongruent	0.49609	no	T	H
501.4921875	n/a	128382	responseSmallH	correct	n/a	0.49609	no	n/a	n/a
502.5546875	n/a	128654	largeTSmallH	correct	incongruent	0.44141	no	T	H
502.9960938	n/a	128767	responseSmallH	correct	n/a	0.44141	no	n/a	n/a
504.0742188	n/a	129043	largeTSmallT	correct	congruent	0.60938	no	T	T
504.6835938	n/a	129199	responseSmallT	correct	n/a	0.60938	no	n/a	n/a
505.7539062	n/a	129473	largeHSmallT	correct	incongruent	0.60547	no	H	T
506.359375	n/a	129628	responseSmallT	correct	n/a	0.60547	no	n/a	n/a
507.421875	n/a	129900	largeHSmallT	correct	incongruent	0.42578	no	H	T
507.8476562	n/a	130009	responseSmallT	correct	n/a	0.42578	no	n/a	n/a
508.9296875	n/a	130286	largeTSmallT	correct	congruent	0.42188	no	T	T
509.3515625	n/a	130394	responseSmallT	correct	n/a	0.42188	no	n/a	n/a
510.421875	n/a	130668	largeTSmallT	correct	congruent	0.44922	no	T	T
510.8710938	n/a	130783	responseSmallT	correct	n/a	0.44922	no	n/a	n/a
511.9296875	n/a	131054	largeTSmallH	correct	incongruent	0.625	no	T	H
512.5546875	n/a	131214	responseSmallH	correct	n/a	0.625	no	n/a	n/a
513.6210938	n/a	131487	largeHSmallH	correct	congruent	0.51172	no	H	H
514.1328125	n/a	131618	responseSmallH	correct	n/a	0.51172	no	n/a	n/a
515.1953125	n/a	131890	largeHSmallH	correct	congruent	0.45312	no	H	H
515.6484375	n/a	132006	responseSmallH	correct	n/a	0.45312	no	n/a	n/a
516.7265625	n/a	132282	largeTSmallH	correct	incongruent	0.65234	no	T	H
517.3789062	n/a	132449	responseSmallH	correct	n/a	0.65234	no	n/a	n/a
518.4609375	n/a	132726	largeTSmallH	correct	incongruent	0.50391	no	T	H
518.9648438	n/a	132855	responseSmallH	correct	n/a	0.50391	no	n/a	n/a
520.0234375	n/a	133126	largeTSmallT	error	congruent	0.50391	no	T	T
520.5273438	n/a	133255	responseSmallH	error	n/a	0.50391	no	n/a	n/a
521.59375	n/a	133528	largeTSmallT	correct	congruent	0.62109	no	T	T
522.2148438	n/a	133687	responseSmallT	correct	n/a	0.62109	no	n/a	n/a
523.2890625	n/a	133962	largeTSmallH	correct	incongruent	0.44922	no	T	H
523.7382812	n/a	134077	responseSmallH	correct	n/a	0.44922	no	n/a	n/a
524.8085938	n/a	134351	largeHSmallH	correct	congruent	0.75391	no	H	H
525.5625	n/a	134544	responseSmallH	correct	n/a	0.75391	no	n/a	n/a
526.6210938	n/a	134815	largeHSmallT	correct	incongruent	1.207	no	H	T
527.828125	n/a	135124	responseSmallT	correct	n/a	1.207	no	n/a	n/a
528.8867188	n/a	135395	largeHSmallH	correct	congruent	0.49609	no	H	H
529.3828125	n/a	135522	responseSmallH	correct	n/a	0.49609	no	n/a	n/a
530.4492188	n/a	135795	largeTSmallH	correct	incongruent	0.49609	no	T	H
530.9453125	n/a	135922	responseSmallH	correct	n/a	0.49609	no	n/a	n/a
532.0078125	n/a	136194	largeHSmallT	correct	incongruent	0.44531	no	H	T
532.453125	n/a	136308	responseSmallT	correct	n/a	0.44531	no	n/a	n/a
533.5273438	n/a	136583	largeHSmallH	correct	congruent	0.38281	no	H	H
533.9101562	n/a	136681	responseSmallH	correct	n/a	0.38281	no	n/a	n/a
534.9804688	n/a	136955	largeHSmallH	correct	congruent	0.48047	no	H	H
535.4609375	n/a	137078	responseSmallH	correct	n/a	0.48047	no	n/a	n/a
536.5273438	n/a	137351	largeHSmallT	correct	incongruent	0.4375	no	H	T
536.9648438	n/a	137463	responseSmallT	correct	n/a	0.4375	no	n/a	n/a
538.0351562	n/a	137737	largeHSmallT	correct	incongruent	0.45312	no	H	T
538.4882812	n/a	137853	responseSmallT	correct	n/a	0.45312	no	n/a	n/a
539.5546875	n/a	138126	largeHSmallH	correct	congruent	0.42969	no	H	H
539.984375	n/a	138236	responseSmallH	correct	n/a	0.42969	no	n/a	n/a
541.0625	n/a	138512	largeHSmallT	correct	incongruent	0.48438	no	H	T
541.546875	n/a	138636	responseSmallT	correct	n/a	0.48438	no	n/a	n/a
542.6210938	n/a	138911	largeHSmallT	correct	incongruent	0.4375	no	H	T
543.0585938	n/a	139023	responseSmallT	correct	n/a	0.4375	no	n/a	n/a
544.1289062	n/a	139297	largeHSmallT	correct	incongruent	0.48438	no	H	T
544.6132812	n/a	139421	responseSmallT	correct	n/a	0.48438	no	n/a	n/a
545.6757812	n/a	139693	largeHSmallH	correct	congruent	0.48828	no	H	H
546.1640625	n/a	139818	responseSmallH	correct	n/a	0.48828	no	n/a	n/a
547.234375	n/a	140092	largeTSmallT	correct	congruent	0.47266	no	T	T
547.7070312	n/a	140213	responseSmallT	correct	n/a	0.47266	no	n/a	n/a
548.78125	n/a	140488	largeTSmallT	correct	congruent	0.46875	no	T	T
549.25	n/a	140608	responseSmallT	correct	n/a	0.46875	no	n/a	n/a
550.3125	n/a	140880	largeHSmallT	correct	incongruent	0.62109	no	H	T
550.9335938	n/a	141039	responseSmallT	correct	n/a	0.62109	no	n/a	n/a
552.0078125	n/a	141314	largeTSmallT	correct	congruent	0.55469	no	T	T
552.5625	n/a	141456	responseSmallT	correct	n/a	0.55469	no	n/a	n/a
553.6328125	n/a	141730	largeTSmallH	error	incongruent	0.42969	no	T	H
554.0625	n/a	141840	responseSmallT	error	n/a	0.42969	no	n/a	n/a
555.1289062	n/a	142113	largeTSmallT	correct	congruent	0.64844	no	T	T
555.7773438	n/a	142279	responseSmallT	correct	n/a	0.64844	no	n/a	n/a
556.8476562	n/a	142553	largeHSmallT	correct	incongruent	0.49609	no	H	T
557.34375	n/a	142680	responseSmallT	correct	n/a	0.49609	no	n/a	n/a
558.40625	n/a	142952	largeHSmallH	correct	congruent	0.52344	no	H	H
558.9296875	n/a	143086	responseSmallH	correct	n/a	0.52344	no	n/a	n/a
559.9921875	n/a	143358	largeTSmallT	correct	congruent	0.67188	no	T	T
560.6640625	n/a	143530	responseSmallT	correct	n/a	0.67188	no	n/a	n/a
561.7265625	n/a	143802	largeHSmallT	correct	incongruent	0.41016	no	H	T
562.1367188	n/a	143907	responseSmallT	correct	n/a	0.41016	no	n/a	n/a
563.1953125	n/a	144178	largeHSmallT	correct	incongruent	0.42969	no	H	T
563.625	n/a	144288	responseSmallT	correct	n/a	0.42969	no	n/a	n/a
564.6875	n/a	144560	largeTSmallT	correct	congruent	0.55469	no	T	T
565.2421875	n/a	144702	responseSmallT	correct	n/a	0.55469	no	n/a	n/a
566.3125	n/a	144976	largeHSmallH	correct	congruent	0.4375	no	H	H
566.75	n/a	145088	responseSmallH	correct	n/a	0.4375	no	n/a	n/a
567.8085938	n/a	145359	largeHSmallT	correct	incongruent	0.59766	no	H	T
568.40625	n/a	145512	responseSmallT	correct	n/a	0.59766	no	n/a	n/a
569.4882812	n/a	145789	largeHSmallT	correct	incongruent	0.71875	no	H	T
570.2070312	n/a	145973	responseSmallT	correct	n/a	0.71875	no	n/a	n/a
571.2734375	n/a	146246	largeHSmallT	correct	incongruent	0.40234	no	H	T
571.6757812	n/a	146349	responseSmallT	correct	n/a	0.40234	no	n/a	n/a
572.7382812	n/a	146621	largeHSmallT	correct	incongruent	0.46484	no	H	T
573.203125	n/a	146740	responseSmallT	correct	n/a	0.46484	no	n/a	n/a
574.2734375	n/a	147014	largeTSmallH	correct	incongruent	0.54688	no	T	H
574.8203125	n/a	147154	responseSmallH	correct	n/a	0.54688	no	n/a	n/a
575.8984375	n/a	147430	largeHSmallH	correct	congruent	0.53906	no	H	H
576.4375	n/a	147568	responseSmallH	correct	n/a	0.53906	no	n/a	n/a
577.5	n/a	147840	largeHSmallT	correct	incongruent	0.70703	no	H	T
578.2070312	n/a	148021	responseSmallT	correct	n/a	0.70703	no	n/a	n/a
579.2734375	n/a	148294	largeTSmallT	correct	congruent	0.47656	no	T	T
579.75	n/a	148416	responseSmallT	correct	n/a	0.47656	no	n/a	n/a
580.8203125	n/a	148690	largeTSmallT	correct	congruent	0.48828	no	T	T
581.3085938	n/a	148815	responseSmallT	correct	n/a	0.48828	no	n/a	n/a
582.3789062	n/a	149089	largeHSmallH	correct	congruent	0.58203	no	H	H
582.9609375	n/a	149238	responseSmallH	correct	n/a	0.58203	no	n/a	n/a
584.0195312	n/a	149509	largeHSmallH	correct	congruent	0.49609	no	H	H
584.515625	n/a	149636	responseSmallH	correct	n/a	0.49609	no	n/a	n/a
585.578125	n/a	149908	largeTSmallT	correct	congruent	0.69922	no	T	T
586.2773438	n/a	150087	responseSmallT	correct	n/a	0.69922	no	n/a	n/a
587.3398438	n/a	150359	largeHSmallH	correct	congruent	0.66016	no	H	H
588	n/a	150528	responseSmallH	correct	n/a	0.66016	no	n/a	n/a
589.0742188	n/a	150803	largeTSmallH	correct	incongruent	0.44141	no	T	H
589.515625	n/a	150916	responseSmallH	correct	n/a	0.44141	no	n/a	n/a
590.59375	n/a	151192	largeHSmallH	correct	congruent	0.56641	no	H	H
591.1601562	n/a	151337	responseSmallH	correct	n/a	0.56641	no	n/a	n/a
592.234375	n/a	151612	largeTSmallH	correct	incongruent	0.66406	no	T	H
592.8984375	n/a	151782	responseSmallH	correct	n/a	0.66406	no	n/a	n/a
593.9648438	n/a	152055	largeHSmallT	correct	incongruent	0.57422	no	H	T
594.5390625	n/a	152202	responseSmallT	correct	n/a	0.57422	no	n/a	n/a
595.6210938	n/a	152479	largeTSmallH	correct	incongruent	0.61328	no	T	H
596.234375	n/a	152636	responseSmallH	correct	n/a	0.61328	no	n/a	n/a
597.3007812	n/a	152909	largeTSmallH	correct	incongruent	0.47266	no	T	H
597.7734375	n/a	153030	responseSmallH	correct	n/a	0.47266	no	n/a	n/a
598.8476562	n/a	153305	largeHSmallT	correct	incongruent	0.53906	no	H	T
599.3867188	n/a	153443	responseSmallT	correct	n/a	0.53906	no	n/a	n/a
600.4453125	n/a	153714	largeHSmallT	correct	incongruent	0.74609	no	H	T
601.1914062	n/a	153905	responseSmallT	correct	n/a	0.74609	no	n/a	n/a
602.2578125	n/a	154178	largeTSmallT	correct	congruent	0.45703	no	T	T
602.7148438	n/a	154295	responseSmallT	correct	n/a	0.45703	no	n/a	n/a
603.7929688	n/a	154571	largeHSmallT	correct	incongruent	0.51172	no	H	T
604.3046875	n/a	154702	responseSmallT	correct	n/a	0.51172	no	n/a	n/a
605.3789062	n/a	154977	largeHSmallH	correct	congruent	0.57422	no	H	H
605.953125	n/a	155124	responseSmallH	correct	n/a	0.57422	no	n/a	n/a
607.0195312	n/a	155397	largeTSmallT	error	congruent	0.66016	no	T	T
607.6796875	n/a	155566	responseSmallH	error	n/a	0.66016	no	n/a	n/a
608.7539062	n/a	155841	largeHSmallT	correct	incongruent	0.69922	no	H	T
609.453125	n/a	156020	responseSmallT	correct	n/a	0.69922	no	n/a	n/a
610.5273438	n/a	156295	largeTSmallT	correct	congruent	0.43359	no	T	T
610.9609375	n/a	156406	responseSmallT	correct	n/a	0.43359	no	n/a	n/a
612.0195312	n/a	156677	largeTSmallH	correct	incongruent	0.51953	no	T	H
612.5390625	n/a	156810	responseSmallH	correct	n/a	0.51953	no	n/a	n/a
613.6210938	n/a	157087	largeTSmallH	correct	incongruent	0.44141	no	T	H
614.0625	n/a	157200	responseSmallH	correct	n/a	0.44141	no	n/a	n/a
615.125	n/a	157472	largeHSmallH	correct	congruent	0.42578	no	H	H
615.5507812	n/a	157581	responseSmallH	correct	n/a	0.42578	no	n/a	n/a
616.6171875	n/a	157854	largeHSmallH	correct	congruent	0.40625	no	H	H
617.0234375	n/a	157958	responseSmallH	correct	n/a	0.40625	no	n/a	n/a
618.0859375	n/a	158230	largeHSmallH	correct	congruent	0.4375	no	H	H
618.5234375	n/a	158342	responseSmallH	correct	n/a	0.4375	no	n/a	n/a
619.59375	n/a	158616	largeTSmallT	correct	congruent	0.98047	no	T	T
620.5742188	n/a	158867	responseSmallT	correct	n/a	0.98047	no	n/a	n/a
621.6445312	n/a	159141	largeTSmallT	correct	congruent	0.35156	no	T	T
621.9960938	n/a	159231	responseSmallT	correct	n/a	0.35156	no	n/a	n/a
623.0742188	n/a	159507	largeTSmallT	correct	congruent	0.40234	no	T	T
623.4765625	n/a	159610	responseSmallT	correct	n/a	0.40234	no	n/a	n/a
624.5507812	n/a	159885	largeHSmallH	correct	congruent	0.44531	no	H	H
624.9960938	n/a	159999	responseSmallH	correct	n/a	0.44531	no	n/a	n/a
626.0585938	n/a	160271	largeHSmallH	correct	congruent	0.43359	no	H	H
626.4921875	n/a	160382	responseSmallH	correct	n/a	0.43359	no	n/a	n/a
627.5664062	n/a	160657	largeTSmallH	correct	incongruent	0.4375	no	T	H
628.0039062	n/a	160769	responseSmallH	correct	n/a	0.4375	no	n/a	n/a
629.0703125	n/a	161042	largeTSmallH	correct	incongruent	0.4375	no	T	H
629.5078125	n/a	161154	responseSmallH	correct	n/a	0.4375	no	n/a	n/a
630.5664062	n/a	161425	largeHSmallH	correct	congruent	0.44141	no	H	H
631.0078125	n/a	161538	responseSmallH	correct	n/a	0.44141	no	n/a	n/a
632.0703125	n/a	161810	largeHSmallH	correct	congruent	0.65234	no	H	H
632.7226562	n/a	161977	responseSmallH	correct	n/a	0.65234	no	n/a	n/a
633.7773438	n/a	162247	largeHSmallT	correct	incongruent	0.57812	no	H	T
634.3554688	n/a	162395	responseSmallT	correct	n/a	0.57812	no	n/a	n/a
635.4179688	n/a	162667	largeHSmallH	correct	congruent	0.80469	no	H	H
636.2226562	n/a	162873	responseSmallH	correct	n/a	0.80469	no	n/a	n/a
637.3007812	n/a	163149	largeTSmallH	correct	incongruent	0.69531	no	T	H
637.9960938	n/a	163327	responseSmallH	correct	n/a	0.69531	no	n/a	n/a
639.0585938	n/a	163599	largeHSmallT	correct	incongruent	0.57422	no	H	T
639.6328125	n/a	163746	responseSmallT	correct	n/a	0.57422	no	n/a	n/a
640.6992188	n/a	164019	largeHSmallT	correct	incongruent	0.44141	no	H	T
641.140625	n/a	164132	responseSmallT	correct	n/a	0.44141	no	n/a	n/a
642.2070312	n/a	164405	largeTSmallT	correct	congruent	0.42969	no	T	T
642.6367188	n/a	164515	responseSmallT	correct	n/a	0.42969	no	n/a	n/a
643.7109375	n/a	164790	largeHSmallH	correct	congruent	0.50781	no	H	H
644.21875	n/a	164920	responseSmallH	correct	n/a	0.50781	no	n/a	n/a
645.2851562	n/a	165193	largeTSmallH	correct	incongruent	0.66016	no	T	H
645.9453125	n/a	165362	responseSmallH	correct	n/a	0.66016	no	n/a	n/a
647.0195312	n/a	165637	largeHSmallH	correct	congruent	0.40625	no	H	H
647.4257812	n/a	165741	responseSmallH	correct	n/a	0.40625	no	n/a	n/a
648.5	n/a	166016	largeHSmallH	correct	congruent	0.54297	no	H	H
649.0429688	n/a	166155	responseSmallH	correct	n/a	0.54297	no	n/a	n/a
650.0976562	n/a	166425	largeHSmallT	error	incongruent	0.39844	no	H	T
650.4960938	n/a	166527	responseSmallH	error	n/a	0.39844	no	n/a	n/a
651.5664062	n/a	166801	largeTSmallT	correct	congruent	0.50781	no	T	T
652.0742188	n/a	166931	responseSmallT	correct	n/a	0.50781	no	n/a	n/a
653.1367188	n/a	167203	largeHSmallH	correct	congruent	0.57422	no	H	H
653.7109375	n/a	167350	responseSmallH	correct	n/a	0.57422	no	n/a	n/a
654.7773438	n/a	167623	largeHSmallT	correct	incongruent	1.4023	no	H	T
656.1796875	n/a	167982	responseSmallT	correct	n/a	1.4023	no	n/a	n/a
657.2460938	n/a	168255	largeHSmallH	correct	congruent	0.49219	no	H	H
657.7382812	n/a	168381	responseSmallH	correct	n/a	0.49219	no	n/a	n/a
658.8046875	n/a	168654	largeTSmallH	correct	incongruent	0.45312	no	T	H
659.2578125	n/a	168770	responseSmallH	correct	n/a	0.45312	no	n/a	n/a
666.9921875	n/a	170750	largeTSmallT	correct	congruent	0.66016	no	T	T
667.6523438	n/a	170919	responseLargeT	correct	n/a	0.66016	no	n/a	n/a
668.7109375	n/a	171190	largeHSmallT	correct	incongruent	0.52734	no	H	T
669.2382812	n/a	171325	responseLargeH	correct	n/a	0.52734	no	n/a	n/a
670.296875	n/a	171596	largeHSmallH	correct	congruent	0.38672	no	H	H
670.6835938	n/a	171695	responseLargeH	correct	n/a	0.38672	no	n/a	n/a
671.75	n/a	171968	largeTSmallT	correct	congruent	0.48438	no	T	T
672.234375	n/a	172092	responseLargeT	correct	n/a	0.48438	no	n/a	n/a
673.296875	n/a	172364	largeTSmallH	correct	incongruent	0.66406	no	T	H
673.9609375	n/a	172534	responseLargeT	correct	n/a	0.66406	no	n/a	n/a
675.03125	n/a	172808	largeHSmallT	correct	incongruent	0.44531	no	H	T
675.4765625	n/a	172922	responseLargeH	correct	n/a	0.44531	no	n/a	n/a
676.5390625	n/a	173194	largeHSmallT	correct	incongruent	0.40625	no	H	T
676.9453125	n/a	173298	responseLargeH	correct	n/a	0.40625	no	n/a	n/a
678.0195312	n/a	173573	largeTSmallT	correct	congruent	0.47266	no	T	T
678.4921875	n/a	173694	responseLargeT	correct	n/a	0.47266	no	n/a	n/a
679.5507812	n/a	173965	largeTSmallT	correct	congruent	0.41016	no	T	T
679.9609375	n/a	174070	responseLargeT	correct	n/a	0.41016	no	n/a	n/a
681.0195312	n/a	174341	largeTSmallH	correct	incongruent	0.54688	no	T	H
681.5664062	n/a	174481	responseLargeT	correct	n/a	0.54688	no	n/a	n/a
682.6328125	n/a	174754	largeTSmallT	correct	congruent	0.39453	no	T	T
683.0273438	n/a	174855	responseLargeT	correct	n/a	0.39453	no	n/a	n/a
684.0976562	n/a	175129	largeTSmallT	correct	congruent	0.375	no	T	T
684.4726562	n/a	175225	responseLargeT	correct	n/a	0.375	no	n/a	n/a
685.5507812	n/a	175501	largeHSmallT	correct	incongruent	0.51172	no	H	T
686.0625	n/a	175632	responseLargeH	correct	n/a	0.51172	no	n/a	n/a
687.125	n/a	175904	largeHSmallT	correct	incongruent	0.61328	no	H	T
687.7382812	n/a	176061	responseLargeH	correct	n/a	0.61328	no	n/a	n/a
688.8046875	n/a	176334	largeHSmallH	correct	congruent	0.53516	no	H	H
689.3398438	n/a	176471	responseLargeH	correct	n/a	0.53516	no	n/a	n/a
690.4179688	n/a	176747	largeTSmallT	correct	congruent	0.59766	no	T	T
691.015625	n/a	176900	responseLargeT	correct	n/a	0.59766	no	n/a	n/a
692.0859375	n/a	177174	largeHSmallT	correct	incongruent	0.36328	no	H	T
692.4492188	n/a	177267	responseLargeH	correct	n/a	0.36328	no	n/a	n/a
693.5117188	n/a	177539	largeHSmallH	correct	congruent	0.46094	no	H	H
693.9726562	n/a	177657	responseLargeH	correct	n/a	0.46094	no	n/a	n/a
695.0429688	n/a	177931	largeHSmallT	correct	incongruent	0.44141	no	H	T
695.484375	n/a	178044	responseLargeH	correct	n/a	0.44141	no	n/a	n/a
696.5625	n/a	178320	largeTSmallH	correct	incongruent	0.74219	no	T	H
697.3046875	n/a	178510	responseLargeT	correct	n/a	0.74219	no	n/a	n/a
698.3632812	n/a	178781	largeTSmallH	correct	incongruent	0.52734	no	T	H
698.890625	n/a	178916	responseLargeT	correct	n/a	0.52734	no	n/a	n/a
699.9648438	n/a	179191	largeHSmallH	correct	congruent	0.51562	no	H	H
700.4804688	n/a	179323	responseLargeH	correct	n/a	0.51562	no	n/a	n/a
701.5507812	n/a	179597	largeTSmallT	correct	congruent	0.56641	no	T	T
702.1171875	n/a	179742	responseLargeT	correct	n/a	0.56641	no	n/a	n/a
703.1914062	n/a	180017	largeTSmallT	correct	congruent	0.50391	no	T	T
703.6953125	n/a	180146	responseLargeT	correct	n/a	0.50391	no	n/a	n/a
704.765625	n/a	180420	largeHSmallT	correct	incongruent	0.46094	no	H	T
705.2265625	n/a	180538	responseLargeH	correct	n/a	0.46094	no	n/a	n/a
706.296875	n/a	180812	largeHSmallH	correct	congruent	0.41016	no	H	H
706.7070312	n/a	180917	responseLargeH	correct	n/a	0.41016	no	n/a	n/a
707.7773438	n/a	181191	largeHSmallH	correct	congruent	0.47656	no	H	H
708.2539062	n/a	181313	responseLargeH	correct	n/a	0.47656	no	n/a	n/a
709.3242188	n/a	181587	largeTSmallH	correct	incongruent	0.46484	no	T	H
709.7890625	n/a	181706	responseLargeT	correct	n/a	0.46484	no	n/a	n/a
710.8710938	n/a	181983	largeTSmallH	correct	incongruent	0.79297	no	T	H
711.6640625	n/a	182186	responseLargeT	correct	n/a	0.79297	no	n/a	n/a
712.7382812	n/a	182461	largeTSmallH	correct	incongruent	0.58594	no	T	H
713.3242188	n/a	182611	responseLargeT	correct	n/a	0.58594	no	n/a	n/a
714.390625	n/a	182884	largeHSmallT	correct	incongruent	0.46875	no	H	T
714.859375	n/a	183004	responseLargeH	correct	n/a	0.46875	no	n/a	n/a
715.9375	n/a	183280	largeHSmallT	correct	incongruent	0.49219	no	H	T
716.4296875	n/a	183406	responseLargeH	correct	n/a	0.49219	no	n/a	n/a
717.4960938	n/a	183679	largeHSmallH	correct	congruent	0.35547	no	H	H
717.8515625	n/a	183770	responseLargeH	correct	n/a	0.35547	no	n/a	n/a
718.9101562	n/a	184041	largeTSmallT	correct	congruent	0.70703	no	T	T
719.6171875	n/a	184222	responseLargeT	correct	n/a	0.70703	no	n/a	n/a
720.6953125	n/a	184498	largeTSmallH	correct	incongruent	0.62891	no	T	H
721.3242188	n/a	184659	responseLargeT	correct	n/a	0.62891	no	n/a	n/a
722.390625	n/a	184932	largeTSmallH	correct	incongruent	0.51562	no	T	H
722.90625	n/a	185064	responseLargeT	correct	n/a	0.51562	no	n/a	n/a
723.9648438	n/a	185335	largeTSmallH	correct	incongruent	0.45703	no	T	H
724.421875	n/a	185452	responseLargeT	correct	n/a	0.45703	no	n/a	n/a
725.484375	n/a	185724	largeTSmallT	correct	congruent	0.375	no	T	T
725.859375	n/a	185820	responseLargeT	correct	n/a	0.375	no	n/a	n/a
726.9375	n/a	186096	largeTSmallT	correct	congruent	0.41797	no	T	T
727.3554688	n/a	186203	responseLargeT	correct	n/a	0.41797	no	n/a	n/a
728.4296875	n/a	186478	largeTSmallH	correct	incongruent	0.36328	no	T	H
728.7929688	n/a	186571	responseLargeT	correct	n/a	0.36328	no	n/a	n/a
729.8710938	n/a	186847	largeTSmallT	correct	congruent	0.38672	no	T	T
730.2578125	n/a	186946	responseLargeT	correct	n/a	0.38672	no	n/a	n/a
731.3359375	n/a	187222	largeHSmallT	correct	incongruent	0.94141	no	H	T
732.2773438	n/a	187463	responseLargeH	correct	n/a	0.94141	no	n/a	n/a
733.3515625	n/a	187738	largeTSmallH	correct	incongruent	0.63281	no	T	H
733.984375	n/a	187900	responseLargeT	correct	n/a	0.63281	no	n/a	n/a
735.0546875	n/a	188174	largeHSmallH	correct	congruent	0.44141	no	H	H
735.4960938	n/a	188287	responseLargeH	correct	n/a	0.44141	no	n/a	n/a
736.5625	n/a	188560	largeHSmallH	correct	congruent	0.57812	no	H	H
737.140625	n/a	188708	responseLargeH	correct	n/a	0.57812	no	n/a	n/a
738.2148438	n/a	188983	largeTSmallH	error	incongruent	0.4375	no	T	H
738.6523438	n/a	189095	responseLargeH	error	n/a	0.4375	no	n/a	n/a
739.7226562	n/a	189369	largeHSmallH	correct	congruent	0.49609	no	H	H
740.21875	n/a	189496	responseLargeH	correct	n/a	0.49609	no	n/a	n/a
741.28125	n/a	189768	largeHSmallH	correct	congruent	0.44141	no	H	H
741.7226562	n/a	189881	responseLargeH	correct	n/a	0.44141	no	n/a	n/a
742.8046875	n/a	190158	largeTSmallH	correct	incongruent	0.57812	no	T	H
743.3828125	n/a	190306	responseLargeT	correct	n/a	0.57812	no	n/a	n/a
744.4570312	n/a	190581	largeTSmallH	correct	incongruent	0.45703	no	T	H
744.9140625	n/a	190698	responseLargeT	correct	n/a	0.45703	no	n/a	n/a
745.9765625	n/a	190970	largeHSmallT	correct	incongruent	0.55078	no	H	T
746.5273438	n/a	191111	responseLargeH	correct	n/a	0.55078	no	n/a	n/a
747.6015625	n/a	191386	largeHSmallH	correct	congruent	0.48828	no	H	H
748.0898438	n/a	191511	responseLargeH	correct	n/a	0.48828	no	n/a	n/a
749.1640625	n/a	191786	largeHSmallT	correct	incongruent	0.41406	no	H	T
749.578125	n/a	191892	responseLargeH	correct	n/a	0.41406	no	n/a	n/a
750.640625	n/a	192164	largeHSmallH	correct	congruent	0.40234	no	H	H
751.0429688	n/a	192267	responseLargeH	correct	n/a	0.40234	no	n/a	n/a
752.109375	n/a	192540	largeHSmallT	correct	incongruent	0.45703	no	H	T
752.5664062	n/a	192657	responseLargeH	correct	n/a	0.45703	no	n/a	n/a
753.6445312	n/a	192933	largeHSmallH	correct	congruent	0.41406	no	H	H
754.0585938	n/a	193039	responseLargeH	correct	n/a	0.41406	no	n/a	n/a
755.1210938	n/a	193311	largeTSmallT	error	congruent	0.42188	no	T	T
755.5429688	n/a	193419	responseLargeH	error	n/a	0.42188	no	n/a	n/a
756.6015625	n/a	193690	largeTSmallT	correct	congruent	0.58594	no	T	T
757.1875	n/a	193840	responseLargeT	correct	n/a	0.58594	no	n/a	n/a
758.2578125	n/a	194114	largeTSmallH	correct	incongruent	0.47656	no	T	H
758.734375	n/a	194236	responseLargeT	correct	n/a	0.47656	no	n/a	n/a
759.8007812	n/a	194509	largeHSmallT	correct	incongruent	0.46875	no	H	T
760.2695312	n/a	194629	responseLargeH	correct	n/a	0.46875	no	n/a	n/a
761.3476562	n/a	194905	largeTSmallH	correct	incongruent	0.64844	no	T	H
761.9960938	n/a	195071	responseLargeT	correct	n/a	0.64844	no	n/a	n/a
763.0546875	n/a	195342	largeTSmallH	correct	incongruent	0.64062	no	T	H
763.6953125	n/a	195506	responseLargeT	correct	n/a	0.64062	no	n/a	n/a
764.7617188	n/a	195779	largeHSmallT	correct	incongruent	0.51953	no	H	T
765.28125	n/a	195912	responseLargeH	correct	n/a	0.51953	no	n/a	n/a
766.3476562	n/a	196185	largeTSmallT	correct	congruent	0.51172	no	T	T
766.859375	n/a	196316	responseLargeT	correct	n/a	0.51172	no	n/a	n/a
767.9375	n/a	196592	largeTSmallH	correct	incongruent	0.55859	no	T	H
768.4960938	n/a	196735	responseLargeT	correct	n/a	0.55859	no	n/a	n/a
769.5625	n/a	197008	largeTSmallH	correct	incongruent	0.63281	no	T	H
770.1953125	n/a	197170	responseLargeT	correct	n/a	0.63281	no	n/a	n/a
771.2695312	n/a	197445	largeHSmallT	correct	incongruent	0.47266	no	H	T
771.7421875	n/a	197566	responseLargeH	correct	n/a	0.47266	no	n/a	n/a
772.8164062	n/a	197841	largeTSmallH	correct	incongruent	0.73047	no	T	H
773.546875	n/a	198028	responseLargeT	correct	n/a	0.73047	no	n/a	n/a
774.6289062	n/a	198305	largeTSmallT	error	congruent	0.35938	no	T	T
774.9882812	n/a	198397	responseLargeH	error	n/a	0.35938	no	n/a	n/a
776.0546875	n/a	198670	largeHSmallT	correct	incongruent	0.74609	no	H	T
776.8007812	n/a	198861	responseLargeH	correct	n/a	0.74609	no	n/a	n/a
777.8671875	n/a	199134	largeHSmallH	correct	congruent	0.48438	no	H	H
778.3515625	n/a	199258	responseLargeH	correct	n/a	0.48438	no	n/a	n/a
779.4296875	n/a	199534	largeTSmallH	correct	incongruent	0.62891	no	T	H
780.0585938	n/a	199695	responseLargeT	correct	n/a	0.62891	no	n/a	n/a
781.1367188	n/a	199971	largeTSmallH	correct	incongruent	0.57812	no	T	H
781.7148438	n/a	200119	responseLargeT	correct	n/a	0.57812	no	n/a	n/a
782.7773438	n/a	200391	largeHSmallH	correct	congruent	0.46094	no	H	H
783.2382812	n/a	200509	responseLargeH	correct	n/a	0.46094	no	n/a	n/a
784.3085938	n/a	200783	largeHSmallT	correct	incongruent	0.48828	no	H	T
784.796875	n/a	200908	responseLargeH	correct	n/a	0.48828	no	n/a	n/a
785.8671875	n/a	201182	largeTSmallT	correct	congruent	0.55078	no	T	T
786.4179688	n/a	201323	responseLargeT	correct	n/a	0.55078	no	n/a	n/a
787.4960938	n/a	201599	largeTSmallT	correct	congruent	0.5625	no	T	T
788.0585938	n/a	201743	responseLargeT	correct	n/a	0.5625	no	n/a	n/a
789.1367188	n/a	202019	largeTSmallH	correct	incongruent	0.91406	no	T	H
790.0507812	n/a	202253	responseLargeT	correct	n/a	0.91406	no	n/a	n/a
791.109375	n/a	202524	largeHSmallH	correct	congruent	0.55469	no	H	H
791.6640625	n/a	202666	responseLargeH	correct	n/a	0.55469	no	n/a	n/a
792.734375	n/a	202940	largeHSmallH	correct	congruent	0.5	no	H	H
793.234375	n/a	203068	responseLargeH	correct	n/a	0.5	no	n/a	n/a
794.296875	n/a	203340	largeHSmallT	correct	incongruent	0.39453	no	H	T
794.6914062	n/a	203441	responseLargeH	correct	n/a	0.39453	no	n/a	n/a
795.7617188	n/a	203715	largeTSmallH	correct	incongruent	0.5625	no	T	H
796.3242188	n/a	203859	responseLargeT	correct	n/a	0.5625	no	n/a	n/a
797.4023438	n/a	204135	largeTSmallH	correct	incongruent	0.4375	no	T	H
797.8398438	n/a	204247	responseLargeT	correct	n/a	0.4375	no	n/a	n/a
798.9101562	n/a	204521	largeTSmallT	correct	congruent	0.44922	no	T	T
799.359375	n/a	204636	responseLargeT	correct	n/a	0.44922	no	n/a	n/a
800.4296875	n/a	204910	largeTSmallH	correct	incongruent	0.47266	no	T	H
800.9023438	n/a	205031	responseLargeT	correct	n/a	0.47266	no	n/a	n/a
801.9765625	n/a	205306	largeHSmallT	correct	incongruent	0.46094	no	H	T
802.4375	n/a	205424	responseLargeH	correct	n/a	0.46094	no	n/a	n/a
803.4960938	n/a	205695	largeTSmallH	correct	incongruent	0.5625	no	T	H
804.0585938	n/a	205839	responseLargeT	correct	n/a	0.5625	no	n/a	n/a
805.1210938	n/a	206111	largeHSmallH	correct	congruent	0.63672	no	H	H
805.7578125	n/a	206274	responseLargeH	correct	n/a	0.63672	no	n/a	n/a
806.8164062	n/a	206545	largeTSmallH	correct	incongruent	0.61719	no	T	H
807.4335938	n/a	206703	responseLargeT	correct	n/a	0.61719	no	n/a	n/a
808.5078125	n/a	206978	largeHSmallH	correct	congruent	0.52344	no	H	H
809.03125	n/a	207112	responseLargeH	correct	n/a	0.52344	no	n/a	n/a
810.09375	n/a	207384	largeTSmallT	correct	congruent	0.40625	no	T	T
810.5	n/a	207488	responseLargeT	correct	n/a	0.40625	no	n/a	n/a
811.5625	n/a	207760	largeTSmallT	correct	congruent	0.46484	no	T	T
812.0273438	n/a	207879	responseLargeT	correct	n/a	0.46484	no	n/a	n/a
813.09375	n/a	208152	largeHSmallT	correct	incongruent	0.63281	no	H	T
813.7265625	n/a	208314	responseLargeH	correct	n/a	0.63281	no	n/a	n/a
814.7890625	n/a	208586	largeHSmallH	correct	congruent	1.1406	no	H	H
815.9296875	n/a	208878	responseLargeH	correct	n/a	1.1406	no	n/a	n/a
816.9882812	n/a	209149	largeTSmallH	correct	incongruent	0.5625	no	T	H
817.5507812	n/a	209293	responseLargeT	correct	n/a	0.5625	no	n/a	n/a
818.6132812	n/a	209565	largeTSmallH	correct	incongruent	0.52734	no	T	H
819.140625	n/a	209700	responseLargeT	correct	n/a	0.52734	no	n/a	n/a
820.203125	n/a	209972	largeHSmallH	correct	congruent	0.57031	no	H	H
820.7734375	n/a	210118	responseLargeH	correct	n/a	0.57031	no	n/a	n/a
821.8398438	n/a	210391	largeTSmallH	error	incongruent	0.35156	no	T	H
822.1914062	n/a	210481	responseLargeH	error	n/a	0.35156	no	n/a	n/a
823.2695312	n/a	210757	largeHSmallH	correct	congruent	0.54297	no	H	H
823.8125	n/a	210896	responseLargeH	correct	n/a	0.54297	no	n/a	n/a
824.8828125	n/a	211170	largeTSmallT	correct	congruent	0.58984	no	T	T
825.4726562	n/a	211321	responseLargeT	correct	n/a	0.58984	no	n/a	n/a
826.5351562	n/a	211593	largeHSmallT	correct	incongruent	0.63672	no	H	T
827.171875	n/a	211756	responseLargeH	correct	n/a	0.63672	no	n/a	n/a
828.2421875	n/a	212030	largeTSmallH	correct	incongruent	0.55078	no	T	H
828.7929688	n/a	212171	responseLargeT	correct	n/a	0.55078	no	n/a	n/a
829.8554688	n/a	212443	largeTSmallT	correct	congruent	0.36719	no	T	T
830.2226562	n/a	212537	responseLargeT	correct	n/a	0.36719	no	n/a	n/a
831.28125	n/a	212808	largeHSmallH	correct	congruent	0.51172	no	H	H
831.7929688	n/a	212939	responseLargeH	correct	n/a	0.51172	no	n/a	n/a
832.8554688	n/a	213211	largeHSmallH	correct	congruent	0.41797	no	H	H
833.2734375	n/a	213318	responseLargeH	correct	n/a	0.41797	no	n/a	n/a
834.3359375	n/a	213590	largeHSmallT	correct	incongruent	0.39062	no	H	T
834.7265625	n/a	213690	responseLargeH	correct	n/a	0.39062	no	n/a	n/a
835.7890625	n/a	213962	largeTSmallH	correct	incongruent	0.66016	no	T	H
836.4492188	n/a	214131	responseLargeT	correct	n/a	0.66016	no	n/a	n/a
837.5195312	n/a	214405	largeTSmallH	correct	incongruent	0.44531	no	T	H
837.9648438	n/a	214519	responseLargeT	correct	n/a	0.44531	no	n/a	n/a
839.0273438	n/a	214791	largeHSmallH	error	congruent	0.875	no	H	H
839.9023438	n/a	215015	responseLargeT	error	n/a	0.875	no	n/a	n/a
840.9726562	n/a	215289	largeHSmallT	correct	incongruent	0.37891	no	H	T
841.3515625	n/a	215386	responseLargeH	correct	n/a	0.37891	no	n/a	n/a
842.4257812	n/a	215661	largeTSmallT	error	congruent	0.78125	no	T	T
843.2070312	n/a	215861	responseLargeH	error	n/a	0.78125	no	n/a	n/a
844.28125	n/a	216136	largeHSmallH	correct	congruent	0.50391	no	H	H
844.7851562	n/a	216265	responseLargeH	correct	n/a	0.50391	no	n/a	n/a
845.8554688	n/a	216539	largeTSmallH	correct	incongruent	0.64844	no	T	H
846.5039062	n/a	216705	responseLargeT	correct	n/a	0.64844	no	n/a	n/a
847.5742188	n/a	216979	largeTSmallH	correct	incongruent	0.55078	no	T	H
848.125	n/a	217120	responseLargeT	correct	n/a	0.55078	no	n/a	n/a
849.1875	n/a	217392	largeTSmallH	correct	incongruent	0.44922	no	T	H
849.6367188	n/a	217507	responseLargeT	correct	n/a	0.44922	no	n/a	n/a
850.7070312	n/a	217781	largeTSmallH	correct	incongruent	0.39453	no	T	H
851.1015625	n/a	217882	responseLargeT	correct	n/a	0.39453	no	n/a	n/a
852.171875	n/a	218156	largeHSmallH	correct	congruent	0.50391	no	H	H
852.6757812	n/a	218285	responseLargeH	correct	n/a	0.50391	no	n/a	n/a
853.7460938	n/a	218559	largeHSmallT	correct	incongruent	0.53125	no	H	T
854.2773438	n/a	218695	responseLargeH	correct	n/a	0.53125	no	n/a	n/a
855.3320312	n/a	218965	largeTSmallT	correct	congruent	0.52734	no	T	T
855.859375	n/a	219100	responseLargeT	correct	n/a	0.52734	no	n/a	n/a
856.9335938	n/a	219375	largeHSmallT	correct	incongruent	0.67969	no	H	T
857.6132812	n/a	219549	responseLargeH	correct	n/a	0.67969	no	n/a	n/a
858.6796875	n/a	219822	largeTSmallH	correct	incongruent	0.53906	no	T	H
859.21875	n/a	219960	responseLargeT	correct	n/a	0.53906	no	n/a	n/a
860.28125	n/a	220232	largeTSmallT	correct	congruent	0.56641	no	T	T
860.8476562	n/a	220377	responseLargeT	correct	n/a	0.56641	no	n/a	n/a
861.921875	n/a	220652	largeTSmallH	correct	incongruent	1.2188	no	T	H
863.140625	n/a	220964	responseLargeT	correct	n/a	1.2188	no	n/a	n/a
864.2148438	n/a	221239	largeTSmallH	correct	incongruent	1.5156	yes	T	H
865.7304688	n/a	221627	responseLargeT	correct	n/a	1.5156	yes	n/a	n/a
866.8007812	n/a	221901	largeHSmallH	correct	congruent	0.58984	no	H	H
867.390625	n/a	222052	responseLargeH	correct	n/a	0.58984	no	n/a	n/a
868.453125	n/a	222324	largeTSmallT	correct	congruent	0.54297	no	T	T
868.9960938	n/a	222463	responseLargeT	correct	n/a	0.54297	no	n/a	n/a
870.0664062	n/a	222737	largeHSmallH	correct	congruent	0.38672	no	H	H
870.453125	n/a	222836	responseLargeH	correct	n/a	0.38672	no	n/a	n/a
871.5195312	n/a	223109	largeTSmallT	correct	congruent	0.92188	no	T	T
872.4414062	n/a	223345	responseLargeT	correct	n/a	0.92188	no	n/a	n/a
873.5078125	n/a	223618	largeHSmallH	correct	congruent	0.30078	no	H	H
873.8085938	n/a	223695	responseLargeH	correct	n/a	0.30078	no	n/a	n/a
874.8789062	n/a	223969	largeTSmallT	correct	congruent	0.63672	no	T	T
875.515625	n/a	224132	responseLargeT	correct	n/a	0.63672	no	n/a	n/a
876.5859375	n/a	224406	largeHSmallT	correct	incongruent	0.53125	no	H	T
877.1171875	n/a	224542	responseLargeH	correct	n/a	0.53125	no	n/a	n/a
878.1875	n/a	224816	largeTSmallT	correct	congruent	0.69531	no	T	T
878.8828125	n/a	224994	responseLargeT	correct	n/a	0.69531	no	n/a	n/a
879.9453125	n/a	225266	largeHSmallT	correct	incongruent	0.33203	no	H	T
880.2773438	n/a	225351	responseLargeH	correct	n/a	0.33203	no	n/a	n/a
881.3476562	n/a	225625	largeTSmallT	correct	congruent	0.49609	no	T	T
881.84375	n/a	225752	responseLargeT	correct	n/a	0.49609	no	n/a	n/a
882.90625	n/a	226024	largeHSmallH	correct	congruent	0.41016	no	H	H
883.3164062	n/a	226129	responseLargeH	correct	n/a	0.41016	no	n/a	n/a
884.3867188	n/a	226403	largeTSmallT	correct	congruent	0.46094	no	T	T
884.8476562	n/a	226521	responseLargeT	correct	n/a	0.46094	no	n/a	n/a
885.90625	n/a	226792	largeHSmallH	correct	congruent	0.35156	no	H	H
886.2578125	n/a	226882	responseLargeH	correct	n/a	0.35156	no	n/a	n/a
887.3320312	n/a	227157	largeTSmallH	correct	incongruent	0.49219	no	T	H
887.8242188	n/a	227283	responseLargeT	correct	n/a	0.49219	no	n/a	n/a
888.8945312	n/a	227557	largeHSmallT	correct	incongruent	0.30859	no	H	T
889.203125	n/a	227636	responseLargeH	correct	n/a	0.30859	no	n/a	n/a
890.265625	n/a	227908	largeHSmallT	error	incongruent	0.5	no	H	T
890.765625	n/a	228036	responseLargeT	error	n/a	0.5	no	n/a	n/a
891.8242188	n/a	228307	largeHSmallH	correct	congruent	0.52344	no	H	H
892.3476562	n/a	228441	responseLargeH	correct	n/a	0.52344	no	n/a	n/a
893.4140625	n/a	228714	largeTSmallT	correct	congruent	0.33594	no	T	T
893.75	n/a	228800	responseLargeT	correct	n/a	0.33594	no	n/a	n/a
894.8125	n/a	229072	largeHSmallH	correct	congruent	0.48047	no	H	H
895.2929688	n/a	229195	responseLargeH	correct	n/a	0.48047	no	n/a	n/a
896.359375	n/a	229468	largeHSmallH	correct	congruent	0.36328	no	H	H
896.7226562	n/a	229561	responseLargeH	correct	n/a	0.36328	no	n/a	n/a
897.7851562	n/a	229833	largeTSmallT	correct	congruent	0.64844	no	T	T
898.4335938	n/a	229999	responseLargeT	correct	n/a	0.64844	no	n/a	n/a
899.5078125	n/a	230274	largeHSmallH	correct	congruent	0.58594	no	H	H
900.09375	n/a	230424	responseLargeH	correct	n/a	0.58594	no	n/a	n/a
901.171875	n/a	230700	largeHSmallT	correct	incongruent	0.41016	no	H	T
901.5820312	n/a	230805	responseLargeH	correct	n/a	0.41016	no	n/a	n/a
902.6523438	n/a	231079	largeTSmallT	correct	congruent	0.625	no	T	T
903.2773438	n/a	231239	responseLargeT	correct	n/a	0.625	no	n/a	n/a
904.3320312	n/a	231509	largeHSmallT	correct	incongruent	0.48828	no	H	T
904.8203125	n/a	231634	responseLargeH	correct	n/a	0.48828	no	n/a	n/a
905.890625	n/a	231908	largeTSmallT	correct	congruent	0.53906	no	T	T
906.4296875	n/a	232046	responseLargeT	correct	n/a	0.53906	no	n/a	n/a
907.5039062	n/a	232321	largeHSmallT	correct	incongruent	0.40234	no	H	T
907.90625	n/a	232424	responseLargeH	correct	n/a	0.40234	no	n/a	n/a
908.9726562	n/a	232697	largeTSmallT	correct	congruent	0.64453	no	T	T
909.6171875	n/a	232862	responseLargeT	correct	n/a	0.64453	no	n/a	n/a
910.6914062	n/a	233137	largeTSmallH	correct	incongruent	0.67969	no	T	H
911.3710938	n/a	233311	responseLargeT	correct	n/a	0.67969	no	n/a	n/a
912.4257812	n/a	233581	largeTSmallT	correct	congruent	0.55078	no	T	T
912.9765625	n/a	233722	responseLargeT	correct	n/a	0.55078	no	n/a	n/a
914.0390625	n/a	233994	largeHSmallH	correct	congruent	0.60547	no	H	H
914.6445312	n/a	234149	responseLargeH	correct	n/a	0.60547	no	n/a	n/a
915.7070312	n/a	234421	largeHSmallT	correct	incongruent	0.46484	no	H	T
916.171875	n/a	234540	responseLargeH	correct	n/a	0.46484	no	n/a	n/a
917.2382812	n/a	234813	largeHSmallT	correct	incongruent	0.42578	no	H	T
917.6640625	n/a	234922	responseLargeH	correct	n/a	0.42578	no	n/a	n/a
918.7304688	n/a	235195	largeTSmallT	correct	congruent	0.70312	no	T	T
919.4335938	n/a	235375	responseLargeT	correct	n/a	0.70312	no	n/a	n/a
920.5039062	n/a	235649	largeHSmallT	correct	incongruent	0.37109	no	H	T
920.875	n/a	235744	responseLargeH	correct	n/a	0.37109	no	n/a	n/a
921.9453125	n/a	236018	largeHSmallT	correct	incongruent	0.40234	no	H	T
922.3476562	n/a	236121	responseLargeH	correct	n/a	0.40234	no	n/a	n/a
923.4140625	n/a	236394	largeHSmallH	correct	congruent	0.64062	no	H	H
924.0546875	n/a	236558	responseLargeH	correct	n/a	0.64062	no	n/a	n/a
925.1171875	n/a	236830	largeHSmallH	correct	congruent	0.46094	no	H	H
925.578125	n/a	236948	responseLargeH	correct	n/a	0.46094	no	n/a	n/a
926.640625	n/a	237220	largeHSmallT	correct	incongruent	0.71094	no	H	T
927.3515625	n/a	237402	responseLargeH	correct	n/a	0.71094	no	n/a	n/a
928.4257812	n/a	237677	largeTSmallH	correct	incongruent	0.59375	no	T	H
929.0195312	n/a	237829	responseLargeT	correct	n/a	0.59375	no	n/a	n/a
930.09375	n/a	238104	largeHSmallT	correct	incongruent	0.42578	no	H	T
930.5195312	n/a	238213	responseLargeH	correct	n/a	0.42578	no	n/a	n/a
931.5976562	n/a	238489	largeTSmallT	correct	congruent	0.55469	no	T	T
932.1523438	n/a	238631	responseLargeT	correct	n/a	0.55469	no	n/a	n/a
933.2265625	n/a	238906	largeHSmallT	correct	incongruent	0.54297	no	H	T
933.7695312	n/a	239045	responseLargeH	correct	n/a	0.54297	no	n/a	n/a
934.8398438	n/a	239319	largeHSmallH	correct	congruent	0.3125	no	H	H
935.1523438	n/a	239399	responseLargeH	correct	n/a	0.3125	no	n/a	n/a
936.2265625	n/a	239674	largeTSmallT	correct	congruent	0.36328	no	T	T
936.5898438	n/a	239767	responseLargeT	correct	n/a	0.36328	no	n/a	n/a
937.6640625	n/a	240042	largeTSmallH	error	incongruent	0.28906	no	T	H
937.953125	n/a	240116	responseLargeH	error	n/a	0.28906	no	n/a	n/a
939.0117188	n/a	240387	largeTSmallT	correct	congruent	0.47656	no	T	T
939.4882812	n/a	240509	responseLargeT	correct	n/a	0.47656	no	n/a	n/a
940.5585938	n/a	240783	largeHSmallH	correct	congruent	0.35938	no	H	H
940.9179688	n/a	240875	responseLargeH	correct	n/a	0.35938	no	n/a	n/a
941.9726562	n/a	241145	largeHSmallH	correct	congruent	0.46484	no	H	H
942.4375	n/a	241264	responseLargeH	correct	n/a	0.46484	no	n/a	n/a
943.5039062	n/a	241537	largeTSmallT	error	congruent	0.6875	no	T	T
944.1914062	n/a	241713	responseLargeH	error	n/a	0.6875	no	n/a	n/a
945.25	n/a	241984	largeHSmallT	error	incongruent	0.35547	no	H	T
945.6054688	n/a	242075	responseLargeT	error	n/a	0.35547	no	n/a	n/a
946.6796875	n/a	242350	largeTSmallH	correct	incongruent	0.63281	no	T	H
947.3125	n/a	242512	responseLargeT	correct	n/a	0.63281	no	n/a	n/a
948.3710938	n/a	242783	largeTSmallT	correct	congruent	0.36328	no	T	T
948.734375	n/a	242876	responseLargeT	correct	n/a	0.36328	no	n/a	n/a
949.8125	n/a	243152	largeTSmallT	correct	congruent	0.37891	no	T	T
950.1914062	n/a	243249	responseLargeT	correct	n/a	0.37891	no	n/a	n/a
951.265625	n/a	243524	largeHSmallT	correct	incongruent	0.60547	no	H	T
951.8710938	n/a	243679	responseLargeH	correct	n/a	0.60547	no	n/a	n/a
952.9296875	n/a	243950	largeTSmallH	correct	incongruent	0.55078	no	T	H
953.4804688	n/a	244091	responseLargeT	correct	n/a	0.55078	no	n/a	n/a
954.5585938	n/a	244367	largeHSmallH	correct	congruent	0.35938	no	H	H
954.9179688	n/a	244459	responseLargeH	correct	n/a	0.35938	no	n/a	n/a
955.984375	n/a	244732	largeTSmallT	correct	congruent	0.43359	no	T	T
956.4179688	n/a	244843	responseLargeT	correct	n/a	0.43359	no	n/a	n/a
957.4921875	n/a	245118	largeHSmallH	correct	congruent	0.27734	no	H	H
957.7695312	n/a	245189	responseLargeH	correct	n/a	0.27734	no	n/a	n/a
958.8398438	n/a	245463	largeHSmallH	correct	congruent	0.33984	no	H	H
959.1796875	n/a	245550	responseLargeH	correct	n/a	0.33984	no	n/a	n/a
960.25	n/a	245824	largeHSmallT	correct	incongruent	0.3125	no	H	T
960.5625	n/a	245904	responseLargeH	correct	n/a	0.3125	no	n/a	n/a
961.6367188	n/a	246179	largeHSmallT	correct	incongruent	0.37109	no	H	T
962.0078125	n/a	246274	responseLargeH	correct	n/a	0.37109	no	n/a	n/a
963.0664062	n/a	246545	largeHSmallT	correct	incongruent	0.26172	no	H	T
963.328125	n/a	246612	responseLargeH	correct	n/a	0.26172	no	n/a	n/a
964.3984375	n/a	246886	largeHSmallT	correct	incongruent	0.43359	no	H	T
964.8320312	n/a	246997	responseLargeH	correct	n/a	0.43359	no	n/a	n/a
965.890625	n/a	247268	largeTSmallH	error	incongruent	0.35156	no	T	H
966.2421875	n/a	247358	responseLargeH	error	n/a	0.35156	no	n/a	n/a
967.3164062	n/a	247633	largeHSmallH	correct	congruent	0.44531	no	H	H
967.7617188	n/a	247747	responseLargeH	correct	n/a	0.44531	no	n/a	n/a
968.8242188	n/a	248019	largeTSmallT	correct	congruent	0.69141	no	T	T
969.515625	n/a	248196	responseLargeT	correct	n/a	0.69141	no	n/a	n/a
970.5859375	n/a	248470	largeTSmallH	correct	incongruent	0.36719	no	T	H
970.953125	n/a	248564	responseLargeT	correct	n/a	0.36719	no	n/a	n/a
972.0234375	n/a	248838	largeTSmallT	correct	congruent	0.375	no	T	T
972.3984375	n/a	248934	responseLargeT	correct	n/a	0.375	no	n/a	n/a
973.4648438	n/a	249207	largeHSmallT	correct	incongruent	0.53906	no	H	T
974.0039062	n/a	249345	responseLargeH	correct	n/a	0.53906	no	n/a	n/a
975.0625	n/a	249616	largeHSmallT	correct	incongruent	0.41406	no	H	T
975.4765625	n/a	249722	responseLargeH	correct	n/a	0.41406	no	n/a	n/a
976.5429688	n/a	249995	largeTSmallT	correct	congruent	0.79297	no	T	T
977.3359375	n/a	250198	responseLargeT	correct	n/a	0.79297	no	n/a	n/a
978.4101562	n/a	250473	largeHSmallH	correct	congruent	0.5	no	H	H
978.9101562	n/a	250601	responseLargeH	correct	n/a	0.5	no	n/a	n/a
979.984375	n/a	250876	largeHSmallH	correct	congruent	0.66797	no	H	H
980.6523438	n/a	251047	responseLargeH	correct	n/a	0.66797	no	n/a	n/a
981.71875	n/a	251320	largeHSmallH	correct	congruent	0.57812	no	H	H
982.296875	n/a	251468	responseLargeH	correct	n/a	0.57812	no	n/a	n/a
983.3710938	n/a	251743	largeHSmallT	correct	incongruent	0.44922	no	H	T
983.8203125	n/a	251858	responseLargeH	correct	n/a	0.44922	no	n/a	n/a
988.1835938	n/a	252975	largeTSmallT	correct	congruent	1.2578	no	T	T
989.4414062	n/a	253297	responseSmallT	correct	n/a	1.2578	no	n/a	n/a
990.515625	n/a	253572	largeTSmallH	correct	incongruent	0.73047	no	T	H
991.2460938	n/a	253759	responseSmallH	correct	n/a	0.73047	no	n/a	n/a
992.3046875	n/a	254030	largeHSmallT	correct	incongruent	0.50391	no	H	T
992.8085938	n/a	254159	responseSmallT	correct	n/a	0.50391	no	n/a	n/a
993.8789062	n/a	254433	largeHSmallH	correct	congruent	0.38281	no	H	H
994.2617188	n/a	254531	responseSmallH	correct	n/a	0.38281	no	n/a	n/a
995.3320312	n/a	254805	largeHSmallH	correct	congruent	0.31641	no	H	H
995.6484375	n/a	254886	responseSmallH	correct	n/a	0.31641	no	n/a	n/a
996.71875	n/a	255160	largeTSmallT	correct	congruent	0.4375	no	T	T
997.15625	n/a	255272	responseSmallT	correct	n/a	0.4375	no	n/a	n/a
998.2226562	n/a	255545	largeHSmallH	correct	congruent	0.46094	no	H	H
998.6835938	n/a	255663	responseSmallH	correct	n/a	0.46094	no	n/a	n/a
999.7421875	n/a	255934	largeTSmallH	correct	incongruent	0.50781	no	T	H
1000.25	n/a	256064	responseSmallH	correct	n/a	0.50781	no	n/a	n/a
1001.316406	n/a	256337	largeTSmallT	correct	congruent	0.44531	no	T	T
1001.761719	n/a	256451	responseSmallT	correct	n/a	0.44531	no	n/a	n/a
1002.835938	n/a	256726	largeHSmallT	correct	incongruent	0.5625	no	H	T
1003.398438	n/a	256870	responseSmallT	correct	n/a	0.5625	no	n/a	n/a
1004.464844	n/a	257143	largeHSmallT	correct	incongruent	0.45703	no	H	T
1004.921875	n/a	257260	responseSmallT	correct	n/a	0.45703	no	n/a	n/a
1005.984375	n/a	257532	largeHSmallT	correct	incongruent	0.41406	no	H	T
1006.398438	n/a	257638	responseSmallT	correct	n/a	0.41406	no	n/a	n/a
1007.464844	n/a	257911	largeHSmallT	correct	incongruent	0.71094	no	H	T
1008.175781	n/a	258093	responseSmallT	correct	n/a	0.71094	no	n/a	n/a
1009.25	n/a	258368	largeHSmallT	correct	incongruent	0.52344	no	H	T
1009.773438	n/a	258502	responseSmallT	correct	n/a	0.52344	no	n/a	n/a
1010.835938	n/a	258774	largeTSmallT	correct	congruent	0.81641	no	T	T
1011.652344	n/a	258983	responseSmallT	correct	n/a	0.81641	no	n/a	n/a
1012.730469	n/a	259259	largeHSmallT	correct	incongruent	0.59766	no	H	T
1013.328125	n/a	259412	responseSmallT	correct	n/a	0.59766	no	n/a	n/a
1014.398438	n/a	259686	largeTSmallH	correct	incongruent	0.49219	no	T	H
1014.890625	n/a	259812	responseSmallH	correct	n/a	0.49219	no	n/a	n/a
1015.957031	n/a	260085	largeTSmallT	correct	congruent	0.59766	no	T	T
1016.554688	n/a	260238	responseSmallT	correct	n/a	0.59766	no	n/a	n/a
1017.625	n/a	260512	largeTSmallT	correct	congruent	0.39844	no	T	T
1018.023438	n/a	260614	responseSmallT	correct	n/a	0.39844	no	n/a	n/a
1019.089844	n/a	260887	largeTSmallH	error	incongruent	0.58594	no	T	H
1019.675781	n/a	261037	responseSmallT	error	n/a	0.58594	no	n/a	n/a
1020.742188	n/a	261310	largeHSmallH	correct	congruent	0.50391	no	H	H
1021.246094	n/a	261439	responseSmallH	correct	n/a	0.50391	no	n/a	n/a
1022.316406	n/a	261713	largeHSmallT	correct	incongruent	0.5625	no	H	T
1022.878906	n/a	261857	responseSmallT	correct	n/a	0.5625	no	n/a	n/a
1023.941406	n/a	262129	largeHSmallH	correct	congruent	0.55078	no	H	H
1024.492188	n/a	262270	responseSmallH	correct	n/a	0.55078	no	n/a	n/a
1025.570312	n/a	262546	largeHSmallH	correct	congruent	0.55078	no	H	H
1026.121094	n/a	262687	responseSmallH	correct	n/a	0.55078	no	n/a	n/a
1027.183594	n/a	262959	largeHSmallH	correct	congruent	0.51562	no	H	H
1027.699219	n/a	263091	responseSmallH	correct	n/a	0.51562	no	n/a	n/a
1028.769531	n/a	263365	largeHSmallH	correct	congruent	0.44922	no	H	H
1029.21875	n/a	263480	responseSmallH	correct	n/a	0.44922	no	n/a	n/a
1030.289062	n/a	263754	largeTSmallT	error	congruent	0.49609	no	T	T
1030.785156	n/a	263881	responseSmallH	error	n/a	0.49609	no	n/a	n/a
1031.851562	n/a	264154	largeHSmallT	correct	incongruent	0.91016	no	H	T
1032.761719	n/a	264387	responseSmallT	correct	n/a	0.91016	no	n/a	n/a
1033.835938	n/a	264662	largeTSmallH	correct	incongruent	0.76562	no	T	H
1034.601562	n/a	264858	responseSmallH	correct	n/a	0.76562	no	n/a	n/a
1035.675781	n/a	265133	largeTSmallT	correct	congruent	2.1953	yes	T	T
1037.871094	n/a	265695	responseSmallT	correct	n/a	2.1953	yes	n/a	n/a
1038.929688	n/a	265966	largeHSmallH	correct	congruent	0.50781	no	H	H
1039.4375	n/a	266096	responseSmallH	correct	n/a	0.50781	no	n/a	n/a
1040.515625	n/a	266372	largeTSmallH	correct	incongruent	0.50391	no	T	H
1041.019531	n/a	266501	responseSmallH	correct	n/a	0.50391	no	n/a	n/a
1042.089844	n/a	266775	largeTSmallH	correct	incongruent	0.69141	no	T	H
1042.78125	n/a	266952	responseSmallH	correct	n/a	0.69141	no	n/a	n/a
1043.847656	n/a	267225	largeTSmallH	correct	incongruent	0.46484	no	T	H
1044.3125	n/a	267344	responseSmallH	correct	n/a	0.46484	no	n/a	n/a
1045.382812	n/a	267618	largeHSmallT	correct	incongruent	0.61328	no	H	T
1045.996094	n/a	267775	responseSmallT	correct	n/a	0.61328	no	n/a	n/a
1047.0625	n/a	268048	largeTSmallH	correct	incongruent	0.53516	no	T	H
1047.597656	n/a	268185	responseSmallH	correct	n/a	0.53516	no	n/a	n/a
1048.664062	n/a	268458	largeTSmallT	correct	congruent	0.46484	no	T	T
1049.128906	n/a	268577	responseSmallT	correct	n/a	0.46484	no	n/a	n/a
1050.195312	n/a	268850	largeTSmallH	correct	incongruent	0.52734	no	T	H
1050.722656	n/a	268985	responseSmallH	correct	n/a	0.52734	no	n/a	n/a
1051.796875	n/a	269260	largeHSmallT	correct	incongruent	0.55859	no	H	T
1052.355469	n/a	269403	responseSmallT	correct	n/a	0.55859	no	n/a	n/a
1053.421875	n/a	269676	largeTSmallH	correct	incongruent	1.375	no	T	H
1054.796875	n/a	270028	responseSmallH	correct	n/a	1.375	no	n/a	n/a
1055.863281	n/a	270301	largeHSmallT	correct	incongruent	0.51953	no	H	T
1056.382812	n/a	270434	responseSmallT	correct	n/a	0.51953	no	n/a	n/a
1057.449219	n/a	270707	largeHSmallH	correct	congruent	0.85938	no	H	H
1058.308594	n/a	270927	responseSmallH	correct	n/a	0.85938	no	n/a	n/a
1059.367188	n/a	271198	largeTSmallT	correct	congruent	0.59766	no	T	T
1059.964844	n/a	271351	responseSmallT	correct	n/a	0.59766	no	n/a	n/a
1061.035156	n/a	271625	largeHSmallT	correct	incongruent	0.82031	no	H	T
1061.855469	n/a	271835	responseSmallT	correct	n/a	0.82031	no	n/a	n/a
1062.929688	n/a	272110	largeHSmallH	correct	congruent	0.60156	no	H	H
1063.53125	n/a	272264	responseSmallH	correct	n/a	0.60156	no	n/a	n/a
1064.59375	n/a	272536	largeTSmallT	correct	congruent	0.70703	no	T	T
1065.300781	n/a	272717	responseSmallT	correct	n/a	0.70703	no	n/a	n/a
1066.367188	n/a	272990	largeHSmallH	correct	congruent	0.74219	no	H	H
1067.109375	n/a	273180	responseSmallH	correct	n/a	0.74219	no	n/a	n/a
1068.183594	n/a	273455	largeHSmallH	correct	congruent	0.46484	no	H	H
1068.648438	n/a	273574	responseSmallH	correct	n/a	0.46484	no	n/a	n/a
1069.714844	n/a	273847	largeTSmallT	correct	congruent	0.64453	no	T	T
1070.359375	n/a	274012	responseSmallT	correct	n/a	0.64453	no	n/a	n/a
1071.421875	n/a	274284	largeHSmallT	correct	incongruent	0.72656	no	H	T
1072.148438	n/a	274470	responseSmallT	correct	n/a	0.72656	no	n/a	n/a
1073.222656	n/a	274745	largeHSmallT	correct	incongruent	0.58203	no	H	T
1073.804688	n/a	274894	responseSmallT	correct	n/a	0.58203	no	n/a	n/a
1074.875	n/a	275168	largeTSmallH	correct	incongruent	0.51172	no	T	H
1075.386719	n/a	275299	responseSmallH	correct	n/a	0.51172	no	n/a	n/a
1076.449219	n/a	275571	largeHSmallH	correct	congruent	0.47266	no	H	H
1076.921875	n/a	275692	responseSmallH	correct	n/a	0.47266	no	n/a	n/a
1077.996094	n/a	275967	largeHSmallT	correct	incongruent	0.57422	no	H	T
1078.570312	n/a	276114	responseSmallT	correct	n/a	0.57422	no	n/a	n/a
1079.636719	n/a	276387	largeHSmallH	correct	congruent	0.96484	no	H	H
1080.601562	n/a	276634	responseSmallH	correct	n/a	0.96484	no	n/a	n/a
1081.660156	n/a	276905	largeTSmallT	correct	congruent	1.3008	no	T	T
1082.960938	n/a	277238	responseSmallT	correct	n/a	1.3008	no	n/a	n/a
1084.035156	n/a	277513	largeTSmallT	correct	congruent	0.51562	no	T	T
1084.550781	n/a	277645	responseSmallT	correct	n/a	0.51562	no	n/a	n/a
1085.621094	n/a	277919	largeTSmallH	correct	incongruent	0.58984	no	T	H
1086.210938	n/a	278070	responseSmallH	correct	n/a	0.58984	no	n/a	n/a
1087.273438	n/a	278342	largeHSmallT	correct	incongruent	0.55078	no	H	T
1087.824219	n/a	278483	responseSmallT	correct	n/a	0.55078	no	n/a	n/a
1088.902344	n/a	278759	largeTSmallT	correct	congruent	0.51172	no	T	T
1089.414062	n/a	278890	responseSmallT	correct	n/a	0.51172	no	n/a	n/a
1090.476562	n/a	279162	largeTSmallT	correct	congruent	0.49219	no	T	T
1090.96875	n/a	279288	responseSmallT	correct	n/a	0.49219	no	n/a	n/a
1092.035156	n/a	279561	largeHSmallH	correct	congruent	0.64062	no	H	H
1092.675781	n/a	279725	responseSmallH	correct	n/a	0.64062	no	n/a	n/a
1093.753906	n/a	280001	largeHSmallH	correct	congruent	0.58203	no	H	H
1094.335938	n/a	280150	responseSmallH	correct	n/a	0.58203	no	n/a	n/a
1095.410156	n/a	280425	largeHSmallT	correct	incongruent	0.77734	no	H	T
1096.1875	n/a	280624	responseSmallT	correct	n/a	0.77734	no	n/a	n/a
1097.261719	n/a	280899	largeTSmallH	correct	incongruent	0.82422	no	T	H
1098.085938	n/a	281110	responseSmallH	correct	n/a	0.82422	no	n/a	n/a
1099.15625	n/a	281384	largeHSmallT	correct	incongruent	0.94922	no	H	T
1100.105469	n/a	281627	responseSmallT	correct	n/a	0.94922	no	n/a	n/a
1101.179688	n/a	281902	largeTSmallT	correct	congruent	0.44531	no	T	T
1101.625	n/a	282016	responseSmallT	correct	n/a	0.44531	no	n/a	n/a
1102.6875	n/a	282288	largeHSmallT	correct	incongruent	0.67188	no	H	T
1103.359375	n/a	282460	responseSmallT	correct	n/a	0.67188	no	n/a	n/a
1104.421875	n/a	282732	largeTSmallT	correct	congruent	0.42578	no	T	T
1104.847656	n/a	282841	responseSmallT	correct	n/a	0.42578	no	n/a	n/a
1105.914062	n/a	283114	largeHSmallH	correct	congruent	0.48828	no	H	H
1106.402344	n/a	283239	responseSmallH	correct	n/a	0.48828	no	n/a	n/a
1107.460938	n/a	283510	largeHSmallT	correct	incongruent	0.50781	no	H	T
1107.96875	n/a	283640	responseSmallT	correct	n/a	0.50781	no	n/a	n/a
1109.035156	n/a	283913	largeHSmallH	correct	congruent	0.52344	no	H	H
1109.558594	n/a	284047	responseSmallH	correct	n/a	0.52344	no	n/a	n/a
1110.632812	n/a	284322	largeTSmallT	correct	congruent	0.61719	no	T	T
1111.25	n/a	284480	responseSmallT	correct	n/a	0.61719	no	n/a	n/a
1112.316406	n/a	284753	largeTSmallT	correct	congruent	0.59766	no	T	T
1112.914062	n/a	284906	responseSmallT	correct	n/a	0.59766	no	n/a	n/a
1113.980469	n/a	285179	largeHSmallH	correct	congruent	0.48828	no	H	H
1114.46875	n/a	285304	responseSmallH	correct	n/a	0.48828	no	n/a	n/a
1115.527344	n/a	285575	largeHSmallT	correct	incongruent	0.46875	no	H	T
1115.996094	n/a	285695	responseSmallT	correct	n/a	0.46875	no	n/a	n/a
1117.0625	n/a	285968	largeTSmallT	correct	congruent	0.60156	no	T	T
1117.664062	n/a	286122	responseSmallT	correct	n/a	0.60156	no	n/a	n/a
1118.726562	n/a	286394	largeHSmallH	correct	congruent	0.76562	no	H	H
1119.492188	n/a	286590	responseSmallH	correct	n/a	0.76562	no	n/a	n/a
1120.554688	n/a	286862	largeTSmallT	correct	congruent	0.62891	no	T	T
1121.183594	n/a	287023	responseSmallT	correct	n/a	0.62891	no	n/a	n/a
1122.261719	n/a	287299	largeHSmallH	correct	congruent	0.70703	no	H	H
1122.96875	n/a	287480	responseSmallH	correct	n/a	0.70703	no	n/a	n/a
1124.035156	n/a	287753	largeTSmallH	correct	incongruent	0.73438	no	T	H
1124.769531	n/a	287941	responseSmallH	correct	n/a	0.73438	no	n/a	n/a
1125.847656	n/a	288217	largeHSmallH	correct	congruent	1.4492	no	H	H
1127.296875	n/a	288588	responseSmallH	correct	n/a	1.4492	no	n/a	n/a
1128.367188	n/a	288862	largeTSmallT	correct	congruent	0.64062	no	T	T
1129.007812	n/a	289026	responseSmallT	correct	n/a	0.64062	no	n/a	n/a
1130.074219	n/a	289299	largeHSmallH	correct	congruent	0.60938	no	H	H
1130.683594	n/a	289455	responseSmallH	correct	n/a	0.60938	no	n/a	n/a
1131.753906	n/a	289729	largeTSmallH	correct	incongruent	0.45703	no	T	H
1132.210938	n/a	289846	responseSmallH	correct	n/a	0.45703	no	n/a	n/a
1133.289062	n/a	290122	largeTSmallH	correct	incongruent	0.43359	no	T	H
1133.722656	n/a	290233	responseSmallH	correct	n/a	0.43359	no	n/a	n/a
1134.792969	n/a	290507	largeHSmallT	correct	incongruent	0.47656	no	H	T
1135.269531	n/a	290629	responseSmallT	correct	n/a	0.47656	no	n/a	n/a
1136.339844	n/a	290903	largeHSmallH	correct	congruent	0.63672	no	H	H
1136.976562	n/a	291066	responseSmallH	correct	n/a	0.63672	no	n/a	n/a
1138.046875	n/a	291340	largeTSmallH	correct	incongruent	0.47656	no	T	H
1138.523438	n/a	291462	responseSmallH	correct	n/a	0.47656	no	n/a	n/a
1139.582031	n/a	291733	largeHSmallT	correct	incongruent	0.46484	no	H	T
1140.046875	n/a	291852	responseSmallT	correct	n/a	0.46484	no	n/a	n/a
1141.113281	n/a	292125	largeHSmallH	correct	congruent	0.58203	no	H	H
1141.695312	n/a	292274	responseSmallH	correct	n/a	0.58203	no	n/a	n/a
1142.765625	n/a	292548	largeHSmallH	correct	congruent	0.63672	no	H	H
1143.402344	n/a	292711	responseSmallH	correct	n/a	0.63672	no	n/a	n/a
1144.472656	n/a	292985	largeTSmallT	error	congruent	0.85938	no	T	T
1145.332031	n/a	293205	responseSmallH	error	n/a	0.85938	no	n/a	n/a
1146.40625	n/a	293480	largeHSmallH	correct	congruent	0.55469	no	H	H
1146.960938	n/a	293622	responseSmallH	correct	n/a	0.55469	no	n/a	n/a
1148.019531	n/a	293893	largeTSmallH	correct	incongruent	0.45703	no	T	H
1148.476562	n/a	294010	responseSmallH	correct	n/a	0.45703	no	n/a	n/a
1149.539062	n/a	294282	largeTSmallH	correct	incongruent	0.51172	no	T	H
1150.050781	n/a	294413	responseSmallH	correct	n/a	0.51172	no	n/a	n/a
1151.113281	n/a	294685	largeHSmallT	correct	incongruent	0.65234	no	H	T
1151.765625	n/a	294852	responseSmallT	correct	n/a	0.65234	no	n/a	n/a
1152.832031	n/a	295125	largeHSmallT	correct	incongruent	0.75781	no	H	T
1153.589844	n/a	295319	responseSmallT	correct	n/a	0.75781	no	n/a	n/a
1154.660156	n/a	295593	largeHSmallT	correct	incongruent	0.64844	no	H	T
1155.308594	n/a	295759	responseSmallT	correct	n/a	0.64844	no	n/a	n/a
1156.367188	n/a	296030	largeTSmallT	correct	congruent	0.64062	no	T	T
1157.007812	n/a	296194	responseSmallT	correct	n/a	0.64062	no	n/a	n/a
1158.074219	n/a	296467	largeHSmallT	correct	incongruent	0.61719	no	H	T
1158.691406	n/a	296625	responseSmallT	correct	n/a	0.61719	no	n/a	n/a
1159.753906	n/a	296897	largeTSmallT	correct	congruent	0.71484	no	T	T
1160.46875	n/a	297080	responseSmallT	correct	n/a	0.71484	no	n/a	n/a
1161.539062	n/a	297354	largeTSmallH	correct	incongruent	0.625	no	T	H
1162.164062	n/a	297514	responseSmallH	correct	n/a	0.625	no	n/a	n/a
1163.234375	n/a	297788	largeTSmallT	correct	congruent	0.56641	no	T	T
1163.800781	n/a	297933	responseSmallT	correct	n/a	0.56641	no	n/a	n/a
1164.875	n/a	298208	largeTSmallT	correct	congruent	0.58203	no	T	T
1165.457031	n/a	298357	responseSmallT	correct	n/a	0.58203	no	n/a	n/a
1166.527344	n/a	298631	largeTSmallT	correct	congruent	0.44531	no	T	T
1166.972656	n/a	298745	responseSmallT	correct	n/a	0.44531	no	n/a	n/a
1168.046875	n/a	299020	largeHSmallT	correct	incongruent	0.53516	no	H	T
1168.582031	n/a	299157	responseSmallT	correct	n/a	0.53516	no	n/a	n/a
1169.648438	n/a	299430	largeTSmallT	correct	congruent	0.44141	no	T	T
1170.089844	n/a	299543	responseSmallT	correct	n/a	0.44141	no	n/a	n/a
1171.152344	n/a	299815	largeTSmallH	correct	incongruent	0.62891	no	T	H
1171.78125	n/a	299976	responseSmallH	correct	n/a	0.62891	no	n/a	n/a
1172.847656	n/a	300249	largeHSmallT	correct	incongruent	0.54297	no	H	T
1173.390625	n/a	300388	responseSmallT	correct	n/a	0.54297	no	n/a	n/a
1174.445312	n/a	300658	largeHSmallH	correct	congruent	0.54688	no	H	H
1174.992188	n/a	300798	responseSmallH	correct	n/a	0.54688	no	n/a	n/a
1176.058594	n/a	301071	largeHSmallH	correct	congruent	0.54688	no	H	H
1176.605469	n/a	301211	responseSmallH	correct	n/a	0.54688	no	n/a	n/a
1177.671875	n/a	301484	largeTSmallT	correct	congruent	0.60547	no	T	T
1178.277344	n/a	301639	responseSmallT	correct	n/a	0.60547	no	n/a	n/a
1179.351562	n/a	301914	largeTSmallT	correct	congruent	1.0195	no	T	T
1180.371094	n/a	302175	responseSmallT	correct	n/a	1.0195	no	n/a	n/a
1181.445312	n/a	302450	largeTSmallT	correct	congruent	0.55078	no	T	T
1181.996094	n/a	302591	responseSmallT	correct	n/a	0.55078	no	n/a	n/a
1183.058594	n/a	302863	largeHSmallH	correct	congruent	0.60938	no	H	H
1183.667969	n/a	303019	responseSmallH	correct	n/a	0.60938	no	n/a	n/a
1184.726562	n/a	303290	largeTSmallH	error	incongruent	0.58203	no	T	H
1185.308594	n/a	303439	responseSmallT	error	n/a	0.58203	no	n/a	n/a
1186.367188	n/a	303710	largeHSmallT	correct	incongruent	0.63672	no	H	T
1187.003906	n/a	303873	responseSmallT	correct	n/a	0.63672	no	n/a	n/a
1188.074219	n/a	304147	largeHSmallT	correct	incongruent	0.54297	no	H	T
1188.617188	n/a	304286	responseSmallT	correct	n/a	0.54297	no	n/a	n/a
1189.699219	n/a	304563	largeTSmallH	correct	incongruent	0.55859	no	T	H
1190.257812	n/a	304706	responseSmallH	correct	n/a	0.55859	no	n/a	n/a
1191.324219	n/a	304979	largeTSmallH	correct	incongruent	0.45703	no	T	H
1191.78125	n/a	305096	responseSmallH	correct	n/a	0.45703	no	n/a	n/a
1192.847656	n/a	305369	largeTSmallT	correct	congruent	0.59375	no	T	T
1193.441406	n/a	305521	responseSmallT	correct	n/a	0.59375	no	n/a	n/a
1194.511719	n/a	305795	largeHSmallH	correct	congruent	0.48047	no	H	H
1194.992188	n/a	305918	responseSmallH	correct	n/a	0.48047	no	n/a	n/a
1196.058594	n/a	306191	largeTSmallT	correct	congruent	0.65234	no	T	T
1196.710938	n/a	306358	responseSmallT	correct	n/a	0.65234	no	n/a	n/a
1197.78125	n/a	306632	largeHSmallH	correct	congruent	0.5625	no	H	H
1198.34375	n/a	306776	responseSmallH	correct	n/a	0.5625	no	n/a	n/a
1199.40625	n/a	307048	largeHSmallH	correct	congruent	0.51562	no	H	H
1199.921875	n/a	307180	responseSmallH	correct	n/a	0.51562	no	n/a	n/a
1200.992188	n/a	307454	largeTSmallH	correct	incongruent	0.49609	no	T	H
1201.488281	n/a	307581	responseSmallH	correct	n/a	0.49609	no	n/a	n/a
1202.566406	n/a	307857	largeTSmallH	correct	incongruent	0.42578	no	T	H
1202.992188	n/a	307966	responseSmallH	correct	n/a	0.42578	no	n/a	n/a
1204.058594	n/a	308239	largeHSmallT	correct	incongruent	0.58594	no	H	T
1204.644531	n/a	308389	responseSmallT	correct	n/a	0.58594	no	n/a	n/a
