onset	duration	sample	value	stimulus	response_type	response_time
49.50390625	n/a	12673	A	nontarget	n/a	n/a
51.14453125	n/a	13093	D	nontarget	n/a	n/a
52.734375	n/a	13500	D	nontarget	n/a	n/a
54.296875	n/a	13900	C	nontarget	n/a	n/a
55.87109375	n/a	14303	D	target	hit	742.1875
56.61328125	n/a	14493	rt	n/a	hit	742.1875
57.43359375	n/a	14703	C	target	hit	718.75
58.15234375	n/a	14887	rt	n/a	hit	718.75
59.00390625	n/a	15105	D	target	hit	726.5625
59.73046875	n/a	15291	rt	n/a	hit	726.5625
60.5625	n/a	15504	B	nontarget	n/a	n/a
62.125	n/a	15904	C	nontarget	n/a	n/a
63.69921875	n/a	16307	B	target	hit	792.9688
64.4921875	n/a	16510	rt	n/a	hit	792.9688
65.2578125	n/a	16706	B	nontarget	n/a	n/a
66.81640625	n/a	17105	C	nontarget	n/a	n/a
68.37890625	n/a	17505	C	nontarget	n/a	n/a
69.9375	n/a	17904	A	nontarget	n/a	n/a
71.49609375	n/a	18303	C	target	hit	519.5312
72.015625	n/a	18436	rt	n/a	hit	519.5312
73.0703125	n/a	18706	C	nontarget	n/a	n/a
74.64453125	n/a	19109	D	nontarget	n/a	n/a
76.21875	n/a	19512	A	nontarget	n/a	n/a
77.7890625	n/a	19914	B	nontarget	n/a	n/a
79.36328125	n/a	20317	A	target	miss	n/a
80.9375	n/a	20720	C	nontarget	miss	n/a
82.49609375	n/a	21119	C	nontarget	n/a	n/a
84.05859375	n/a	21519	A	nontarget	n/a	n/a
85.6171875	n/a	21918	C	target	hit	613.2812
86.23046875	n/a	22075	rt	n/a	hit	613.2812
87.1796875	n/a	22318	D	nontarget	n/a	n/a
88.73828125	n/a	22717	B	nontarget	n/a	n/a
90.296875	n/a	23116	D	target	hit	441.4062
90.73828125	n/a	23229	rt	n/a	hit	441.4062
91.87109375	n/a	23519	C	nontarget	n/a	n/a
93.44921875	n/a	23923	A	nontarget	n/a	n/a
95.015625	n/a	24324	A	nontarget	n/a	n/a
96.58984375	n/a	24727	D	nontarget	n/a	n/a
98.1640625	n/a	25130	B	nontarget	n/a	n/a
99.73828125	n/a	25533	C	nontarget	n/a	n/a
101.296875	n/a	25932	D	nontarget	n/a	n/a
102.8554688	n/a	26331	D	nontarget	n/a	n/a
104.4179688	n/a	26731	C	nontarget	n/a	n/a
105.9765625	n/a	27130	C	nontarget	n/a	n/a
107.5390625	n/a	27530	C	target	hit	652.3438
108.1914062	n/a	27697	rt	n/a	hit	652.3438
109.0976562	n/a	27929	C	target	hit	960.9375
110.0585938	n/a	28175	rt	n/a	hit	960.9375
110.65625	n/a	28328	D	nontarget	n/a	n/a
112.2148438	n/a	28727	D	nontarget	n/a	n/a
113.7773438	n/a	29127	B	nontarget	n/a	n/a
115.3359375	n/a	29526	C	nontarget	n/a	n/a
116.8945312	n/a	29925	C	nontarget	false_alarm	937.5
117.8320312	n/a	30165	rt	n/a	false_alarm	937.5
118.4570312	n/a	30325	C	target	hit	667.9688
119.125	n/a	30496	rt	n/a	hit	667.9688
120.015625	n/a	30724	D	nontarget	n/a	n/a
121.578125	n/a	31124	C	target	miss	n/a
123.1367188	n/a	31523	A	nontarget	miss	n/a
124.6992188	n/a	31923	D	nontarget	n/a	n/a
126.2578125	n/a	32322	D	nontarget	n/a	n/a
127.8164062	n/a	32721	C	nontarget	n/a	n/a
129.375	n/a	33120	A	nontarget	n/a	n/a
130.9375	n/a	33520	B	nontarget	n/a	n/a
132.4960938	n/a	33919	C	nontarget	false_alarm	828.125
133.3242188	n/a	34131	rt	n/a	false_alarm	828.125
134.0546875	n/a	34318	A	nontarget	n/a	n/a
135.6171875	n/a	34718	D	nontarget	n/a	n/a
137.1757812	n/a	35117	D	nontarget	n/a	n/a
138.734375	n/a	35516	D	target	miss	n/a
140.296875	n/a	35916	B	nontarget	false_alarm	207.0312
140.5039062	n/a	35969	rt	n/a	false_alarm	207.0312
141.8554688	n/a	36315	A	nontarget	n/a	n/a
143.4179688	n/a	36715	D	nontarget	n/a	n/a
144.9765625	n/a	37114	A	target	hit	460.9375
145.4375	n/a	37232	rt	n/a	hit	460.9375
146.5351562	n/a	37513	A	nontarget	n/a	n/a
148.0976562	n/a	37913	B	nontarget	n/a	n/a
149.65625	n/a	38312	D	nontarget	n/a	n/a
151.21875	n/a	38712	B	target	hit	738.2812
151.9570312	n/a	38901	rt	n/a	hit	738.2812
152.7773438	n/a	39111	B	nontarget	n/a	n/a
154.3359375	n/a	39510	C	nontarget	n/a	n/a
155.8945312	n/a	39909	A	nontarget	n/a	n/a
157.4570312	n/a	40309	C	target	hit	578.125
158.0351562	n/a	40457	rt	n/a	hit	578.125
159.015625	n/a	40708	D	nontarget	n/a	n/a
160.578125	n/a	41108	B	nontarget	n/a	n/a
162.1484375	n/a	41510	B	nontarget	n/a	n/a
163.7070312	n/a	41909	B	target	hit	1203.125
164.9101562	n/a	42217	rt	n/a	hit	1203.125
165.28125	n/a	42312	D	nontarget	n/a	n/a
166.8554688	n/a	42715	D	nontarget	n/a	n/a
168.4296875	n/a	43118	C	nontarget	n/a	n/a
170.0039062	n/a	43521	B	nontarget	n/a	n/a
171.5742188	n/a	43923	A	nontarget	n/a	n/a
173.1367188	n/a	44323	A	nontarget	n/a	n/a
174.6953125	n/a	44722	A	target	miss	n/a
176.2539062	n/a	45121	D	nontarget	miss	n/a
177.8164062	n/a	45521	A	target	hit	707.0312
178.5234375	n/a	45702	rt	n/a	hit	707.0312
179.375	n/a	45920	D	target	miss	n/a
180.9375	n/a	46320	C	nontarget	miss	n/a
182.4960938	n/a	46719	C	nontarget	n/a	n/a
184.0546875	n/a	47118	D	nontarget	n/a	n/a
185.6132812	n/a	47517	D	nontarget	n/a	n/a
187.1757812	n/a	47917	D	target	hit	492.1875
187.6679688	n/a	48043	rt	n/a	hit	492.1875
188.734375	n/a	48316	B	nontarget	n/a	n/a
190.2929688	n/a	48715	D	target	miss	n/a
191.8554688	n/a	49115	C	nontarget	miss	n/a
193.4140625	n/a	49514	C	nontarget	n/a	n/a
194.9765625	n/a	49914	B	nontarget	n/a	n/a
196.5351562	n/a	50313	D	nontarget	n/a	n/a
198.09375	n/a	50712	D	nontarget	false_alarm	746.0938
198.8398438	n/a	50903	rt	n/a	false_alarm	746.0938
199.65625	n/a	51112	D	target	hit	824.2188
200.4804688	n/a	51323	rt	n/a	hit	824.2188
201.2148438	n/a	51511	A	nontarget	n/a	n/a
202.7734375	n/a	51910	B	nontarget	n/a	n/a
204.3359375	n/a	52310	B	nontarget	n/a	n/a
205.8945312	n/a	52709	B	target	hit	1328.125
207.2226562	n/a	53049	rt	n/a	hit	1328.125
207.453125	n/a	53108	B	target	hit	851.5625
208.3046875	n/a	53326	rt	n/a	hit	851.5625
209.015625	n/a	53508	A	nontarget	n/a	n/a
210.5742188	n/a	53907	C	nontarget	n/a	n/a
212.1367188	n/a	54307	B	nontarget	n/a	n/a
213.6953125	n/a	54706	B	nontarget	n/a	n/a
215.2539062	n/a	55105	B	target	hit	546.875
215.8007812	n/a	55245	rt	n/a	hit	546.875
216.8125	n/a	55504	B	target	hit	371.0938
217.1835938	n/a	55599	rt	n/a	hit	371.0938
218.375	n/a	55904	D	nontarget	n/a	n/a
219.9335938	n/a	56303	A	nontarget	n/a	n/a
221.4960938	n/a	56703	C	nontarget	n/a	n/a
223.0546875	n/a	57102	C	nontarget	n/a	n/a
224.6132812	n/a	57501	B	nontarget	n/a	n/a
226.1757812	n/a	57901	D	nontarget	n/a	n/a
227.734375	n/a	58300	B	target	hit	699.2188
228.4335938	n/a	58479	rt	n/a	hit	699.2188
229.2929688	n/a	58699	A	nontarget	n/a	n/a
230.8554688	n/a	59099	A	nontarget	n/a	n/a
232.4140625	n/a	59498	D	nontarget	n/a	n/a
233.9765625	n/a	59898	D	nontarget	n/a	n/a
235.5351562	n/a	60297	B	nontarget	n/a	n/a
237.09375	n/a	60696	B	nontarget	n/a	n/a
238.65625	n/a	61096	C	nontarget	n/a	n/a
240.2148438	n/a	61495	A	nontarget	n/a	n/a
241.7734375	n/a	61894	B	nontarget	false_alarm	722.6562
242.4960938	n/a	62079	rt	n/a	false_alarm	722.6562
243.3359375	n/a	62294	A	target	hit	1085.9375
244.421875	n/a	62572	rt	n/a	hit	1085.9375
244.8945312	n/a	62693	B	target	hit	1187.5
246.0820312	n/a	62997	rt	n/a	hit	1187.5
246.453125	n/a	63092	D	nontarget	n/a	n/a
248.015625	n/a	63492	D	nontarget	n/a	n/a
249.5742188	n/a	63891	D	target	hit	589.8438
250.1640625	n/a	64042	rt	n/a	hit	589.8438
251.1367188	n/a	64291	C	nontarget	n/a	n/a
252.6953125	n/a	64690	D	target	hit	437.5
253.1328125	n/a	64802	rt	n/a	hit	437.5
254.2539062	n/a	65089	C	target	hit	429.6875
254.6835938	n/a	65199	rt	n/a	hit	429.6875
255.8125	n/a	65488	A	nontarget	n/a	n/a
257.375	n/a	65888	A	nontarget	n/a	n/a
258.9335938	n/a	66287	C	nontarget	n/a	n/a
260.4921875	n/a	66686	D	nontarget	n/a	n/a
262.0546875	n/a	67086	A	nontarget	n/a	n/a
263.6132812	n/a	67485	D	target	miss	n/a
265.1757812	n/a	67885	D	nontarget	miss	n/a
266.734375	n/a	68284	B	nontarget	n/a	n/a
268.2929688	n/a	68683	A	nontarget	n/a	n/a
269.8671875	n/a	69086	B	target	miss	n/a
271.4414062	n/a	69489	D	nontarget	miss	n/a
273.0117188	n/a	69891	C	nontarget	n/a	n/a
274.5859375	n/a	70294	B	nontarget	false_alarm	414.0625
275	n/a	70400	rt	n/a	false_alarm	414.0625
276.1601562	n/a	70697	B	nontarget	n/a	n/a
277.734375	n/a	71100	A	nontarget	n/a	n/a
279.2929688	n/a	71499	A	nontarget	n/a	n/a
280.8554688	n/a	71899	C	nontarget	n/a	n/a
282.4140625	n/a	72298	C	nontarget	n/a	n/a
283.9726562	n/a	72697	D	nontarget	n/a	n/a
285.5351562	n/a	73097	A	nontarget	n/a	n/a
287.09375	n/a	73496	C	nontarget	n/a	n/a
288.6523438	n/a	73895	B	nontarget	n/a	n/a
290.2109375	n/a	74294	C	target	hit	710.9375
290.921875	n/a	74476	rt	n/a	hit	710.9375
291.7734375	n/a	74694	A	nontarget	n/a	n/a
293.3320312	n/a	75093	C	target	miss	n/a
294.8945312	n/a	75493	D	nontarget	miss	n/a
296.453125	n/a	75892	A	nontarget	n/a	n/a
298.0117188	n/a	76291	A	nontarget	n/a	n/a
299.5742188	n/a	76691	D	nontarget	n/a	n/a
301.1328125	n/a	77090	D	nontarget	false_alarm	691.4062
301.8242188	n/a	77267	rt	n/a	false_alarm	691.4062
302.6914062	n/a	77489	A	nontarget	n/a	n/a
304.2539062	n/a	77889	C	nontarget	n/a	n/a
305.8125	n/a	78288	B	nontarget	n/a	n/a
307.3710938	n/a	78687	D	nontarget	n/a	n/a
308.9335938	n/a	79087	B	target	hit	386.7188
309.3203125	n/a	79186	rt	n/a	hit	386.7188
310.4921875	n/a	79486	C	nontarget	n/a	n/a
312.0507812	n/a	79885	D	nontarget	n/a	n/a
313.6132812	n/a	80285	A	nontarget	n/a	n/a
315.171875	n/a	80684	B	nontarget	n/a	n/a
316.7304688	n/a	81083	C	nontarget	n/a	n/a
318.2929688	n/a	81483	A	nontarget	n/a	n/a
319.8515625	n/a	81882	D	nontarget	n/a	n/a
321.4101562	n/a	82281	D	nontarget	n/a	n/a
322.9726562	n/a	82681	A	nontarget	n/a	n/a
324.53125	n/a	83080	C	nontarget	n/a	n/a
326.09375	n/a	83480	C	nontarget	n/a	n/a
327.6523438	n/a	83879	B	nontarget	n/a	n/a
329.2109375	n/a	84278	D	nontarget	n/a	n/a
330.7734375	n/a	84678	A	nontarget	n/a	n/a
332.34375	n/a	85080	B	nontarget	n/a	n/a
333.90625	n/a	85480	B	nontarget	n/a	n/a
335.4648438	n/a	85879	C	nontarget	n/a	n/a
337.0234375	n/a	86278	B	target	hit	789.0625
337.8125	n/a	86480	rt	n/a	hit	789.0625
338.5976562	n/a	86681	B	nontarget	n/a	n/a
340.171875	n/a	87084	C	nontarget	n/a	n/a
341.7460938	n/a	87487	C	nontarget	n/a	n/a
343.3203125	n/a	87890	D	nontarget	n/a	n/a
344.890625	n/a	88292	D	nontarget	n/a	n/a
346.453125	n/a	88692	D	target	hit	625
347.078125	n/a	88852	rt	n/a	hit	625
348.0117188	n/a	89091	D	target	hit	710.9375
348.7226562	n/a	89273	rt	n/a	hit	710.9375
349.5742188	n/a	89491	D	target	hit	824.2188
350.3984375	n/a	89702	rt	n/a	hit	824.2188
351.1328125	n/a	89890	C	nontarget	n/a	n/a
352.6914062	n/a	90289	D	target	hit	636.7188
353.328125	n/a	90452	rt	n/a	hit	636.7188
354.25	n/a	90688	A	nontarget	n/a	n/a
355.8125	n/a	91088	B	nontarget	n/a	n/a
357.3710938	n/a	91487	A	target	miss	n/a
358.9296875	n/a	91886	A	nontarget	miss	n/a
360.4921875	n/a	92286	C	nontarget	n/a	n/a
362.0507812	n/a	92685	A	target	miss	n/a
363.6132812	n/a	93085	A	nontarget	miss	n/a
365.171875	n/a	93484	B	nontarget	n/a	n/a
366.7304688	n/a	93883	D	nontarget	n/a	n/a
368.2890625	n/a	94282	C	nontarget	n/a	n/a
369.8515625	n/a	94682	B	nontarget	n/a	n/a
371.4101562	n/a	95081	D	nontarget	n/a	n/a
372.96875	n/a	95480	A	nontarget	n/a	n/a
374.53125	n/a	95880	A	nontarget	n/a	n/a
376.0898438	n/a	96279	C	nontarget	n/a	n/a
377.6523438	n/a	96679	B	nontarget	n/a	n/a
379.2109375	n/a	97078	A	nontarget	false_alarm	699.2188
379.9101562	n/a	97257	rt	n/a	false_alarm	699.2188
380.7695312	n/a	97477	D	nontarget	n/a	n/a
382.3320312	n/a	97877	B	nontarget	false_alarm	968.75
383.3007812	n/a	98125	rt	n/a	false_alarm	968.75
383.890625	n/a	98276	C	nontarget	n/a	n/a
385.4492188	n/a	98675	A	nontarget	n/a	n/a
387.0117188	n/a	99075	C	target	miss	n/a
388.5703125	n/a	99474	D	nontarget	miss	n/a
390.1328125	n/a	99874	A	nontarget	n/a	n/a
391.6914062	n/a	100273	D	target	hit	589.8438
392.28125	n/a	100424	rt	n/a	hit	589.8438
393.25	n/a	100672	B	nontarget	n/a	n/a
394.8242188	n/a	101075	A	nontarget	false_alarm	492.1875
395.3164062	n/a	101201	rt	n/a	false_alarm	492.1875
396.3984375	n/a	101478	A	nontarget	n/a	n/a
397.96875	n/a	101880	C	nontarget	n/a	n/a
399.5429688	n/a	102283	C	nontarget	n/a	n/a
401.1171875	n/a	102686	B	nontarget	n/a	n/a
402.6914062	n/a	103089	A	nontarget	n/a	n/a
404.25	n/a	103488	A	nontarget	n/a	n/a
405.8125	n/a	103888	C	nontarget	n/a	n/a
407.3710938	n/a	104287	D	nontarget	n/a	n/a
408.9296875	n/a	104686	A	nontarget	n/a	n/a
410.4921875	n/a	105086	C	nontarget	n/a	n/a
412.0507812	n/a	105485	D	nontarget	n/a	n/a
413.609375	n/a	105884	B	nontarget	n/a	n/a
415.171875	n/a	106284	A	nontarget	n/a	n/a
416.7304688	n/a	106683	B	target	hit	1296.875
418.0273438	n/a	107015	rt	n/a	hit	1296.875
418.2890625	n/a	107082	D	nontarget	n/a	n/a
419.8515625	n/a	107482	A	nontarget	n/a	n/a
421.4101562	n/a	107881	A	nontarget	n/a	n/a
422.96875	n/a	108280	B	nontarget	n/a	n/a
424.53125	n/a	108680	A	target	miss	n/a
426.0898438	n/a	109079	D	nontarget	miss	n/a
427.6523438	n/a	109479	C	nontarget	n/a	n/a
429.2109375	n/a	109878	B	nontarget	n/a	n/a
430.7695312	n/a	110277	D	nontarget	n/a	n/a
432.3320312	n/a	110677	B	target	miss	n/a
433.890625	n/a	111076	B	nontarget	miss	n/a
435.4492188	n/a	111475	A	nontarget	n/a	n/a
437.0078125	n/a	111874	D	nontarget	n/a	n/a
438.5703125	n/a	112274	C	nontarget	n/a	n/a
440.1328125	n/a	112674	B	nontarget	n/a	n/a
441.6914062	n/a	113073	C	target	miss	n/a
443.25	n/a	113472	D	nontarget	miss	n/a
444.8085938	n/a	113871	D	nontarget	n/a	n/a
446.3710938	n/a	114271	D	target	hit	609.375
446.9804688	n/a	114427	rt	n/a	hit	609.375
447.9296875	n/a	114670	C	nontarget	n/a	n/a
449.4921875	n/a	115070	B	nontarget	n/a	n/a
451.0507812	n/a	115469	B	nontarget	n/a	n/a
452.609375	n/a	115868	B	target	hit	425.7812
453.0351562	n/a	115977	rt	n/a	hit	425.7812
454.1679688	n/a	116267	A	nontarget	n/a	n/a
455.7304688	n/a	116667	B	target	miss	n/a
457.2890625	n/a	117066	D	nontarget	miss	n/a
458.8476562	n/a	117465	C	nontarget	n/a	n/a
460.4101562	n/a	117865	C	nontarget	n/a	n/a
461.96875	n/a	118264	D	nontarget	n/a	n/a
463.5273438	n/a	118663	D	nontarget	n/a	n/a
465.0898438	n/a	119063	B	nontarget	n/a	n/a
466.6484375	n/a	119462	C	nontarget	n/a	n/a
468.2070312	n/a	119861	B	target	miss	n/a
469.7695312	n/a	120261	B	nontarget	miss	n/a
471.328125	n/a	120660	A	nontarget	n/a	n/a
472.8867188	n/a	121059	B	target	hit	421.875
473.3085938	n/a	121167	rt	n/a	hit	421.875
474.4609375	n/a	121462	C	nontarget	n/a	n/a
476.0234375	n/a	121862	B	target	hit	453.125
476.4765625	n/a	121978	rt	n/a	hit	453.125
477.5820312	n/a	122261	D	nontarget	n/a	n/a
479.15625	n/a	122664	A	nontarget	n/a	n/a
480.7265625	n/a	123066	C	nontarget	n/a	n/a
482.3007812	n/a	123469	A	target	hit	429.6875
482.7304688	n/a	123579	rt	n/a	hit	429.6875
483.875	n/a	123872	C	target	hit	761.7188
484.6367188	n/a	124067	rt	n/a	hit	761.7188
485.4335938	n/a	124271	D	nontarget	n/a	n/a
