onset	duration	sample	value	response_type	congruence	response_time	response_out_of_range	largeletter	smallletter
1.812011719	n/a	463.875	largeTSmallT	correct	congruent	0.59424	no	T	T
2.40625	n/a	616	responseLargeT	correct	n/a	0.59424	no	n/a	n/a
3.478515625	n/a	890.5	largeTSmallH	error	incongruent	0.54199	no	T	H
4.020507812	n/a	1029.25	responseLargeH	error	n/a	0.54199	no	n/a	n/a
5.078125	n/a	1300	largeTSmallH	correct	incongruent	0.72412	no	T	H
5.802246094	n/a	1485.375	responseLargeT	correct	n/a	0.72412	no	n/a	n/a
6.864746094	n/a	1757.375	largeTSmallH	correct	incongruent	0.57666	no	T	H
7.44140625	n/a	1905	responseLargeT	correct	n/a	0.57666	no	n/a	n/a
8.518066406	n/a	2180.625	largeTSmallT	correct	congruent	0.53613	no	T	T
9.054199219	n/a	2317.875	responseLargeT	correct	n/a	0.53613	no	n/a	n/a
10.11816406	n/a	2590.25	largeTSmallH	correct	incongruent	0.46533	no	T	H
10.58349609	n/a	2709.375	responseLargeT	correct	n/a	0.46533	no	n/a	n/a
11.65136719	n/a	2982.75	largeHSmallH	correct	congruent	0.81738	no	H	H
12.46875	n/a	3192	responseLargeH	correct	n/a	0.81738	no	n/a	n/a
13.54492188	n/a	3467.5	largeTSmallT	correct	congruent	0.75342	no	T	T
14.29833984	n/a	3660.375	responseLargeT	correct	n/a	0.75342	no	n/a	n/a
15.37158203	n/a	3935.125	largeTSmallT	correct	congruent	0.48242	no	T	T
15.85400391	n/a	4058.625	responseLargeT	correct	n/a	0.48242	no	n/a	n/a
16.93164062	n/a	4334.5	largeTSmallT	correct	congruent	0.45312	no	T	T
17.38476562	n/a	4450.5	responseLargeT	correct	n/a	0.45312	no	n/a	n/a
18.45166016	n/a	4723.625	largeTSmallH	correct	incongruent	0.76807	no	T	H
19.21972656	n/a	4920.25	responseLargeT	correct	n/a	0.76807	no	n/a	n/a
20.29150391	n/a	5194.625	largeHSmallT	correct	incongruent	0.67676	no	H	T
20.96826172	n/a	5367.875	responseLargeH	correct	n/a	0.67676	no	n/a	n/a
22.03808594	n/a	5641.75	largeHSmallT	correct	incongruent	0.90234	no	H	T
22.94042969	n/a	5872.75	responseLargeH	correct	n/a	0.90234	no	n/a	n/a
24.01123047	n/a	6146.875	largeHSmallH	correct	congruent	0.53662	no	H	H
24.54785156	n/a	6284.25	responseLargeH	correct	n/a	0.53662	no	n/a	n/a
25.61132812	n/a	6556.5	largeTSmallT	correct	congruent	0.60645	no	T	T
26.21777344	n/a	6711.75	responseLargeT	correct	n/a	0.60645	no	n/a	n/a
27.27783203	n/a	6983.125	largeTSmallT	correct	congruent	0.44092	no	T	T
27.71875	n/a	7096	responseLargeT	correct	n/a	0.44092	no	n/a	n/a
28.78466797	n/a	7368.875	largeHSmallH	correct	congruent	0.50098	no	H	H
29.28564453	n/a	7497.125	responseLargeH	correct	n/a	0.50098	no	n/a	n/a
30.35791016	n/a	7771.625	largeTSmallT	correct	congruent	0.61035	no	T	T
30.96826172	n/a	7927.875	responseLargeT	correct	n/a	0.61035	no	n/a	n/a
32.03759766	n/a	8201.625	largeHSmallH	correct	congruent	0.48535	no	H	H
32.52294922	n/a	8325.875	responseLargeH	correct	n/a	0.48535	no	n/a	n/a
33.58447266	n/a	8597.625	largeHSmallT	correct	incongruent	0.81006	no	H	T
34.39453125	n/a	8805	responseLargeH	correct	n/a	0.81006	no	n/a	n/a
35.45117188	n/a	9075.5	largeHSmallT	correct	incongruent	0.53271	no	H	T
35.98388672	n/a	9211.875	responseLargeH	correct	n/a	0.53271	no	n/a	n/a
37.05078125	n/a	9485	largeTSmallT	correct	congruent	0.67871	no	T	T
37.72949219	n/a	9658.75	responseLargeT	correct	n/a	0.67871	no	n/a	n/a
38.79736328	n/a	9932.125	largeHSmallH	correct	congruent	0.65039	no	H	H
39.44775391	n/a	10098.625	responseLargeH	correct	n/a	0.65039	no	n/a	n/a
40.51757812	n/a	10372.5	largeHSmallH	correct	congruent	0.51953	no	H	H
41.03710938	n/a	10505.5	responseLargeH	correct	n/a	0.51953	no	n/a	n/a
42.10449219	n/a	10778.75	largeHSmallT	error	incongruent	0.5874	no	H	T
42.69189453	n/a	10929.125	responseLargeT	error	n/a	0.5874	no	n/a	n/a
43.7578125	n/a	11202	largeHSmallH	correct	congruent	0.58643	no	H	H
44.34423828	n/a	11352.125	responseLargeH	correct	n/a	0.58643	no	n/a	n/a
45.41064453	n/a	11625.125	largeHSmallH	correct	congruent	0.43066	no	H	H
45.84130859	n/a	11735.375	responseLargeH	correct	n/a	0.43066	no	n/a	n/a
46.90429688	n/a	12007.5	largeHSmallT	correct	incongruent	0.68701	no	H	T
47.59130859	n/a	12183.375	responseLargeH	correct	n/a	0.68701	no	n/a	n/a
48.65087891	n/a	12454.625	largeHSmallH	correct	congruent	0.52588	no	H	H
49.17675781	n/a	12589.25	responseLargeH	correct	n/a	0.52588	no	n/a	n/a
50.25097656	n/a	12864.25	largeHSmallH	correct	congruent	0.54102	no	H	H
50.79199219	n/a	13002.75	responseLargeH	correct	n/a	0.54102	no	n/a	n/a
51.85058594	n/a	13273.75	largeTSmallH	correct	incongruent	0.52344	no	T	H
52.37402344	n/a	13407.75	responseLargeT	correct	n/a	0.52344	no	n/a	n/a
53.4375	n/a	13680	largeTSmallH	correct	incongruent	0.46582	no	T	H
53.90332031	n/a	13799.25	responseLargeT	correct	n/a	0.46582	no	n/a	n/a
54.97070312	n/a	14072.5	largeHSmallH	correct	congruent	0.51953	no	H	H
55.49023438	n/a	14205.5	responseLargeH	correct	n/a	0.51953	no	n/a	n/a
56.55712891	n/a	14478.625	largeTSmallH	correct	incongruent	0.56787	no	T	H
57.125	n/a	14624	responseLargeT	correct	n/a	0.56787	no	n/a	n/a
58.18408203	n/a	14895.125	largeTSmallH	correct	incongruent	0.55469	no	T	H
58.73876953	n/a	15037.125	responseLargeT	correct	n/a	0.55469	no	n/a	n/a
59.81103516	n/a	15311.625	largeTSmallH	correct	incongruent	0.55615	no	T	H
60.3671875	n/a	15454	responseLargeT	correct	n/a	0.55615	no	n/a	n/a
61.42431641	n/a	15724.625	largeTSmallH	correct	incongruent	0.49805	no	T	H
61.92236328	n/a	15852.125	responseLargeT	correct	n/a	0.49805	no	n/a	n/a
62.99707031	n/a	16127.25	largeTSmallT	correct	congruent	0.5083	no	T	T
63.50537109	n/a	16257.375	responseLargeT	correct	n/a	0.5083	no	n/a	n/a
64.5703125	n/a	16530	largeTSmallT	correct	congruent	0.54297	no	T	T
65.11328125	n/a	16669	responseLargeT	correct	n/a	0.54297	no	n/a	n/a
66.17041016	n/a	16939.625	largeHSmallH	correct	congruent	0.42334	no	H	H
66.59375	n/a	17048	responseLargeH	correct	n/a	0.42334	no	n/a	n/a
67.65039062	n/a	17318.5	largeHSmallH	correct	congruent	0.42139	no	H	H
68.07177734	n/a	17426.375	responseLargeH	correct	n/a	0.42139	no	n/a	n/a
69.14355469	n/a	17700.75	largeTSmallH	correct	incongruent	0.39258	no	T	H
69.53613281	n/a	17801.25	responseLargeT	correct	n/a	0.39258	no	n/a	n/a
70.61035156	n/a	18076.25	largeTSmallH	correct	incongruent	0.57129	no	T	H
71.18164062	n/a	18222.5	responseLargeT	correct	n/a	0.57129	no	n/a	n/a
72.23681641	n/a	18492.625	largeHSmallT	correct	incongruent	0.43848	no	H	T
72.67529297	n/a	18604.875	responseLargeH	correct	n/a	0.43848	no	n/a	n/a
73.74365234	n/a	18878.375	largeTSmallH	correct	incongruent	0.50244	no	T	H
74.24609375	n/a	19007	responseLargeT	correct	n/a	0.50244	no	n/a	n/a
75.31689453	n/a	19281.125	largeTSmallT	correct	congruent	0.48975	no	T	T
75.80664062	n/a	19406.5	responseLargeT	correct	n/a	0.48975	no	n/a	n/a
76.87695312	n/a	19680.5	largeTSmallT	correct	congruent	0.52441	no	T	T
77.40136719	n/a	19814.75	responseLargeT	correct	n/a	0.52441	no	n/a	n/a
78.46386719	n/a	20086.75	largeHSmallH	correct	congruent	0.45752	no	H	H
78.92138672	n/a	20203.875	responseLargeH	correct	n/a	0.45752	no	n/a	n/a
79.99658203	n/a	20479.125	largeTSmallT	correct	congruent	0.52881	no	T	T
80.52539062	n/a	20614.5	responseLargeT	correct	n/a	0.52881	no	n/a	n/a
81.58349609	n/a	20885.375	largeHSmallT	correct	incongruent	0.49805	no	H	T
82.08154297	n/a	21012.875	responseLargeH	correct	n/a	0.49805	no	n/a	n/a
83.14355469	n/a	21284.75	largeTSmallT	correct	congruent	0.45459	no	T	T
83.59814453	n/a	21401.125	responseLargeT	correct	n/a	0.45459	no	n/a	n/a
84.66308594	n/a	21673.75	largeTSmallH	error	incongruent	0.47656	no	T	H
85.13964844	n/a	21795.75	responseLargeH	error	n/a	0.47656	no	n/a	n/a
86.20996094	n/a	22069.75	largeTSmallT	correct	congruent	0.63184	no	T	T
86.84179688	n/a	22231.5	responseLargeT	correct	n/a	0.63184	no	n/a	n/a
87.90332031	n/a	22503.25	largeHSmallT	correct	incongruent	0.47314	no	H	T
88.37646484	n/a	22624.375	responseLargeH	correct	n/a	0.47314	no	n/a	n/a
89.44970703	n/a	22899.125	largeTSmallT	correct	congruent	0.53662	no	T	T
89.98632812	n/a	23036.5	responseLargeT	correct	n/a	0.53662	no	n/a	n/a
91.04980469	n/a	23308.75	largeHSmallT	correct	incongruent	0.54639	no	H	T
91.59619141	n/a	23448.625	responseLargeH	correct	n/a	0.54639	no	n/a	n/a
92.66308594	n/a	23721.75	largeTSmallH	correct	incongruent	0.57861	no	T	H
93.24169922	n/a	23869.875	responseLargeT	correct	n/a	0.57861	no	n/a	n/a
94.31640625	n/a	24145	largeHSmallT	correct	incongruent	0.53662	no	H	T
94.85302734	n/a	24282.375	responseLargeH	correct	n/a	0.53662	no	n/a	n/a
95.9296875	n/a	24558	largeHSmallT	correct	incongruent	0.48389	no	H	T
96.41357422	n/a	24681.875	responseLargeH	correct	n/a	0.48389	no	n/a	n/a
97.4765625	n/a	24954	largeTSmallH	correct	incongruent	0.63281	no	T	H
98.109375	n/a	25116	responseLargeT	correct	n/a	0.63281	no	n/a	n/a
99.18310547	n/a	25390.875	largeTSmallT	correct	congruent	0.56201	no	T	T
99.74511719	n/a	25534.75	responseLargeT	correct	n/a	0.56201	no	n/a	n/a
100.8095703	n/a	25807.25	largeTSmallH	error	incongruent	0.53271	no	T	H
101.3422852	n/a	25943.625	responseLargeH	error	n/a	0.53271	no	n/a	n/a
102.409668	n/a	26216.875	largeHSmallH	correct	congruent	0.51611	no	H	H
102.9257812	n/a	26349	responseLargeH	correct	n/a	0.51611	no	n/a	n/a
103.9829102	n/a	26619.625	largeTSmallH	correct	incongruent	0.51953	no	T	H
104.5024414	n/a	26752.625	responseLargeT	correct	n/a	0.51953	no	n/a	n/a
105.5693359	n/a	27025.75	largeHSmallT	correct	incongruent	0.82324	no	H	T
106.3925781	n/a	27236.5	responseLargeH	correct	n/a	0.82324	no	n/a	n/a
107.4628906	n/a	27510.5	largeHSmallH	correct	congruent	0.49902	no	H	H
107.9619141	n/a	27638.25	responseLargeH	correct	n/a	0.49902	no	n/a	n/a
109.0224609	n/a	27909.75	largeHSmallT	correct	incongruent	0.60352	no	H	T
109.6259766	n/a	28064.25	responseLargeH	correct	n/a	0.60352	no	n/a	n/a
110.7026367	n/a	28339.875	largeHSmallT	correct	incongruent	0.54443	no	H	T
111.2470703	n/a	28479.25	responseLargeH	correct	n/a	0.54443	no	n/a	n/a
112.315918	n/a	28752.875	largeHSmallT	correct	incongruent	0.51416	no	H	T
112.8300781	n/a	28884.5	responseLargeH	correct	n/a	0.51416	no	n/a	n/a
113.8891602	n/a	29155.625	largeHSmallH	correct	congruent	0.47363	no	H	H
114.362793	n/a	29276.875	responseLargeH	correct	n/a	0.47363	no	n/a	n/a
115.4228516	n/a	29548.25	largeHSmallT	correct	incongruent	0.54004	no	H	T
115.9628906	n/a	29686.5	responseLargeH	correct	n/a	0.54004	no	n/a	n/a
117.0361328	n/a	29961.25	largeHSmallT	correct	incongruent	0.4585	no	H	T
117.4946289	n/a	30078.625	responseLargeH	correct	n/a	0.4585	no	n/a	n/a
118.5556641	n/a	30350.25	largeTSmallT	correct	congruent	0.4707	no	T	T
119.0263672	n/a	30470.75	responseLargeT	correct	n/a	0.4707	no	n/a	n/a
120.0893555	n/a	30742.875	largeTSmallT	correct	congruent	0.52246	no	T	T
120.6118164	n/a	30876.625	responseLargeT	correct	n/a	0.52246	no	n/a	n/a
121.6757812	n/a	31149	largeHSmallT	correct	incongruent	0.73828	no	H	T
122.4140625	n/a	31338	responseLargeH	correct	n/a	0.73828	no	n/a	n/a
123.4892578	n/a	31613.25	largeHSmallH	correct	congruent	0.42236	no	H	H
123.9116211	n/a	31721.375	responseLargeH	correct	n/a	0.42236	no	n/a	n/a
124.9824219	n/a	31995.5	largeTSmallH	correct	incongruent	0.63574	no	T	H
125.6181641	n/a	32158.25	responseLargeT	correct	n/a	0.63574	no	n/a	n/a
126.6889648	n/a	32432.375	largeHSmallH	correct	congruent	0.56689	no	H	H
127.2558594	n/a	32577.5	responseLargeH	correct	n/a	0.56689	no	n/a	n/a
130.8354492	n/a	33493.875	largeTSmallH	correct	incongruent	0.65039	no	T	H
131.4858398	n/a	33660.375	responseSmallH	correct	n/a	0.65039	no	n/a	n/a
132.5556641	n/a	33934.25	largeTSmallT	correct	congruent	0.60303	no	T	T
133.1586914	n/a	34088.625	responseSmallT	correct	n/a	0.60303	no	n/a	n/a
134.222168	n/a	34360.875	largeTSmallT	correct	congruent	0.56934	no	T	T
134.7915039	n/a	34506.625	responseSmallT	correct	n/a	0.56934	no	n/a	n/a
135.8623047	n/a	34780.75	largeHSmallH	correct	congruent	0.56836	no	H	H
136.4306641	n/a	34926.25	responseSmallH	correct	n/a	0.56836	no	n/a	n/a
137.5019531	n/a	35200.5	largeTSmallH	correct	incongruent	0.74658	no	T	H
138.2485352	n/a	35391.625	responseSmallH	correct	n/a	0.74658	no	n/a	n/a
139.315918	n/a	35664.875	largeTSmallH	correct	incongruent	0.52295	no	T	H
139.8388672	n/a	35798.75	responseSmallH	correct	n/a	0.52295	no	n/a	n/a
140.9155273	n/a	36074.375	largeHSmallH	correct	congruent	0.53174	no	H	H
141.4472656	n/a	36210.5	responseSmallH	correct	n/a	0.53174	no	n/a	n/a
142.5151367	n/a	36483.875	largeTSmallT	correct	congruent	0.58789	no	T	T
143.1030273	n/a	36634.375	responseSmallT	correct	n/a	0.58789	no	n/a	n/a
144.168457	n/a	36907.125	largeTSmallH	correct	incongruent	0.63525	no	T	H
144.8037109	n/a	37069.75	responseSmallH	correct	n/a	0.63525	no	n/a	n/a
145.8754883	n/a	37344.125	largeHSmallT	correct	incongruent	0.57324	no	H	T
146.4487305	n/a	37490.875	responseSmallT	correct	n/a	0.57324	no	n/a	n/a
147.515625	n/a	37764	largeHSmallT	correct	incongruent	0.62744	no	H	T
148.1430664	n/a	37924.625	responseSmallT	correct	n/a	0.62744	no	n/a	n/a
149.2084961	n/a	38197.375	largeTSmallH	correct	incongruent	0.64453	no	T	H
149.8530273	n/a	38362.375	responseSmallH	correct	n/a	0.64453	no	n/a	n/a
150.9150391	n/a	38634.25	largeHSmallT	correct	incongruent	0.64404	no	H	T
151.559082	n/a	38799.125	responseSmallT	correct	n/a	0.64404	no	n/a	n/a
152.6225586	n/a	39071.375	largeHSmallT	correct	incongruent	0.56543	no	H	T
153.1879883	n/a	39216.125	responseSmallT	correct	n/a	0.56543	no	n/a	n/a
154.2485352	n/a	39487.625	largeHSmallH	correct	congruent	0.56055	no	H	H
154.809082	n/a	39631.125	responseSmallH	correct	n/a	0.56055	no	n/a	n/a
155.875	n/a	39904	largeTSmallT	correct	congruent	0.62939	no	T	T
156.5043945	n/a	40065.125	responseSmallT	correct	n/a	0.62939	no	n/a	n/a
157.581543	n/a	40340.875	largeHSmallT	error	incongruent	0.53809	no	H	T
158.1196289	n/a	40478.625	responseSmallH	error	n/a	0.53809	no	n/a	n/a
159.1816406	n/a	40750.5	largeTSmallT	correct	congruent	0.5957	no	T	T
159.7773438	n/a	40903	responseSmallT	correct	n/a	0.5957	no	n/a	n/a
160.8481445	n/a	41177.125	largeHSmallH	correct	congruent	0.50488	no	H	H
161.3530273	n/a	41306.375	responseSmallH	correct	n/a	0.50488	no	n/a	n/a
162.4213867	n/a	41579.875	largeTSmallH	correct	incongruent	0.51123	no	T	H
162.9326172	n/a	41710.75	responseSmallH	correct	n/a	0.51123	no	n/a	n/a
163.9951172	n/a	41982.75	largeTSmallT	correct	congruent	0.58447	no	T	T
164.5795898	n/a	42132.375	responseSmallT	correct	n/a	0.58447	no	n/a	n/a
165.6347656	n/a	42402.5	largeTSmallH	correct	incongruent	0.44189	no	T	H
166.0766602	n/a	42515.625	responseSmallH	correct	n/a	0.44189	no	n/a	n/a
167.1416016	n/a	42788.25	largeTSmallT	correct	congruent	0.50146	no	T	T
167.6430664	n/a	42916.625	responseSmallT	correct	n/a	0.50146	no	n/a	n/a
168.7148438	n/a	43191	largeTSmallT	correct	congruent	0.54883	no	T	T
169.2636719	n/a	43331.5	responseSmallT	correct	n/a	0.54883	no	n/a	n/a
170.3413086	n/a	43607.375	largeTSmallH	correct	incongruent	0.48096	no	T	H
170.8222656	n/a	43730.5	responseSmallH	correct	n/a	0.48096	no	n/a	n/a
171.9013672	n/a	44006.75	largeTSmallH	correct	incongruent	0.55078	no	T	H
172.4521484	n/a	44147.75	responseSmallH	correct	n/a	0.55078	no	n/a	n/a
173.5146484	n/a	44419.75	largeTSmallT	correct	congruent	0.44336	no	T	T
173.9580078	n/a	44533.25	responseSmallT	correct	n/a	0.44336	no	n/a	n/a
175.034668	n/a	44808.875	largeHSmallH	correct	congruent	0.58301	no	H	H
175.6176758	n/a	44958.125	responseSmallH	correct	n/a	0.58301	no	n/a	n/a
176.6879883	n/a	45232.125	largeHSmallT	correct	incongruent	0.55713	no	H	T
177.2451172	n/a	45374.75	responseSmallT	correct	n/a	0.55713	no	n/a	n/a
178.3012695	n/a	45645.125	largeHSmallT	correct	incongruent	0.63037	no	H	T
178.9316406	n/a	45806.5	responseSmallT	correct	n/a	0.63037	no	n/a	n/a
179.9946289	n/a	46078.625	largeHSmallT	correct	incongruent	0.51514	no	H	T
180.5097656	n/a	46210.5	responseSmallT	correct	n/a	0.51514	no	n/a	n/a
181.5810547	n/a	46484.75	largeHSmallH	error	congruent	0.47754	no	H	H
182.0585938	n/a	46607	responseSmallT	error	n/a	0.47754	no	n/a	n/a
183.1274414	n/a	46880.625	largeTSmallT	correct	congruent	0.64844	no	T	T
183.7758789	n/a	47046.625	responseSmallT	correct	n/a	0.64844	no	n/a	n/a
184.8476562	n/a	47321	largeTSmallH	correct	incongruent	0.66504	no	T	H
185.5126953	n/a	47491.25	responseSmallH	correct	n/a	0.66504	no	n/a	n/a
186.5678711	n/a	47761.375	largeHSmallH	correct	congruent	0.52979	no	H	H
187.0976562	n/a	47897	responseSmallH	correct	n/a	0.52979	no	n/a	n/a
188.1679688	n/a	48171	largeTSmallT	correct	congruent	0.65869	no	T	T
188.8266602	n/a	48339.625	responseSmallT	correct	n/a	0.65869	no	n/a	n/a
189.9008789	n/a	48614.625	largeTSmallH	correct	incongruent	0.59473	no	T	H
190.4956055	n/a	48766.875	responseSmallH	correct	n/a	0.59473	no	n/a	n/a
191.5678711	n/a	49041.375	largeTSmallT	correct	congruent	0.63135	no	T	T
192.1992188	n/a	49203	responseSmallT	correct	n/a	0.63135	no	n/a	n/a
193.2607422	n/a	49474.75	largeHSmallH	correct	congruent	0.51611	no	H	H
193.7768555	n/a	49606.875	responseSmallH	correct	n/a	0.51611	no	n/a	n/a
194.847168	n/a	49880.875	largeHSmallT	correct	incongruent	0.51953	no	H	T
195.3666992	n/a	50013.875	responseSmallT	correct	n/a	0.51953	no	n/a	n/a
196.434082	n/a	50287.125	largeHSmallT	correct	incongruent	0.60889	no	H	T
197.0429688	n/a	50443	responseSmallT	correct	n/a	0.60889	no	n/a	n/a
198.1005859	n/a	50713.75	largeTSmallH	correct	incongruent	0.55566	no	T	H
198.65625	n/a	50856	responseSmallH	correct	n/a	0.55566	no	n/a	n/a
199.7275391	n/a	51130.25	largeTSmallT	correct	congruent	0.50439	no	T	T
200.2319336	n/a	51259.375	responseSmallT	correct	n/a	0.50439	no	n/a	n/a
201.3007812	n/a	51533	largeTSmallT	correct	congruent	0.58496	no	T	T
201.8857422	n/a	51682.75	responseSmallT	correct	n/a	0.58496	no	n/a	n/a
202.9541016	n/a	51956.25	largeHSmallT	correct	incongruent	0.69873	no	H	T
203.652832	n/a	52135.125	responseSmallT	correct	n/a	0.69873	no	n/a	n/a
204.7138672	n/a	52406.75	largeHSmallT	correct	incongruent	0.47803	no	H	T
205.1918945	n/a	52529.125	responseSmallT	correct	n/a	0.47803	no	n/a	n/a
206.2607422	n/a	52802.75	largeHSmallH	correct	congruent	0.55371	no	H	H
206.8144531	n/a	52944.5	responseSmallH	correct	n/a	0.55371	no	n/a	n/a
207.887207	n/a	53219.125	largeHSmallT	correct	incongruent	0.61035	no	H	T
208.4975586	n/a	53375.375	responseSmallT	correct	n/a	0.61035	no	n/a	n/a
209.5673828	n/a	53649.25	largeHSmallT	correct	incongruent	0.61328	no	H	T
210.1806641	n/a	53806.25	responseSmallT	correct	n/a	0.61328	no	n/a	n/a
211.2607422	n/a	54082.75	largeHSmallH	correct	congruent	0.77344	no	H	H
212.0341797	n/a	54280.75	responseSmallH	correct	n/a	0.77344	no	n/a	n/a
213.1005859	n/a	54553.75	largeTSmallH	correct	incongruent	0.60352	no	T	H
213.7041016	n/a	54708.25	responseSmallH	correct	n/a	0.60352	no	n/a	n/a
214.7670898	n/a	54980.375	largeHSmallT	correct	incongruent	0.56396	no	H	T
215.3310547	n/a	55124.75	responseSmallT	correct	n/a	0.56396	no	n/a	n/a
216.4072266	n/a	55400.25	largeHSmallT	correct	incongruent	0.51221	no	H	T
216.9194336	n/a	55531.375	responseSmallT	correct	n/a	0.51221	no	n/a	n/a
217.9936523	n/a	55806.375	largeHSmallT	correct	incongruent	0.60059	no	H	T
218.5942383	n/a	55960.125	responseSmallT	correct	n/a	0.60059	no	n/a	n/a
219.6601562	n/a	56233	largeTSmallT	correct	congruent	0.55225	no	T	T
220.2124023	n/a	56374.375	responseSmallT	correct	n/a	0.55225	no	n/a	n/a
221.2871094	n/a	56649.5	largeHSmallH	correct	congruent	0.4624	no	H	H
221.7495117	n/a	56767.875	responseSmallH	correct	n/a	0.4624	no	n/a	n/a
222.8203125	n/a	57042	largeTSmallH	correct	incongruent	0.51953	no	T	H
223.3398438	n/a	57175	responseSmallH	correct	n/a	0.51953	no	n/a	n/a
224.4067383	n/a	57448.125	largeTSmallT	correct	congruent	0.56836	no	T	T
224.9750977	n/a	57593.625	responseSmallT	correct	n/a	0.56836	no	n/a	n/a
226.046875	n/a	57868	largeTSmallH	correct	incongruent	0.54053	no	T	H
226.5874023	n/a	58006.375	responseSmallH	correct	n/a	0.54053	no	n/a	n/a
227.6469727	n/a	58277.625	largeTSmallH	correct	incongruent	0.47168	no	T	H
228.1186523	n/a	58398.375	responseSmallH	correct	n/a	0.47168	no	n/a	n/a
229.1801758	n/a	58670.125	largeTSmallT	correct	congruent	0.62207	no	T	T
229.8022461	n/a	58829.375	responseSmallT	correct	n/a	0.62207	no	n/a	n/a
230.8598633	n/a	59100.125	largeHSmallH	correct	congruent	0.58008	no	H	H
231.4399414	n/a	59248.625	responseSmallH	correct	n/a	0.58008	no	n/a	n/a
232.5	n/a	59520	largeHSmallH	correct	congruent	0.4917	no	H	H
232.9916992	n/a	59645.875	responseSmallH	correct	n/a	0.4917	no	n/a	n/a
234.0600586	n/a	59919.375	largeHSmallH	correct	congruent	0.48389	no	H	H
234.5439453	n/a	60043.25	responseSmallH	correct	n/a	0.48389	no	n/a	n/a
235.6064453	n/a	60315.25	largeTSmallH	correct	incongruent	0.57373	no	T	H
236.1801758	n/a	60462.125	responseSmallH	correct	n/a	0.57373	no	n/a	n/a
237.246582	n/a	60735.125	largeHSmallH	correct	congruent	0.56592	no	H	H
237.8125	n/a	60880	responseSmallH	correct	n/a	0.56592	no	n/a	n/a
238.8862305	n/a	61154.875	largeHSmallH	correct	congruent	0.48828	no	H	H
239.3745117	n/a	61279.875	responseSmallH	correct	n/a	0.48828	no	n/a	n/a
240.4467773	n/a	61554.375	largeTSmallT	correct	congruent	0.61816	no	T	T
241.0649414	n/a	61712.625	responseSmallT	correct	n/a	0.61816	no	n/a	n/a
242.1264648	n/a	61984.375	largeHSmallH	correct	congruent	0.57812	no	H	H
242.7045898	n/a	62132.375	responseSmallH	correct	n/a	0.57812	no	n/a	n/a
243.7661133	n/a	62404.125	largeTSmallH	correct	incongruent	0.64502	no	T	H
244.4111328	n/a	62569.25	responseSmallH	correct	n/a	0.64502	no	n/a	n/a
245.4863281	n/a	62844.5	largeHSmallH	correct	congruent	0.54688	no	H	H
246.0332031	n/a	62984.5	responseSmallH	correct	n/a	0.54688	no	n/a	n/a
247.0996094	n/a	63257.5	largeTSmallT	correct	congruent	0.59082	no	T	T
247.6904297	n/a	63408.75	responseSmallT	correct	n/a	0.59082	no	n/a	n/a
248.7529297	n/a	63680.75	largeTSmallH	correct	incongruent	0.62939	no	T	H
249.3823242	n/a	63841.875	responseSmallH	correct	n/a	0.62939	no	n/a	n/a
250.4594727	n/a	64117.625	largeTSmallT	correct	congruent	0.66357	no	T	T
251.1230469	n/a	64287.5	responseSmallT	correct	n/a	0.66357	no	n/a	n/a
252.1928711	n/a	64561.375	largeTSmallH	correct	incongruent	0.72559	no	T	H
252.918457	n/a	64747.125	responseSmallH	correct	n/a	0.72559	no	n/a	n/a
253.9794922	n/a	65018.75	largeHSmallH	correct	congruent	0.66309	no	H	H
254.6425781	n/a	65188.5	responseSmallH	correct	n/a	0.66309	no	n/a	n/a
255.7128906	n/a	65462.5	largeHSmallT	correct	incongruent	0.65234	no	H	T
256.3652344	n/a	65629.5	responseSmallT	correct	n/a	0.65234	no	n/a	n/a
257.4326172	n/a	65902.75	largeHSmallH	correct	congruent	0.5752	no	H	H
258.0078125	n/a	66050	responseSmallH	correct	n/a	0.5752	no	n/a	n/a
259.0727539	n/a	66322.625	largeHSmallT	correct	incongruent	0.61572	no	H	T
259.6884766	n/a	66480.25	responseSmallT	correct	n/a	0.61572	no	n/a	n/a
260.7529297	n/a	66752.75	largeHSmallT	correct	incongruent	0.74316	no	H	T
261.4960938	n/a	66943	responseSmallT	correct	n/a	0.74316	no	n/a	n/a
264.8989258	n/a	67814.125	largeHSmallT	correct	incongruent	0.74316	no	H	T
265.6420898	n/a	68004.375	responseLargeH	correct	n/a	0.74316	no	n/a	n/a
266.7128906	n/a	68278.5	largeTSmallH	correct	incongruent	0.53174	no	T	H
267.2446289	n/a	68414.625	responseLargeT	correct	n/a	0.53174	no	n/a	n/a
268.3261719	n/a	68691.5	largeHSmallH	correct	congruent	0.50195	no	H	H
268.828125	n/a	68820	responseLargeH	correct	n/a	0.50195	no	n/a	n/a
269.8989258	n/a	69094.125	largeTSmallT	correct	congruent	0.44287	no	T	T
270.3417969	n/a	69207.5	responseLargeT	correct	n/a	0.44287	no	n/a	n/a
271.4057617	n/a	69479.875	largeHSmallT	correct	incongruent	0.48828	no	H	T
271.894043	n/a	69604.875	responseLargeH	correct	n/a	0.48828	no	n/a	n/a
272.9658203	n/a	69879.25	largeHSmallT	correct	incongruent	1.1821	no	H	T
274.1479492	n/a	70181.875	responseLargeH	correct	n/a	1.1821	no	n/a	n/a
275.2192383	n/a	70456.125	largeHSmallT	correct	incongruent	0.52686	no	H	T
275.7460938	n/a	70591	responseLargeH	correct	n/a	0.52686	no	n/a	n/a
276.8056641	n/a	70862.25	largeHSmallH	correct	congruent	0.48975	no	H	H
277.2954102	n/a	70987.625	responseLargeH	correct	n/a	0.48975	no	n/a	n/a
278.3657227	n/a	71261.625	largeHSmallH	correct	congruent	0.48389	no	H	H
278.8496094	n/a	71385.5	responseLargeH	correct	n/a	0.48389	no	n/a	n/a
279.9121094	n/a	71657.5	largeHSmallT	correct	incongruent	0.8252	no	H	T
280.7373047	n/a	71868.75	responseLargeH	correct	n/a	0.8252	no	n/a	n/a
281.7924805	n/a	72138.875	largeHSmallT	correct	incongruent	0.52441	no	H	T
282.3168945	n/a	72273.125	responseLargeH	correct	n/a	0.52441	no	n/a	n/a
283.3920898	n/a	72548.375	largeHSmallT	correct	incongruent	0.4668	no	H	T
283.8588867	n/a	72667.875	responseLargeH	correct	n/a	0.4668	no	n/a	n/a
284.9389648	n/a	72944.375	largeHSmallT	correct	incongruent	0.46143	no	H	T
285.4003906	n/a	73062.5	responseLargeH	correct	n/a	0.46143	no	n/a	n/a
286.4589844	n/a	73333.5	largeHSmallH	correct	congruent	0.46436	no	H	H
286.9233398	n/a	73452.375	responseLargeH	correct	n/a	0.46436	no	n/a	n/a
287.9926758	n/a	73726.125	largeTSmallH	correct	incongruent	0.39746	no	T	H
288.3901367	n/a	73827.875	responseLargeT	correct	n/a	0.39746	no	n/a	n/a
289.4584961	n/a	74101.375	largeHSmallT	correct	incongruent	0.50732	no	H	T
289.9658203	n/a	74231.25	responseLargeH	correct	n/a	0.50732	no	n/a	n/a
291.0322266	n/a	74504.25	largeTSmallH	correct	incongruent	0.49072	no	T	H
291.5229492	n/a	74629.875	responseLargeT	correct	n/a	0.49072	no	n/a	n/a
292.5917969	n/a	74903.5	largeHSmallT	correct	incongruent	0.42383	no	H	T
293.015625	n/a	75012	responseLargeH	correct	n/a	0.42383	no	n/a	n/a
294.0986328	n/a	75289.25	largeTSmallT	correct	congruent	0.48682	no	T	T
294.5854492	n/a	75413.875	responseLargeT	correct	n/a	0.48682	no	n/a	n/a
295.6455078	n/a	75685.25	largeHSmallT	correct	incongruent	0.36133	no	H	T
296.0068359	n/a	75777.75	responseLargeH	correct	n/a	0.36133	no	n/a	n/a
297.0722656	n/a	76050.5	largeTSmallH	correct	incongruent	0.37646	no	T	H
297.4487305	n/a	76146.875	responseLargeT	correct	n/a	0.37646	no	n/a	n/a
298.5249023	n/a	76422.375	largeTSmallT	correct	congruent	0.51465	no	T	T
299.0395508	n/a	76554.125	responseLargeT	correct	n/a	0.51465	no	n/a	n/a
300.1118164	n/a	76828.625	largeHSmallH	correct	congruent	0.50391	no	H	H
300.6157227	n/a	76957.625	responseLargeH	correct	n/a	0.50391	no	n/a	n/a
301.6850586	n/a	77231.375	largeHSmallH	correct	congruent	0.53564	no	H	H
302.2207031	n/a	77368.5	responseLargeH	correct	n/a	0.53564	no	n/a	n/a
303.2983398	n/a	77644.375	largeTSmallT	correct	congruent	0.90918	no	T	T
304.2075195	n/a	77877.125	responseLargeT	correct	n/a	0.90918	no	n/a	n/a
305.2714844	n/a	78149.5	largeTSmallH	error	incongruent	0.64014	no	T	H
305.9116211	n/a	78313.375	responseLargeH	error	n/a	0.64014	no	n/a	n/a
306.9785156	n/a	78586.5	largeHSmallH	correct	congruent	0.54395	no	H	H
307.5224609	n/a	78725.75	responseLargeH	correct	n/a	0.54395	no	n/a	n/a
308.5786133	n/a	78996.125	largeHSmallH	correct	congruent	0.88232	no	H	H
309.4609375	n/a	79222	responseLargeH	correct	n/a	0.88232	no	n/a	n/a
310.5380859	n/a	79497.75	largeTSmallT	correct	congruent	0.57812	no	T	T
311.1162109	n/a	79645.75	responseLargeT	correct	n/a	0.57812	no	n/a	n/a
312.1914062	n/a	79921	largeTSmallH	correct	incongruent	0.69043	no	T	H
312.8818359	n/a	80097.75	responseLargeT	correct	n/a	0.69043	no	n/a	n/a
313.9516602	n/a	80371.625	largeTSmallT	correct	congruent	0.54053	no	T	T
314.4921875	n/a	80510	responseLargeT	correct	n/a	0.54053	no	n/a	n/a
315.5512695	n/a	80781.125	largeHSmallH	correct	congruent	0.44336	no	H	H
315.9946289	n/a	80894.625	responseLargeH	correct	n/a	0.44336	no	n/a	n/a
317.0581055	n/a	81166.875	largeHSmallH	correct	congruent	0.48047	no	H	H
317.5385742	n/a	81289.875	responseLargeH	correct	n/a	0.48047	no	n/a	n/a
318.6181641	n/a	81566.25	largeTSmallT	correct	congruent	0.54102	no	T	T
319.1591797	n/a	81704.75	responseLargeT	correct	n/a	0.54102	no	n/a	n/a
320.2177734	n/a	81975.75	largeTSmallH	correct	incongruent	0.59033	no	T	H
320.8081055	n/a	82126.875	responseLargeT	correct	n/a	0.59033	no	n/a	n/a
321.8710938	n/a	82399	largeTSmallH	correct	incongruent	0.55811	no	T	H
322.4291992	n/a	82541.875	responseLargeT	correct	n/a	0.55811	no	n/a	n/a
323.4980469	n/a	82815.5	largeHSmallT	correct	incongruent	0.59863	no	H	T
324.0966797	n/a	82968.75	responseLargeH	correct	n/a	0.59863	no	n/a	n/a
325.1645508	n/a	83242.125	largeTSmallT	correct	congruent	0.68213	no	T	T
325.8466797	n/a	83416.75	responseLargeT	correct	n/a	0.68213	no	n/a	n/a
326.9111328	n/a	83689.25	largeHSmallT	correct	incongruent	0.69043	no	H	T
327.6015625	n/a	83866	responseLargeH	correct	n/a	0.69043	no	n/a	n/a
328.6713867	n/a	84139.875	largeHSmallH	correct	congruent	0.48291	no	H	H
329.1542969	n/a	84263.5	responseLargeH	correct	n/a	0.48291	no	n/a	n/a
330.2177734	n/a	84535.75	largeHSmallH	correct	congruent	0.45264	no	H	H
330.6704102	n/a	84651.625	responseLargeH	correct	n/a	0.45264	no	n/a	n/a
331.737793	n/a	84924.875	largeTSmallT	correct	congruent	0.56299	no	T	T
332.3007812	n/a	85069	responseLargeT	correct	n/a	0.56299	no	n/a	n/a
333.3779297	n/a	85344.75	largeHSmallH	error	congruent	0.51416	no	H	H
333.8920898	n/a	85476.375	responseLargeT	error	n/a	0.51416	no	n/a	n/a
334.9643555	n/a	85750.875	largeHSmallH	correct	congruent	0.60986	no	H	H
335.5742188	n/a	85907	responseLargeH	correct	n/a	0.60986	no	n/a	n/a
336.644043	n/a	86180.875	largeTSmallH	correct	incongruent	1.0405	no	T	H
337.6845703	n/a	86447.25	responseLargeT	correct	n/a	1.0405	no	n/a	n/a
338.7509766	n/a	86720.25	largeHSmallH	correct	congruent	0.54102	no	H	H
339.2919922	n/a	86858.75	responseLargeH	correct	n/a	0.54102	no	n/a	n/a
340.3642578	n/a	87133.25	largeTSmallH	correct	incongruent	0.70459	no	T	H
341.0688477	n/a	87313.625	responseLargeT	correct	n/a	0.70459	no	n/a	n/a
342.1376953	n/a	87587.25	largeHSmallT	correct	incongruent	0.4375	no	H	T
342.5751953	n/a	87699.25	responseLargeH	correct	n/a	0.4375	no	n/a	n/a
343.6308594	n/a	87969.5	largeHSmallT	correct	incongruent	0.5293	no	H	T
344.1601562	n/a	88105	responseLargeH	correct	n/a	0.5293	no	n/a	n/a
345.230957	n/a	88379.125	largeHSmallT	correct	incongruent	0.56934	no	H	T
345.800293	n/a	88524.875	responseLargeH	correct	n/a	0.56934	no	n/a	n/a
346.8706055	n/a	88798.875	largeTSmallT	correct	congruent	0.53955	no	T	T
347.4101562	n/a	88937	responseLargeT	correct	n/a	0.53955	no	n/a	n/a
348.4711914	n/a	89208.625	largeTSmallH	correct	incongruent	0.48242	no	T	H
348.9536133	n/a	89332.125	responseLargeT	correct	n/a	0.48242	no	n/a	n/a
350.0175781	n/a	89604.5	largeTSmallT	correct	congruent	0.58887	no	T	T
350.6064453	n/a	89755.25	responseLargeT	correct	n/a	0.58887	no	n/a	n/a
351.6704102	n/a	90027.625	largeHSmallT	correct	incongruent	0.50098	no	H	T
352.1713867	n/a	90155.875	responseLargeH	correct	n/a	0.50098	no	n/a	n/a
353.2441406	n/a	90430.5	largeHSmallH	correct	congruent	0.53564	no	H	H
353.7797852	n/a	90567.625	responseLargeH	correct	n/a	0.53564	no	n/a	n/a
354.8574219	n/a	90843.5	largeTSmallH	correct	incongruent	0.58545	no	T	H
355.4428711	n/a	90993.375	responseLargeT	correct	n/a	0.58545	no	n/a	n/a
356.5107422	n/a	91266.75	largeTSmallH	correct	incongruent	0.67969	no	T	H
357.1904297	n/a	91440.75	responseLargeT	correct	n/a	0.67969	no	n/a	n/a
358.2573242	n/a	91713.875	largeTSmallH	correct	incongruent	0.57129	no	T	H
358.8286133	n/a	91860.125	responseLargeT	correct	n/a	0.57129	no	n/a	n/a
359.8969727	n/a	92133.625	largeTSmallT	correct	congruent	0.5166	no	T	T
360.4135742	n/a	92265.875	responseLargeT	correct	n/a	0.5166	no	n/a	n/a
361.4838867	n/a	92539.875	largeTSmallT	correct	congruent	0.56836	no	T	T
362.0522461	n/a	92685.375	responseLargeT	correct	n/a	0.56836	no	n/a	n/a
363.1235352	n/a	92959.625	largeTSmallT	correct	congruent	0.4502	no	T	T
363.5737305	n/a	93074.875	responseLargeT	correct	n/a	0.4502	no	n/a	n/a
364.6303711	n/a	93345.375	largeTSmallH	correct	incongruent	0.6377	no	T	H
365.2680664	n/a	93508.625	responseLargeT	correct	n/a	0.6377	no	n/a	n/a
366.3369141	n/a	93782.25	largeHSmallH	correct	congruent	0.5415	no	H	H
366.878418	n/a	93920.875	responseLargeH	correct	n/a	0.5415	no	n/a	n/a
367.9370117	n/a	94191.875	largeTSmallT	correct	congruent	0.57666	no	T	T
368.5136719	n/a	94339.5	responseLargeT	correct	n/a	0.57666	no	n/a	n/a
369.5771484	n/a	94611.75	largeTSmallH	correct	incongruent	0.59473	no	T	H
370.171875	n/a	94764	responseLargeT	correct	n/a	0.59473	no	n/a	n/a
371.2304688	n/a	95035	largeTSmallH	correct	incongruent	0.43262	no	T	H
371.6630859	n/a	95145.75	responseLargeT	correct	n/a	0.43262	no	n/a	n/a
372.7236328	n/a	95417.25	largeTSmallH	correct	incongruent	0.46436	no	T	H
373.1879883	n/a	95536.125	responseLargeT	correct	n/a	0.46436	no	n/a	n/a
374.2568359	n/a	95809.75	largeHSmallH	correct	congruent	0.53857	no	H	H
374.7954102	n/a	95947.625	responseLargeH	correct	n/a	0.53857	no	n/a	n/a
375.8701172	n/a	96222.75	largeHSmallT	correct	incongruent	0.50488	no	H	T
376.375	n/a	96352	responseLargeH	correct	n/a	0.50488	no	n/a	n/a
377.4433594	n/a	96625.5	largeTSmallT	correct	congruent	0.59277	no	T	T
378.0361328	n/a	96777.25	responseLargeT	correct	n/a	0.59277	no	n/a	n/a
379.1098633	n/a	97052.125	largeHSmallH	correct	congruent	0.54785	no	H	H
379.6577148	n/a	97192.375	responseLargeH	correct	n/a	0.54785	no	n/a	n/a
380.7231445	n/a	97465.125	largeHSmallT	correct	incongruent	0.48926	no	H	T
381.2124023	n/a	97590.375	responseLargeH	correct	n/a	0.48926	no	n/a	n/a
382.2836914	n/a	97864.625	largeTSmallT	correct	congruent	0.53076	no	T	T
382.8144531	n/a	98000.5	responseLargeT	correct	n/a	0.53076	no	n/a	n/a
383.8833008	n/a	98274.125	largeTSmallT	correct	congruent	0.54834	no	T	T
384.4316406	n/a	98414.5	responseLargeT	correct	n/a	0.54834	no	n/a	n/a
385.496582	n/a	98687.125	largeTSmallT	correct	congruent	0.55664	no	T	T
386.0532227	n/a	98829.625	responseLargeT	correct	n/a	0.55664	no	n/a	n/a
387.1098633	n/a	99100.125	largeHSmallH	correct	congruent	0.40771	no	H	H
387.5175781	n/a	99204.5	responseLargeH	correct	n/a	0.40771	no	n/a	n/a
388.5766602	n/a	99475.625	largeTSmallH	error	incongruent	0.66211	no	T	H
389.2387695	n/a	99645.125	responseLargeH	error	n/a	0.66211	no	n/a	n/a
390.3100586	n/a	99919.375	largeTSmallH	correct	incongruent	0.58887	no	T	H
390.8989258	n/a	100070.125	responseLargeT	correct	n/a	0.58887	no	n/a	n/a
391.9628906	n/a	100342.5	largeHSmallT	correct	incongruent	0.69629	no	H	T
392.6591797	n/a	100520.75	responseLargeH	correct	n/a	0.69629	no	n/a	n/a
393.7236328	n/a	100793.25	largeTSmallT	correct	congruent	0.48828	no	T	T
394.2119141	n/a	100918.25	responseLargeT	correct	n/a	0.48828	no	n/a	n/a
396.5629883	n/a	101520.125	largeHSmallT	correct	incongruent	0.75635	no	H	T
397.3193359	n/a	101713.75	responseSmallT	correct	n/a	0.75635	no	n/a	n/a
398.3896484	n/a	101987.75	largeTSmallT	correct	congruent	0.54053	no	T	T
398.9301758	n/a	102126.125	responseSmallT	correct	n/a	0.54053	no	n/a	n/a
400.0029297	n/a	102400.75	largeHSmallH	correct	congruent	0.46924	no	H	H
400.472168	n/a	102520.875	responseSmallH	correct	n/a	0.46924	no	n/a	n/a
401.5498047	n/a	102796.75	largeTSmallH	correct	incongruent	0.48779	no	T	H
402.0375977	n/a	102921.625	responseSmallH	correct	n/a	0.48779	no	n/a	n/a
403.109375	n/a	103196	largeHSmallT	correct	incongruent	0.53027	no	H	T
403.6396484	n/a	103331.75	responseSmallT	correct	n/a	0.53027	no	n/a	n/a
404.7094727	n/a	103605.625	largeTSmallT	correct	congruent	0.51514	no	T	T
405.2246094	n/a	103737.5	responseSmallT	correct	n/a	0.51514	no	n/a	n/a
406.2827148	n/a	104008.375	largeTSmallH	correct	incongruent	0.53223	no	T	H
406.8149414	n/a	104144.625	responseSmallH	correct	n/a	0.53223	no	n/a	n/a
407.8828125	n/a	104418	largeTSmallH	correct	incongruent	0.48242	no	T	H
408.3652344	n/a	104541.5	responseSmallH	correct	n/a	0.48242	no	n/a	n/a
409.4428711	n/a	104817.375	largeHSmallH	correct	congruent	0.59326	no	H	H
410.0361328	n/a	104969.25	responseSmallH	correct	n/a	0.59326	no	n/a	n/a
411.109375	n/a	105244	largeTSmallT	correct	congruent	0.51514	no	T	T
411.6245117	n/a	105375.875	responseSmallT	correct	n/a	0.51514	no	n/a	n/a
412.6962891	n/a	105650.25	largeTSmallH	correct	incongruent	0.5127	no	T	H
413.2089844	n/a	105781.5	responseSmallH	correct	n/a	0.5127	no	n/a	n/a
414.2695312	n/a	106053	largeTSmallT	correct	congruent	0.46143	no	T	T
414.730957	n/a	106171.125	responseSmallT	correct	n/a	0.46143	no	n/a	n/a
415.8027344	n/a	106445.5	largeHSmallT	correct	incongruent	0.94922	no	H	T
416.7519531	n/a	106688.5	responseSmallT	correct	n/a	0.94922	no	n/a	n/a
417.815918	n/a	106960.875	largeTSmallH	correct	incongruent	0.55518	no	T	H
418.3710938	n/a	107103	responseSmallH	correct	n/a	0.55518	no	n/a	n/a
419.4423828	n/a	107377.25	largeHSmallH	correct	congruent	0.56934	no	H	H
420.0117188	n/a	107523	responseSmallH	correct	n/a	0.56934	no	n/a	n/a
421.0693359	n/a	107793.75	largeTSmallT	correct	congruent	0.49121	no	T	T
421.5605469	n/a	107919.5	responseSmallT	correct	n/a	0.49121	no	n/a	n/a
422.6425781	n/a	108196.5	largeTSmallT	correct	congruent	0.60254	no	T	T
423.2451172	n/a	108350.75	responseSmallT	correct	n/a	0.60254	no	n/a	n/a
424.3227539	n/a	108626.625	largeHSmallT	correct	incongruent	0.5708	no	H	T
424.8935547	n/a	108772.75	responseSmallT	correct	n/a	0.5708	no	n/a	n/a
425.9624023	n/a	109046.375	largeTSmallH	correct	incongruent	0.48486	no	T	H
426.4472656	n/a	109170.5	responseSmallH	correct	n/a	0.48486	no	n/a	n/a
427.5224609	n/a	109445.75	largeTSmallT	correct	congruent	0.72363	no	T	T
428.2460938	n/a	109631	responseSmallT	correct	n/a	0.72363	no	n/a	n/a
429.309082	n/a	109903.125	largeTSmallT	correct	congruent	0.48193	no	T	T
429.7910156	n/a	110026.5	responseSmallT	correct	n/a	0.48193	no	n/a	n/a
430.8554688	n/a	110299	largeHSmallT	correct	incongruent	0.63916	no	H	T
431.4946289	n/a	110462.625	responseSmallT	correct	n/a	0.63916	no	n/a	n/a
432.5620117	n/a	110735.875	largeHSmallH	correct	congruent	0.4834	no	H	H
433.0454102	n/a	110859.625	responseSmallH	correct	n/a	0.4834	no	n/a	n/a
434.1220703	n/a	111135.25	largeHSmallT	correct	incongruent	0.57861	no	H	T
434.7006836	n/a	111283.375	responseSmallT	correct	n/a	0.57861	no	n/a	n/a
435.7753906	n/a	111558.5	largeTSmallT	correct	congruent	0.59912	no	T	T
436.3745117	n/a	111711.875	responseSmallT	correct	n/a	0.59912	no	n/a	n/a
437.4423828	n/a	111985.25	largeTSmallH	correct	incongruent	0.63721	no	T	H
438.0795898	n/a	112148.375	responseSmallH	correct	n/a	0.63721	no	n/a	n/a
439.1352539	n/a	112418.625	largeHSmallH	correct	congruent	0.53955	no	H	H
439.6748047	n/a	112556.75	responseSmallH	correct	n/a	0.53955	no	n/a	n/a
440.7490234	n/a	112831.75	largeHSmallH	correct	congruent	0.55029	no	H	H
441.2993164	n/a	112972.625	responseSmallH	correct	n/a	0.55029	no	n/a	n/a
442.3618164	n/a	113244.625	largeTSmallH	correct	incongruent	0.56348	no	T	H
442.925293	n/a	113388.875	responseSmallH	correct	n/a	0.56348	no	n/a	n/a
443.9887695	n/a	113661.125	largeHSmallT	correct	incongruent	0.49268	no	H	T
444.4814453	n/a	113787.25	responseSmallT	correct	n/a	0.49268	no	n/a	n/a
445.5488281	n/a	114060.5	largeHSmallH	correct	congruent	0.64355	no	H	H
446.1923828	n/a	114225.25	responseSmallH	correct	n/a	0.64355	no	n/a	n/a
447.2553711	n/a	114497.375	largeTSmallH	correct	incongruent	0.55029	no	T	H
447.8056641	n/a	114638.25	responseSmallH	correct	n/a	0.55029	no	n/a	n/a
448.8686523	n/a	114910.375	largeHSmallT	correct	incongruent	0.62793	no	H	T
449.496582	n/a	115071.125	responseSmallT	correct	n/a	0.62793	no	n/a	n/a
450.5620117	n/a	115343.875	largeTSmallT	correct	congruent	0.67188	no	T	T
451.2338867	n/a	115515.875	responseSmallT	correct	n/a	0.67188	no	n/a	n/a
452.3085938	n/a	115791	largeTSmallH	correct	incongruent	0.46631	no	T	H
452.7749023	n/a	115910.375	responseSmallH	correct	n/a	0.46631	no	n/a	n/a
453.8417969	n/a	116183.5	largeTSmallT	correct	congruent	0.58447	no	T	T
454.4262695	n/a	116333.125	responseSmallT	correct	n/a	0.58447	no	n/a	n/a
455.4819336	n/a	116603.375	largeTSmallT	correct	congruent	0.59814	no	T	T
456.0800781	n/a	116756.5	responseSmallT	correct	n/a	0.59814	no	n/a	n/a
457.1484375	n/a	117030	largeTSmallT	correct	congruent	0.50049	no	T	T
457.6489258	n/a	117158.125	responseSmallT	correct	n/a	0.50049	no	n/a	n/a
458.7216797	n/a	117432.75	largeHSmallT	correct	incongruent	0.56055	no	H	T
459.2822266	n/a	117576.25	responseSmallT	correct	n/a	0.56055	no	n/a	n/a
460.3618164	n/a	117852.625	largeHSmallH	correct	congruent	0.48145	no	H	H
460.8432617	n/a	117975.875	responseSmallH	correct	n/a	0.48145	no	n/a	n/a
461.921875	n/a	118252	largeHSmallH	correct	congruent	0.5498	no	H	H
462.4716797	n/a	118392.75	responseSmallH	correct	n/a	0.5498	no	n/a	n/a
463.534668	n/a	118664.875	largeHSmallT	correct	incongruent	0.60254	no	H	T
464.137207	n/a	118819.125	responseSmallT	correct	n/a	0.60254	no	n/a	n/a
465.2016602	n/a	119091.625	largeTSmallH	correct	incongruent	0.53125	no	T	H
465.7329102	n/a	119227.625	responseSmallH	correct	n/a	0.53125	no	n/a	n/a
466.8017578	n/a	119501.25	largeTSmallH	correct	incongruent	0.52246	no	T	H
467.3242188	n/a	119635	responseSmallH	correct	n/a	0.52246	no	n/a	n/a
468.3881836	n/a	119907.375	largeHSmallT	correct	incongruent	0.55566	no	H	T
468.9438477	n/a	120049.625	responseSmallT	correct	n/a	0.55566	no	n/a	n/a
470.0146484	n/a	120323.75	largeHSmallH	correct	congruent	0.4624	no	H	H
470.4770508	n/a	120442.125	responseSmallH	correct	n/a	0.4624	no	n/a	n/a
471.534668	n/a	120712.875	largeHSmallT	correct	incongruent	0.61426	no	H	T
472.1489258	n/a	120870.125	responseSmallT	correct	n/a	0.61426	no	n/a	n/a
473.2143555	n/a	121142.875	largeTSmallH	correct	incongruent	0.47559	no	T	H
473.6899414	n/a	121264.625	responseSmallH	correct	n/a	0.47559	no	n/a	n/a
474.7480469	n/a	121535.5	largeHSmallT	correct	incongruent	0.68799	no	H	T
475.4360352	n/a	121711.625	responseSmallT	correct	n/a	0.68799	no	n/a	n/a
476.5083008	n/a	121986.125	largeHSmallT	correct	incongruent	0.54883	no	H	T
477.0571289	n/a	122126.625	responseSmallT	correct	n/a	0.54883	no	n/a	n/a
478.1210938	n/a	122399	largeTSmallT	error	congruent	0.60449	no	T	T
478.7255859	n/a	122553.75	responseSmallH	error	n/a	0.60449	no	n/a	n/a
479.7875977	n/a	122825.625	largeHSmallT	correct	incongruent	0.55566	no	H	T
480.3432617	n/a	122967.875	responseSmallT	correct	n/a	0.55566	no	n/a	n/a
481.4145508	n/a	123242.125	largeTSmallH	correct	incongruent	0.51367	no	T	H
481.9282227	n/a	123373.625	responseSmallH	correct	n/a	0.51367	no	n/a	n/a
482.9882812	n/a	123645	largeTSmallT	correct	congruent	0.45654	no	T	T
483.4448242	n/a	123761.875	responseSmallT	correct	n/a	0.45654	no	n/a	n/a
484.5078125	n/a	124034	largeTSmallT	correct	congruent	0.52197	no	T	T
485.0297852	n/a	124167.625	responseSmallT	correct	n/a	0.52197	no	n/a	n/a
486.0942383	n/a	124440.125	largeHSmallH	correct	congruent	0.50391	no	H	H
486.5981445	n/a	124569.125	responseSmallH	correct	n/a	0.50391	no	n/a	n/a
487.6674805	n/a	124842.875	largeTSmallT	correct	congruent	0.57715	no	T	T
488.2446289	n/a	124990.625	responseSmallT	correct	n/a	0.57715	no	n/a	n/a
489.3076172	n/a	125262.75	largeHSmallH	correct	congruent	0.51221	no	H	H
489.8198242	n/a	125393.875	responseSmallH	correct	n/a	0.51221	no	n/a	n/a
490.8808594	n/a	125665.5	largeHSmallH	correct	congruent	0.50732	no	H	H
491.3881836	n/a	125795.375	responseSmallH	correct	n/a	0.50732	no	n/a	n/a
492.4541016	n/a	126068.25	largeHSmallT	correct	incongruent	0.70312	no	H	T
493.1572266	n/a	126248.25	responseSmallT	correct	n/a	0.70312	no	n/a	n/a
494.2275391	n/a	126522.25	largeTSmallH	correct	incongruent	0.46875	no	T	H
494.6962891	n/a	126642.25	responseSmallH	correct	n/a	0.46875	no	n/a	n/a
495.7612305	n/a	126914.875	largeTSmallT	correct	congruent	0.5752	no	T	T
496.3364258	n/a	127062.125	responseSmallT	correct	n/a	0.5752	no	n/a	n/a
497.4008789	n/a	127334.625	largeHSmallT	correct	incongruent	0.5708	no	H	T
497.9716797	n/a	127480.75	responseSmallT	correct	n/a	0.5708	no	n/a	n/a
499.0410156	n/a	127754.5	largeTSmallH	correct	incongruent	0.43604	no	T	H
499.4770508	n/a	127866.125	responseSmallH	correct	n/a	0.43604	no	n/a	n/a
500.5473633	n/a	128140.125	largeTSmallH	correct	incongruent	0.64453	no	T	H
501.1918945	n/a	128305.125	responseSmallH	correct	n/a	0.64453	no	n/a	n/a
502.2539062	n/a	128577	largeHSmallH	correct	congruent	0.61279	no	H	H
502.8666992	n/a	128733.875	responseSmallH	correct	n/a	0.61279	no	n/a	n/a
503.934082	n/a	129007.125	largeTSmallH	correct	incongruent	0.55713	no	T	H
504.4912109	n/a	129149.75	responseSmallH	correct	n/a	0.55713	no	n/a	n/a
505.5610352	n/a	129423.625	largeHSmallH	correct	congruent	0.54004	no	H	H
506.1010742	n/a	129561.875	responseSmallH	correct	n/a	0.54004	no	n/a	n/a
507.1738281	n/a	129836.5	largeHSmallH	correct	congruent	0.58301	no	H	H
507.7568359	n/a	129985.75	responseSmallH	correct	n/a	0.58301	no	n/a	n/a
508.8271484	n/a	130259.75	largeHSmallH	correct	congruent	0.53076	no	H	H
509.3579102	n/a	130395.625	responseSmallH	correct	n/a	0.53076	no	n/a	n/a
510.4272461	n/a	130669.375	largeHSmallH	correct	congruent	0.45947	no	H	H
510.8867188	n/a	130787	responseSmallH	correct	n/a	0.45947	no	n/a	n/a
511.9604492	n/a	131061.875	largeHSmallT	correct	incongruent	0.5752	no	H	T
512.5356445	n/a	131209.125	responseSmallT	correct	n/a	0.5752	no	n/a	n/a
513.6005859	n/a	131481.75	largeHSmallH	correct	congruent	0.54541	no	H	H
514.1459961	n/a	131621.375	responseSmallH	correct	n/a	0.54541	no	n/a	n/a
515.2001953	n/a	131891.25	largeHSmallT	correct	incongruent	0.58936	no	H	T
515.7895508	n/a	132042.125	responseSmallT	correct	n/a	0.58936	no	n/a	n/a
516.8671875	n/a	132318	largeHSmallH	correct	congruent	0.52344	no	H	H
517.390625	n/a	132452	responseSmallH	correct	n/a	0.52344	no	n/a	n/a
518.4536133	n/a	132724.125	largeTSmallH	correct	incongruent	0.63281	no	T	H
519.0864258	n/a	132886.125	responseSmallH	correct	n/a	0.63281	no	n/a	n/a
520.1469727	n/a	133157.625	largeHSmallT	correct	incongruent	0.54688	no	H	T
520.6938477	n/a	133297.625	responseSmallT	correct	n/a	0.54688	no	n/a	n/a
521.7602539	n/a	133570.625	largeTSmallT	correct	congruent	0.57178	no	T	T
522.3320312	n/a	133717	responseSmallT	correct	n/a	0.57178	no	n/a	n/a
523.4003906	n/a	133990.5	largeTSmallT	correct	congruent	0.57031	no	T	T
523.9707031	n/a	134136.5	responseSmallT	correct	n/a	0.57031	no	n/a	n/a
525.0405273	n/a	134410.375	largeTSmallH	correct	incongruent	0.52246	no	T	H
525.5629883	n/a	134544.125	responseSmallH	correct	n/a	0.52246	no	n/a	n/a
