onset	duration	sample	value	response_type	congruence	response_time	response_out_of_range	largeletter	smallletter
32.140625	n/a	8228	largeHSmallT	correct	incongruent	0.79346	no	H	T
32.93408203	n/a	8431.125	responseLargeH	correct	n/a	0.79346	no	n/a	n/a
34.00830078	n/a	8706.125	largeHSmallT	correct	incongruent	0.56885	no	H	T
34.57714844	n/a	8851.75	responseLargeH	correct	n/a	0.56885	no	n/a	n/a
35.6484375	n/a	9126	largeHSmallT	correct	incongruent	0.56494	no	H	T
36.21337891	n/a	9270.625	responseLargeH	correct	n/a	0.56494	no	n/a	n/a
37.2890625	n/a	9546	largeTSmallT	correct	congruent	0.646	no	T	T
37.93505859	n/a	9711.375	responseLargeT	correct	n/a	0.646	no	n/a	n/a
39.00927734	n/a	9986.375	largeHSmallT	correct	incongruent	0.49707	no	H	T
39.50634766	n/a	10113.625	responseLargeH	correct	n/a	0.49707	no	n/a	n/a
40.58251953	n/a	10389.125	largeTSmallH	correct	incongruent	0.64453	no	T	H
41.22705078	n/a	10554.125	responseLargeT	correct	n/a	0.64453	no	n/a	n/a
42.2890625	n/a	10826	largeTSmallH	correct	incongruent	0.5542	no	T	H
42.84326172	n/a	10967.875	responseLargeT	correct	n/a	0.5542	no	n/a	n/a
43.91552734	n/a	11242.375	largeHSmallH	correct	congruent	0.40479	no	H	H
44.3203125	n/a	11346	responseLargeH	correct	n/a	0.40479	no	n/a	n/a
45.38232422	n/a	11617.875	largeHSmallH	correct	congruent	0.41895	no	H	H
45.80126953	n/a	11725.125	responseLargeH	correct	n/a	0.41895	no	n/a	n/a
46.86914062	n/a	11998.5	largeHSmallT	correct	incongruent	0.46533	no	H	T
47.33447266	n/a	12117.625	responseLargeH	correct	n/a	0.46533	no	n/a	n/a
48.40869141	n/a	12392.625	largeTSmallT	correct	congruent	0.56445	no	T	T
48.97314453	n/a	12537.125	responseLargeT	correct	n/a	0.56445	no	n/a	n/a
50.04882812	n/a	12812.5	largeTSmallH	correct	incongruent	0.58057	no	T	H
50.62939453	n/a	12961.125	responseLargeT	correct	n/a	0.58057	no	n/a	n/a
51.70214844	n/a	13235.75	largeHSmallH	correct	congruent	0.40869	no	H	H
52.11083984	n/a	13340.375	responseLargeH	correct	n/a	0.40869	no	n/a	n/a
53.18212891	n/a	13614.625	largeTSmallT	correct	congruent	0.37061	no	T	T
53.55273438	n/a	13709.5	responseLargeT	correct	n/a	0.37061	no	n/a	n/a
54.62207031	n/a	13983.25	largeHSmallT	correct	incongruent	0.50928	no	H	T
55.13134766	n/a	14113.625	responseLargeH	correct	n/a	0.50928	no	n/a	n/a
56.1953125	n/a	14386	largeTSmallH	correct	incongruent	0.39307	no	T	H
56.58837891	n/a	14486.625	responseLargeT	correct	n/a	0.39307	no	n/a	n/a
57.66162109	n/a	14761.375	largeHSmallT	correct	incongruent	0.39355	no	H	T
58.05517578	n/a	14862.125	responseLargeH	correct	n/a	0.39355	no	n/a	n/a
59.12841797	n/a	15136.875	largeHSmallT	error	incongruent	0.47266	no	H	T
59.60107422	n/a	15257.875	responseLargeT	error	n/a	0.47266	no	n/a	n/a
60.67529297	n/a	15532.875	largeHSmallT	correct	incongruent	0.47266	no	H	T
61.14794922	n/a	15653.875	responseLargeH	correct	n/a	0.47266	no	n/a	n/a
62.22167969	n/a	15928.75	largeTSmallH	correct	incongruent	0.60986	no	T	H
62.83154297	n/a	16084.875	responseLargeT	correct	n/a	0.60986	no	n/a	n/a
63.90185547	n/a	16358.875	largeHSmallT	correct	incongruent	0.41113	no	H	T
64.31298828	n/a	16464.125	responseLargeH	correct	n/a	0.41113	no	n/a	n/a
65.38183594	n/a	16737.75	largeTSmallT	correct	congruent	0.5249	no	T	T
65.90673828	n/a	16872.125	responseLargeT	correct	n/a	0.5249	no	n/a	n/a
66.98144531	n/a	17147.25	largeHSmallT	correct	incongruent	0.38672	no	H	T
67.36816406	n/a	17246.25	responseLargeH	correct	n/a	0.38672	no	n/a	n/a
68.44824219	n/a	17522.75	largeTSmallT	correct	congruent	0.48047	no	T	T
68.92871094	n/a	17645.75	responseLargeT	correct	n/a	0.48047	no	n/a	n/a
69.99511719	n/a	17918.75	largeTSmallH	correct	incongruent	0.49121	no	T	H
70.48632812	n/a	18044.5	responseLargeT	correct	n/a	0.49121	no	n/a	n/a
71.56835938	n/a	18321.5	largeHSmallH	correct	congruent	0.39844	no	H	H
71.96679688	n/a	18423.5	responseLargeH	correct	n/a	0.39844	no	n/a	n/a
73.04833984	n/a	18700.375	largeHSmallH	correct	congruent	0.45264	no	H	H
73.50097656	n/a	18816.25	responseLargeH	correct	n/a	0.45264	no	n/a	n/a
74.56835938	n/a	19089.5	largeHSmallH	correct	congruent	0.45557	no	H	H
75.02392578	n/a	19206.125	responseLargeH	correct	n/a	0.45557	no	n/a	n/a
76.1015625	n/a	19482	largeTSmallT	correct	congruent	0.48242	no	T	T
76.58398438	n/a	19605.5	responseLargeT	correct	n/a	0.48242	no	n/a	n/a
77.66064453	n/a	19881.125	largeTSmallH	correct	incongruent	0.48145	no	T	H
78.14208984	n/a	20004.375	responseLargeT	correct	n/a	0.48145	no	n/a	n/a
79.20800781	n/a	20277.25	largeHSmallT	correct	incongruent	0.54932	no	H	T
79.75732422	n/a	20417.875	responseLargeH	correct	n/a	0.54932	no	n/a	n/a
80.83496094	n/a	20693.75	largeTSmallT	correct	congruent	0.50244	no	T	T
81.33740234	n/a	20822.375	responseLargeT	correct	n/a	0.50244	no	n/a	n/a
82.40771484	n/a	21096.375	largeHSmallH	correct	congruent	0.44141	no	H	H
82.84912109	n/a	21209.375	responseLargeH	correct	n/a	0.44141	no	n/a	n/a
83.91455078	n/a	21482.125	largeTSmallH	correct	incongruent	0.43945	no	T	H
84.35400391	n/a	21594.625	responseLargeT	correct	n/a	0.43945	no	n/a	n/a
85.43457031	n/a	21871.25	largeHSmallT	correct	incongruent	0.41992	no	H	T
85.85449219	n/a	21978.75	responseLargeH	correct	n/a	0.41992	no	n/a	n/a
86.92773438	n/a	22253.5	largeTSmallH	correct	incongruent	0.51514	no	T	H
87.44287109	n/a	22385.375	responseLargeT	correct	n/a	0.51514	no	n/a	n/a
88.51464844	n/a	22659.75	largeHSmallH	correct	congruent	0.3457	no	H	H
88.86035156	n/a	22748.25	responseLargeH	correct	n/a	0.3457	no	n/a	n/a
89.94140625	n/a	23025	largeHSmallH	correct	congruent	0.47021	no	H	H
90.41162109	n/a	23145.375	responseLargeH	correct	n/a	0.47021	no	n/a	n/a
91.48779297	n/a	23420.875	largeTSmallH	correct	incongruent	0.36816	no	T	H
91.85595703	n/a	23515.125	responseLargeT	correct	n/a	0.36816	no	n/a	n/a
92.94091797	n/a	23792.875	largeHSmallH	correct	congruent	0.37402	no	H	H
93.31494141	n/a	23888.625	responseLargeH	correct	n/a	0.37402	no	n/a	n/a
94.38085938	n/a	24161.5	largeTSmallT	correct	congruent	0.50684	no	T	T
94.88769531	n/a	24291.25	responseLargeT	correct	n/a	0.50684	no	n/a	n/a
95.96777344	n/a	24567.75	largeHSmallH	correct	congruent	0.48779	no	H	H
96.45556641	n/a	24692.625	responseLargeH	correct	n/a	0.48779	no	n/a	n/a
97.52734375	n/a	24967	largeHSmallT	correct	incongruent	0.67969	no	H	T
98.20703125	n/a	25141	responseLargeH	correct	n/a	0.67969	no	n/a	n/a
99.28759766	n/a	25417.625	largeTSmallH	correct	incongruent	0.49023	no	T	H
99.77783203	n/a	25543.125	responseLargeT	correct	n/a	0.49023	no	n/a	n/a
100.8476562	n/a	25817	largeHSmallH	correct	congruent	0.43652	no	H	H
101.2841797	n/a	25928.75	responseLargeH	correct	n/a	0.43652	no	n/a	n/a
102.3544922	n/a	26202.75	largeTSmallT	correct	congruent	0.44287	no	T	T
102.7973633	n/a	26316.125	responseLargeT	correct	n/a	0.44287	no	n/a	n/a
103.8740234	n/a	26591.75	largeHSmallT	correct	incongruent	0.37598	no	H	T
104.25	n/a	26688	responseLargeH	correct	n/a	0.37598	no	n/a	n/a
105.3276367	n/a	26963.875	largeTSmallT	correct	congruent	0.41064	no	T	T
105.7382812	n/a	27069	responseLargeT	correct	n/a	0.41064	no	n/a	n/a
106.8076172	n/a	27342.75	largeHSmallH	correct	congruent	0.35889	no	H	H
107.1665039	n/a	27434.625	responseLargeH	correct	n/a	0.35889	no	n/a	n/a
108.2338867	n/a	27707.875	largeTSmallT	correct	congruent	0.41895	no	T	T
108.652832	n/a	27815.125	responseLargeT	correct	n/a	0.41895	no	n/a	n/a
109.7270508	n/a	28090.125	largeTSmallT	correct	congruent	0.47217	no	T	T
110.1992188	n/a	28211	responseLargeT	correct	n/a	0.47217	no	n/a	n/a
111.2607422	n/a	28482.75	largeTSmallH	error	incongruent	0.35205	no	T	H
111.612793	n/a	28572.875	responseLargeH	error	n/a	0.35205	no	n/a	n/a
112.6875	n/a	28848	largeHSmallT	correct	incongruent	0.35107	no	H	T
113.0385742	n/a	28937.875	responseLargeH	correct	n/a	0.35107	no	n/a	n/a
114.1005859	n/a	29209.75	largeTSmallT	correct	congruent	0.3999	no	T	T
114.5004883	n/a	29312.125	responseLargeT	correct	n/a	0.3999	no	n/a	n/a
115.5673828	n/a	29585.25	largeTSmallT	correct	congruent	0.45801	no	T	T
116.0253906	n/a	29702.5	responseLargeT	correct	n/a	0.45801	no	n/a	n/a
117.1005859	n/a	29977.75	largeHSmallT	correct	incongruent	0.47607	no	H	T
117.5766602	n/a	30099.625	responseLargeH	correct	n/a	0.47607	no	n/a	n/a
118.6469727	n/a	30373.625	largeTSmallT	correct	congruent	0.48779	no	T	T
119.1347656	n/a	30498.5	responseLargeT	correct	n/a	0.48779	no	n/a	n/a
120.2070312	n/a	30773	largeTSmallH	correct	incongruent	0.5127	no	T	H
120.7197266	n/a	30904.25	responseLargeT	correct	n/a	0.5127	no	n/a	n/a
121.7939453	n/a	31179.25	largeHSmallH	correct	congruent	0.44141	no	H	H
122.2353516	n/a	31292.25	responseLargeH	correct	n/a	0.44141	no	n/a	n/a
123.3139648	n/a	31568.375	largeHSmallH	correct	congruent	0.52148	no	H	H
123.8354492	n/a	31701.875	responseLargeH	correct	n/a	0.52148	no	n/a	n/a
124.9003906	n/a	31974.5	largeHSmallH	correct	congruent	0.48779	no	H	H
125.3881836	n/a	32099.375	responseLargeH	correct	n/a	0.48779	no	n/a	n/a
126.4604492	n/a	32373.875	largeTSmallH	correct	incongruent	0.64307	no	T	H
127.1035156	n/a	32538.5	responseLargeT	correct	n/a	0.64307	no	n/a	n/a
128.1801758	n/a	32814.125	largeHSmallH	correct	congruent	0.42236	no	H	H
128.6025391	n/a	32922.25	responseLargeH	correct	n/a	0.42236	no	n/a	n/a
129.6733398	n/a	33196.375	largeTSmallH	correct	incongruent	0.5332	no	T	H
130.206543	n/a	33332.875	responseLargeT	correct	n/a	0.5332	no	n/a	n/a
131.2734375	n/a	33606	largeTSmallH	correct	incongruent	0.61377	no	T	H
131.887207	n/a	33763.125	responseLargeT	correct	n/a	0.61377	no	n/a	n/a
132.9667969	n/a	34039.5	largeHSmallH	correct	congruent	0.5166	no	H	H
133.4833984	n/a	34171.75	responseLargeH	correct	n/a	0.5166	no	n/a	n/a
134.5532227	n/a	34445.625	largeTSmallT	correct	congruent	0.39502	no	T	T
134.9482422	n/a	34546.75	responseLargeT	correct	n/a	0.39502	no	n/a	n/a
136.0200195	n/a	34821.125	largeTSmallH	correct	incongruent	0.40527	no	T	H
136.425293	n/a	34924.875	responseLargeT	correct	n/a	0.40527	no	n/a	n/a
137.5	n/a	35200	largeHSmallT	correct	incongruent	0.39844	no	H	T
137.8984375	n/a	35302	responseLargeH	correct	n/a	0.39844	no	n/a	n/a
138.9667969	n/a	35575.5	largeTSmallH	correct	incongruent	0.44385	no	T	H
139.4106445	n/a	35689.125	responseLargeT	correct	n/a	0.44385	no	n/a	n/a
140.4868164	n/a	35964.625	largeHSmallH	correct	congruent	0.39014	no	H	H
140.8769531	n/a	36064.5	responseLargeH	correct	n/a	0.39014	no	n/a	n/a
141.953125	n/a	36340	largeHSmallH	correct	congruent	0.50635	no	H	H
142.4594727	n/a	36469.625	responseLargeH	correct	n/a	0.50635	no	n/a	n/a
143.5263672	n/a	36742.75	largeHSmallH	correct	congruent	0.48779	no	H	H
144.0141602	n/a	36867.625	responseLargeH	correct	n/a	0.48779	no	n/a	n/a
145.0864258	n/a	37142.125	largeHSmallH	error	congruent	0.41309	no	H	H
145.4995117	n/a	37247.875	responseLargeT	error	n/a	0.41309	no	n/a	n/a
146.5668945	n/a	37521.125	largeHSmallH	correct	congruent	0.48682	no	H	H
147.0537109	n/a	37645.75	responseLargeH	correct	n/a	0.48682	no	n/a	n/a
148.1264648	n/a	37920.375	largeHSmallT	correct	incongruent	0.47705	no	H	T
148.6035156	n/a	38042.5	responseLargeH	correct	n/a	0.47705	no	n/a	n/a
149.6728516	n/a	38316.25	largeHSmallT	correct	incongruent	0.48682	no	H	T
150.159668	n/a	38440.875	responseLargeH	correct	n/a	0.48682	no	n/a	n/a
151.2329102	n/a	38715.625	largeHSmallT	correct	incongruent	0.43164	no	H	T
151.6645508	n/a	38826.125	responseLargeH	correct	n/a	0.43164	no	n/a	n/a
152.7265625	n/a	39098	largeHSmallT	correct	incongruent	0.43555	no	H	T
153.1621094	n/a	39209.5	responseLargeH	correct	n/a	0.43555	no	n/a	n/a
154.2329102	n/a	39483.625	largeHSmallH	correct	congruent	0.43164	no	H	H
154.6645508	n/a	39594.125	responseLargeH	correct	n/a	0.43164	no	n/a	n/a
155.7397461	n/a	39869.375	largeTSmallH	correct	incongruent	0.51855	no	T	H
156.2583008	n/a	40002.125	responseLargeT	correct	n/a	0.51855	no	n/a	n/a
157.3261719	n/a	40275.5	largeTSmallH	correct	incongruent	0.48047	no	T	H
157.8066406	n/a	40398.5	responseLargeT	correct	n/a	0.48047	no	n/a	n/a
158.8730469	n/a	40671.5	largeHSmallH	correct	congruent	0.41504	no	H	H
159.2880859	n/a	40777.75	responseLargeH	correct	n/a	0.41504	no	n/a	n/a
160.3525391	n/a	41050.25	largeHSmallT	correct	incongruent	0.43652	no	H	T
160.7890625	n/a	41162	responseLargeH	correct	n/a	0.43652	no	n/a	n/a
161.859375	n/a	41436	largeTSmallT	correct	congruent	0.46875	no	T	T
162.328125	n/a	41556	responseLargeT	correct	n/a	0.46875	no	n/a	n/a
163.3925781	n/a	41828.5	largeHSmallH	correct	congruent	0.39941	no	H	H
163.7919922	n/a	41930.75	responseLargeH	correct	n/a	0.39941	no	n/a	n/a
164.8725586	n/a	42207.375	largeHSmallH	correct	congruent	0.45898	no	H	H
165.331543	n/a	42324.875	responseLargeH	correct	n/a	0.45898	no	n/a	n/a
166.4057617	n/a	42599.875	largeTSmallT	correct	congruent	0.42627	no	T	T
166.8320312	n/a	42709	responseLargeT	correct	n/a	0.42627	no	n/a	n/a
167.9125977	n/a	42985.625	largeHSmallH	correct	congruent	0.38477	no	H	H
168.2973633	n/a	43084.125	responseLargeH	correct	n/a	0.38477	no	n/a	n/a
169.3793945	n/a	43361.125	largeTSmallH	correct	incongruent	0.48438	no	T	H
169.8637695	n/a	43485.125	responseLargeT	correct	n/a	0.48438	no	n/a	n/a
170.9394531	n/a	43760.5	largeTSmallH	correct	incongruent	0.46777	no	T	H
171.4072266	n/a	43880.25	responseLargeT	correct	n/a	0.46777	no	n/a	n/a
172.4726562	n/a	44153	largeHSmallT	correct	incongruent	0.39697	no	H	T
172.8696289	n/a	44254.625	responseLargeH	correct	n/a	0.39697	no	n/a	n/a
173.9394531	n/a	44528.5	largeTSmallT	correct	congruent	0.36621	no	T	T
174.3056641	n/a	44622.25	responseLargeT	correct	n/a	0.36621	no	n/a	n/a
175.3793945	n/a	44897.125	largeTSmallT	correct	congruent	0.45703	no	T	T
175.8364258	n/a	45014.125	responseLargeT	correct	n/a	0.45703	no	n/a	n/a
176.9125977	n/a	45289.625	largeTSmallH	correct	incongruent	0.46875	no	T	H
177.3813477	n/a	45409.625	responseLargeT	correct	n/a	0.46875	no	n/a	n/a
178.4458008	n/a	45682.125	largeHSmallH	correct	congruent	0.40234	no	H	H
178.8481445	n/a	45785.125	responseLargeH	correct	n/a	0.40234	no	n/a	n/a
179.9257812	n/a	46061	largeHSmallH	correct	congruent	0.44141	no	H	H
180.3671875	n/a	46174	responseLargeH	correct	n/a	0.44141	no	n/a	n/a
181.4321289	n/a	46446.625	largeTSmallT	correct	congruent	0.47021	no	T	T
181.9023438	n/a	46567	responseLargeT	correct	n/a	0.47021	no	n/a	n/a
182.9790039	n/a	46842.625	largeTSmallH	error	incongruent	0.40088	no	T	H
183.3798828	n/a	46945.25	responseLargeH	error	n/a	0.40088	no	n/a	n/a
184.4458008	n/a	47218.125	largeTSmallT	correct	congruent	0.46045	no	T	T
184.90625	n/a	47336	responseLargeT	correct	n/a	0.46045	no	n/a	n/a
185.965332	n/a	47607.125	largeTSmallT	correct	congruent	0.46289	no	T	T
186.4282227	n/a	47725.625	responseLargeT	correct	n/a	0.46289	no	n/a	n/a
187.4985352	n/a	47999.625	largeTSmallT	correct	congruent	0.38623	no	T	T
187.8847656	n/a	48098.5	responseLargeT	correct	n/a	0.38623	no	n/a	n/a
188.9521484	n/a	48371.75	largeTSmallH	correct	incongruent	0.4458	no	T	H
189.3979492	n/a	48485.875	responseLargeT	correct	n/a	0.4458	no	n/a	n/a
190.472168	n/a	48760.875	largeTSmallT	correct	congruent	0.41064	no	T	T
190.8828125	n/a	48866	responseLargeT	correct	n/a	0.41064	no	n/a	n/a
191.9516602	n/a	49139.625	largeTSmallH	correct	incongruent	0.40918	no	T	H
192.3608398	n/a	49244.375	responseLargeT	correct	n/a	0.40918	no	n/a	n/a
193.4321289	n/a	49518.625	largeHSmallH	correct	congruent	0.47656	no	H	H
193.9086914	n/a	49640.625	responseLargeH	correct	n/a	0.47656	no	n/a	n/a
194.9785156	n/a	49914.5	largeTSmallH	correct	incongruent	0.48096	no	T	H
195.4594727	n/a	50037.625	responseLargeT	correct	n/a	0.48096	no	n/a	n/a
196.5385742	n/a	50313.875	largeTSmallT	correct	congruent	0.40723	no	T	T
196.9458008	n/a	50418.125	responseLargeT	correct	n/a	0.40723	no	n/a	n/a
198.0185547	n/a	50692.75	largeTSmallH	correct	incongruent	0.50928	no	T	H
198.527832	n/a	50823.125	responseLargeT	correct	n/a	0.50928	no	n/a	n/a
199.5917969	n/a	51095.5	largeHSmallH	correct	congruent	0.43457	no	H	H
200.0263672	n/a	51206.75	responseLargeH	correct	n/a	0.43457	no	n/a	n/a
201.1118164	n/a	51484.625	largeTSmallT	correct	congruent	0.45508	no	T	T
201.5668945	n/a	51601.125	responseLargeT	correct	n/a	0.45508	no	n/a	n/a
202.6318359	n/a	51873.75	largeTSmallH	correct	incongruent	0.4043	no	T	H
203.0361328	n/a	51977.25	responseLargeT	correct	n/a	0.4043	no	n/a	n/a
204.0986328	n/a	52249.25	largeTSmallH	correct	incongruent	0.43896	no	T	H
204.5375977	n/a	52361.625	responseLargeT	correct	n/a	0.43896	no	n/a	n/a
205.6181641	n/a	52638.25	largeHSmallH	correct	congruent	0.50928	no	H	H
206.1274414	n/a	52768.625	responseLargeH	correct	n/a	0.50928	no	n/a	n/a
207.2050781	n/a	53044.5	largeHSmallT	correct	incongruent	0.46045	no	H	T
207.6655273	n/a	53162.375	responseLargeH	correct	n/a	0.46045	no	n/a	n/a
208.7382812	n/a	53437	largeHSmallH	correct	congruent	0.61523	no	H	H
209.3535156	n/a	53594.5	responseLargeH	correct	n/a	0.61523	no	n/a	n/a
210.418457	n/a	53867.125	largeHSmallH	correct	congruent	0.45361	no	H	H
210.8720703	n/a	53983.25	responseLargeH	correct	n/a	0.45361	no	n/a	n/a
211.9516602	n/a	54259.625	largeHSmallT	correct	incongruent	0.45264	no	H	T
212.4042969	n/a	54375.5	responseLargeH	correct	n/a	0.45264	no	n/a	n/a
213.4716797	n/a	54648.75	largeTSmallH	correct	incongruent	0.53223	no	T	H
214.0039062	n/a	54785	responseLargeT	correct	n/a	0.53223	no	n/a	n/a
215.0849609	n/a	55061.75	largeTSmallT	correct	congruent	0.48877	no	T	T
215.5737305	n/a	55186.875	responseLargeT	correct	n/a	0.48877	no	n/a	n/a
216.6445312	n/a	55461	largeTSmallT	correct	congruent	0.45508	no	T	T
217.0996094	n/a	55577.5	responseLargeT	correct	n/a	0.45508	no	n/a	n/a
218.1650391	n/a	55850.25	largeHSmallT	correct	incongruent	0.5957	no	H	T
218.7607422	n/a	56002.75	responseLargeH	correct	n/a	0.5957	no	n/a	n/a
219.8183594	n/a	56273.5	largeHSmallH	correct	congruent	0.64502	no	H	H
220.4633789	n/a	56438.625	responseLargeH	correct	n/a	0.64502	no	n/a	n/a
221.5380859	n/a	56713.75	largeTSmallT	correct	congruent	0.47559	no	T	T
222.0136719	n/a	56835.5	responseLargeT	correct	n/a	0.47559	no	n/a	n/a
223.0844727	n/a	57109.625	largeHSmallT	correct	incongruent	0.54736	no	H	T
223.6318359	n/a	57249.75	responseLargeH	correct	n/a	0.54736	no	n/a	n/a
224.7114258	n/a	57526.125	largeTSmallH	correct	incongruent	0.48193	no	T	H
225.1933594	n/a	57649.5	responseLargeT	correct	n/a	0.48193	no	n/a	n/a
226.2709961	n/a	57925.375	largeHSmallT	correct	incongruent	0.48975	no	H	T
226.7607422	n/a	58050.75	responseLargeH	correct	n/a	0.48975	no	n/a	n/a
227.8310547	n/a	58324.75	largeTSmallT	correct	congruent	0.48926	no	T	T
228.3203125	n/a	58450	responseLargeT	correct	n/a	0.48926	no	n/a	n/a
229.3911133	n/a	58724.125	largeTSmallT	correct	congruent	0.4624	no	T	T
229.8535156	n/a	58842.5	responseLargeT	correct	n/a	0.4624	no	n/a	n/a
230.9111328	n/a	59113.25	largeTSmallH	error	incongruent	0.36914	no	T	H
231.2802734	n/a	59207.75	responseLargeH	error	n/a	0.36914	no	n/a	n/a
232.3510742	n/a	59481.875	largeHSmallT	correct	incongruent	0.4126	no	H	T
232.7636719	n/a	59587.5	responseLargeH	correct	n/a	0.4126	no	n/a	n/a
233.8310547	n/a	59860.75	largeHSmallT	correct	incongruent	0.42529	no	H	T
234.2563477	n/a	59969.625	responseLargeH	correct	n/a	0.42529	no	n/a	n/a
235.3374023	n/a	60246.375	largeHSmallT	correct	incongruent	0.54004	no	H	T
235.8774414	n/a	60384.625	responseLargeH	correct	n/a	0.54004	no	n/a	n/a
236.9511719	n/a	60659.5	largeHSmallH	correct	congruent	0.43359	no	H	H
237.3847656	n/a	60770.5	responseLargeH	correct	n/a	0.43359	no	n/a	n/a
238.4575195	n/a	61045.125	largeTSmallT	correct	congruent	0.49023	no	T	T
238.9477539	n/a	61170.625	responseLargeT	correct	n/a	0.49023	no	n/a	n/a
240.0048828	n/a	61441.25	largeHSmallT	correct	incongruent	0.46631	no	H	T
240.4711914	n/a	61560.625	responseLargeH	correct	n/a	0.46631	no	n/a	n/a
241.5375977	n/a	61833.625	largeHSmallH	correct	congruent	0.44189	no	H	H
241.9794922	n/a	61946.75	responseLargeH	correct	n/a	0.44189	no	n/a	n/a
243.0576172	n/a	62222.75	largeHSmallT	correct	incongruent	0.54688	no	H	T
243.6044922	n/a	62362.75	responseLargeH	correct	n/a	0.54688	no	n/a	n/a
244.6708984	n/a	62635.75	largeTSmallH	correct	incongruent	0.53564	no	T	H
245.206543	n/a	62772.875	responseLargeT	correct	n/a	0.53564	no	n/a	n/a
246.2841797	n/a	63048.75	largeHSmallH	correct	congruent	0.41504	no	H	H
246.6992188	n/a	63155	responseLargeH	correct	n/a	0.41504	no	n/a	n/a
247.7636719	n/a	63427.5	largeHSmallT	correct	incongruent	0.5293	no	H	T
248.2929688	n/a	63563	responseLargeH	correct	n/a	0.5293	no	n/a	n/a
249.3774414	n/a	63840.625	largeHSmallH	correct	congruent	0.42334	no	H	H
249.8007812	n/a	63949	responseLargeH	correct	n/a	0.42334	no	n/a	n/a
250.8706055	n/a	64222.875	largeTSmallH	correct	incongruent	0.52051	no	T	H
251.3911133	n/a	64356.125	responseLargeT	correct	n/a	0.52051	no	n/a	n/a
252.4570312	n/a	64629	largeHSmallT	correct	incongruent	0.36035	no	H	T
252.8173828	n/a	64721.25	responseLargeH	correct	n/a	0.36035	no	n/a	n/a
253.8974609	n/a	64997.75	largeTSmallH	correct	incongruent	0.5293	no	T	H
254.4267578	n/a	65133.25	responseLargeT	correct	n/a	0.5293	no	n/a	n/a
255.4970703	n/a	65407.25	largeTSmallT	correct	congruent	0.4707	no	T	T
255.9677734	n/a	65527.75	responseLargeT	correct	n/a	0.4707	no	n/a	n/a
257.0302734	n/a	65799.75	largeHSmallH	correct	congruent	0.39893	no	H	H
257.4291992	n/a	65901.875	responseLargeH	correct	n/a	0.39893	no	n/a	n/a
258.4970703	n/a	66175.25	largeHSmallT	correct	incongruent	0.44238	no	H	T
258.9394531	n/a	66288.5	responseLargeH	correct	n/a	0.44238	no	n/a	n/a
260.0170898	n/a	66564.375	largeHSmallT	correct	incongruent	0.56055	no	H	T
260.5776367	n/a	66707.875	responseLargeH	correct	n/a	0.56055	no	n/a	n/a
261.6435547	n/a	66980.75	largeTSmallH	correct	incongruent	0.66553	no	T	H
262.309082	n/a	67151.125	responseLargeT	correct	n/a	0.66553	no	n/a	n/a
263.3769531	n/a	67424.5	largeTSmallT	correct	congruent	0.50488	no	T	T
263.8818359	n/a	67553.75	responseLargeT	correct	n/a	0.50488	no	n/a	n/a
264.9506836	n/a	67827.375	largeHSmallT	correct	incongruent	0.50293	no	H	T
265.4536133	n/a	67956.125	responseLargeH	correct	n/a	0.50293	no	n/a	n/a
266.5366211	n/a	68233.375	largeTSmallT	correct	congruent	0.50244	no	T	T
267.0390625	n/a	68362	responseLargeT	correct	n/a	0.50244	no	n/a	n/a
268.1103516	n/a	68636.25	largeTSmallT	correct	congruent	0.49609	no	T	T
268.6064453	n/a	68763.25	responseLargeT	correct	n/a	0.49609	no	n/a	n/a
269.6835938	n/a	69039	largeTSmallT	correct	congruent	0.44385	no	T	T
270.1274414	n/a	69152.625	responseLargeT	correct	n/a	0.44385	no	n/a	n/a
271.1899414	n/a	69424.625	largeTSmallH	correct	incongruent	0.40283	no	T	H
271.5927734	n/a	69527.75	responseLargeT	correct	n/a	0.40283	no	n/a	n/a
272.65625	n/a	69800	largeTSmallH	correct	incongruent	0.38965	no	T	H
273.0458984	n/a	69899.75	responseLargeT	correct	n/a	0.38965	no	n/a	n/a
274.1098633	n/a	70172.125	largeHSmallH	correct	congruent	0.4668	no	H	H
274.5766602	n/a	70291.625	responseLargeH	correct	n/a	0.4668	no	n/a	n/a
275.6425781	n/a	70564.5	largeHSmallH	correct	congruent	0.46729	no	H	H
276.1098633	n/a	70684.125	responseLargeH	correct	n/a	0.46729	no	n/a	n/a
277.1899414	n/a	70960.625	largeHSmallT	error	incongruent	0.54492	no	H	T
277.7348633	n/a	71100.125	responseLargeT	error	n/a	0.54492	no	n/a	n/a
278.8032227	n/a	71373.625	largeHSmallT	correct	incongruent	0.60742	no	H	T
279.4106445	n/a	71529.125	responseLargeH	correct	n/a	0.60742	no	n/a	n/a
280.4833984	n/a	71803.75	largeTSmallT	correct	congruent	0.47314	no	T	T
280.956543	n/a	71924.875	responseLargeT	correct	n/a	0.47314	no	n/a	n/a
282.0297852	n/a	72199.625	largeTSmallH	correct	incongruent	0.4834	no	T	H
282.5131836	n/a	72323.375	responseLargeT	correct	n/a	0.4834	no	n/a	n/a
283.5766602	n/a	72595.625	largeTSmallH	correct	incongruent	0.45117	no	T	H
284.027832	n/a	72711.125	responseLargeT	correct	n/a	0.45117	no	n/a	n/a
285.0961914	n/a	72984.625	largeHSmallT	correct	incongruent	0.37451	no	H	T
285.4707031	n/a	73080.5	responseLargeH	correct	n/a	0.37451	no	n/a	n/a
286.5498047	n/a	73356.75	largeTSmallH	error	incongruent	0.50342	no	T	H
287.0532227	n/a	73485.625	responseLargeH	error	n/a	0.50342	no	n/a	n/a
288.1230469	n/a	73759.5	largeTSmallH	correct	incongruent	0.47021	no	T	H
288.5932617	n/a	73879.875	responseLargeT	correct	n/a	0.47021	no	n/a	n/a
289.6694336	n/a	74155.375	largeHSmallT	correct	incongruent	0.44482	no	H	T
290.1142578	n/a	74269.25	responseLargeH	correct	n/a	0.44482	no	n/a	n/a
291.1762695	n/a	74541.125	largeTSmallT	correct	congruent	0.40918	no	T	T
291.5854492	n/a	74645.875	responseLargeT	correct	n/a	0.40918	no	n/a	n/a
292.65625	n/a	74920	largeHSmallT	correct	incongruent	0.43164	no	H	T
293.0878906	n/a	75030.5	responseLargeH	correct	n/a	0.43164	no	n/a	n/a
294.1630859	n/a	75305.75	largeHSmallH	correct	congruent	0.43652	no	H	H
294.5996094	n/a	75417.5	responseLargeH	correct	n/a	0.43652	no	n/a	n/a
295.6694336	n/a	75691.375	largeHSmallH	correct	congruent	0.39062	no	H	H
296.0600586	n/a	75791.375	responseLargeH	correct	n/a	0.39062	no	n/a	n/a
297.1225586	n/a	76063.375	largeTSmallT	correct	congruent	0.46436	no	T	T
297.5869141	n/a	76182.25	responseLargeT	correct	n/a	0.46436	no	n/a	n/a
298.65625	n/a	76456	largeTSmallH	correct	incongruent	0.36621	no	T	H
299.0224609	n/a	76549.75	responseLargeT	correct	n/a	0.36621	no	n/a	n/a
300.0825195	n/a	76821.125	largeTSmallT	correct	congruent	0.43896	no	T	T
300.5214844	n/a	76933.5	responseLargeT	correct	n/a	0.43896	no	n/a	n/a
301.6025391	n/a	77210.25	largeTSmallH	correct	incongruent	0.37109	no	T	H
301.9736328	n/a	77305.25	responseLargeT	correct	n/a	0.37109	no	n/a	n/a
303.0556641	n/a	77582.25	largeHSmallT	correct	incongruent	0.43994	no	H	T
303.4956055	n/a	77694.875	responseLargeH	correct	n/a	0.43994	no	n/a	n/a
304.5625	n/a	77968	largeTSmallH	correct	incongruent	0.40479	no	T	H
304.9672852	n/a	78071.625	responseLargeT	correct	n/a	0.40479	no	n/a	n/a
306.0292969	n/a	78343.5	largeHSmallH	correct	congruent	0.32617	no	H	H
306.3554688	n/a	78427	responseLargeH	correct	n/a	0.32617	no	n/a	n/a
307.4160156	n/a	78698.5	largeHSmallT	error	incongruent	0.31592	no	H	T
307.7319336	n/a	78779.375	responseLargeT	error	n/a	0.31592	no	n/a	n/a
308.8022461	n/a	79053.375	largeTSmallT	correct	congruent	0.38721	no	T	T
309.1894531	n/a	79152.5	responseLargeT	correct	n/a	0.38721	no	n/a	n/a
310.2558594	n/a	79425.5	largeTSmallH	correct	incongruent	0.49805	no	T	H
310.7539062	n/a	79553	responseLargeT	correct	n/a	0.49805	no	n/a	n/a
311.815918	n/a	79824.875	largeHSmallT	correct	incongruent	0.35693	no	H	T
312.1728516	n/a	79916.25	responseLargeH	correct	n/a	0.35693	no	n/a	n/a
313.2421875	n/a	80190	largeTSmallH	correct	incongruent	0.48633	no	T	H
313.7285156	n/a	80314.5	responseLargeT	correct	n/a	0.48633	no	n/a	n/a
314.8022461	n/a	80589.375	largeTSmallT	correct	congruent	0.43652	no	T	T
315.2387695	n/a	80701.125	responseLargeT	correct	n/a	0.43652	no	n/a	n/a
316.309082	n/a	80975.125	largeTSmallT	correct	congruent	0.45215	no	T	T
316.7612305	n/a	81090.875	responseLargeT	correct	n/a	0.45215	no	n/a	n/a
317.8422852	n/a	81367.625	largeHSmallH	correct	congruent	0.35498	no	H	H
318.1972656	n/a	81458.5	responseLargeH	correct	n/a	0.35498	no	n/a	n/a
319.269043	n/a	81732.875	largeHSmallT	correct	incongruent	0.48096	no	H	T
319.75	n/a	81856	responseLargeH	correct	n/a	0.48096	no	n/a	n/a
320.8154297	n/a	82128.75	largeTSmallH	correct	incongruent	0.55322	no	T	H
321.3686523	n/a	82270.375	responseLargeT	correct	n/a	0.55322	no	n/a	n/a
322.4418945	n/a	82545.125	largeHSmallT	correct	incongruent	0.39014	no	H	T
322.8320312	n/a	82645	responseLargeH	correct	n/a	0.39014	no	n/a	n/a
323.9086914	n/a	82920.625	largeHSmallH	correct	congruent	0.46436	no	H	H
324.3730469	n/a	83039.5	responseLargeH	correct	n/a	0.46436	no	n/a	n/a
325.4418945	n/a	83313.125	largeTSmallT	correct	congruent	0.48389	no	T	T
325.9257812	n/a	83437	responseLargeT	correct	n/a	0.48389	no	n/a	n/a
327.0019531	n/a	83712.5	largeTSmallH	correct	incongruent	0.45166	no	T	H
327.4536133	n/a	83828.125	responseLargeT	correct	n/a	0.45166	no	n/a	n/a
328.5219727	n/a	84101.625	largeTSmallT	correct	congruent	0.44873	no	T	T
328.9707031	n/a	84216.5	responseLargeT	correct	n/a	0.44873	no	n/a	n/a
330.0419922	n/a	84490.75	largeTSmallT	correct	congruent	0.47998	no	T	T
330.5219727	n/a	84613.625	responseLargeT	correct	n/a	0.47998	no	n/a	n/a
331.6020508	n/a	84890.125	largeTSmallT	correct	congruent	0.49365	no	T	T
332.0957031	n/a	85016.5	responseLargeT	correct	n/a	0.49365	no	n/a	n/a
333.1616211	n/a	85289.375	largeHSmallH	correct	congruent	0.50684	no	H	H
333.668457	n/a	85419.125	responseLargeH	correct	n/a	0.50684	no	n/a	n/a
334.7348633	n/a	85692.125	largeTSmallT	correct	congruent	0.44482	no	T	T
335.1796875	n/a	85806	responseLargeT	correct	n/a	0.44482	no	n/a	n/a
336.2553711	n/a	86081.375	largeHSmallH	correct	congruent	0.43799	no	H	H
336.6933594	n/a	86193.5	responseLargeH	correct	n/a	0.43799	no	n/a	n/a
337.7617188	n/a	86467	largeHSmallT	correct	incongruent	0.46729	no	H	T
338.2290039	n/a	86586.625	responseLargeH	correct	n/a	0.46729	no	n/a	n/a
349.1347656	n/a	89378.5	largeHSmallH	correct	congruent	0.67334	no	H	H
349.8081055	n/a	89550.875	responseSmallH	correct	n/a	0.67334	no	n/a	n/a
350.8813477	n/a	89825.625	largeHSmallT	correct	incongruent	0.4458	no	H	T
351.3271484	n/a	89939.75	responseSmallT	correct	n/a	0.4458	no	n/a	n/a
352.3881836	n/a	90211.375	largeTSmallH	correct	incongruent	0.60059	no	T	H
352.9887695	n/a	90365.125	responseSmallH	correct	n/a	0.60059	no	n/a	n/a
354.0678711	n/a	90641.375	largeHSmallH	correct	congruent	0.57422	no	H	H
354.6420898	n/a	90788.375	responseSmallH	correct	n/a	0.57422	no	n/a	n/a
355.7211914	n/a	91064.625	largeHSmallH	correct	congruent	0.44873	no	H	H
356.1699219	n/a	91179.5	responseSmallH	correct	n/a	0.44873	no	n/a	n/a
357.2412109	n/a	91453.75	largeHSmallH	correct	congruent	0.47852	no	H	H
357.7197266	n/a	91576.25	responseSmallH	correct	n/a	0.47852	no	n/a	n/a
358.7875977	n/a	91849.625	largeHSmallH	correct	congruent	0.50488	no	H	H
359.2924805	n/a	91978.875	responseSmallH	correct	n/a	0.50488	no	n/a	n/a
360.3613281	n/a	92252.5	largeHSmallT	correct	incongruent	0.51416	no	H	T
360.8754883	n/a	92384.125	responseSmallT	correct	n/a	0.51416	no	n/a	n/a
361.9350586	n/a	92655.375	largeHSmallT	correct	incongruent	0.40332	no	H	T
362.3383789	n/a	92758.625	responseSmallT	correct	n/a	0.40332	no	n/a	n/a
363.4008789	n/a	93030.625	largeHSmallH	correct	congruent	0.47168	no	H	H
363.8725586	n/a	93151.375	responseSmallH	correct	n/a	0.47168	no	n/a	n/a
364.9345703	n/a	93423.25	largeHSmallH	correct	congruent	0.47998	no	H	H
365.4145508	n/a	93546.125	responseSmallH	correct	n/a	0.47998	no	n/a	n/a
366.480957	n/a	93819.125	largeTSmallT	correct	congruent	0.46777	no	T	T
366.9487305	n/a	93938.875	responseSmallT	correct	n/a	0.46777	no	n/a	n/a
368.027832	n/a	94215.125	largeTSmallT	correct	congruent	0.39111	no	T	T
368.4189453	n/a	94315.25	responseSmallT	correct	n/a	0.39111	no	n/a	n/a
369.4941406	n/a	94590.5	largeHSmallH	correct	congruent	0.38721	no	H	H
369.8813477	n/a	94689.625	responseSmallH	correct	n/a	0.38721	no	n/a	n/a
370.9609375	n/a	94966	largeHSmallT	correct	incongruent	0.37012	no	H	T
371.3310547	n/a	95060.75	responseSmallT	correct	n/a	0.37012	no	n/a	n/a
372.4140625	n/a	95338	largeHSmallH	correct	congruent	0.47461	no	H	H
372.8886719	n/a	95459.5	responseSmallH	correct	n/a	0.47461	no	n/a	n/a
373.9472656	n/a	95730.5	largeHSmallH	correct	congruent	0.39062	no	H	H
374.3378906	n/a	95830.5	responseSmallH	correct	n/a	0.39062	no	n/a	n/a
375.4003906	n/a	96102.5	largeHSmallT	correct	incongruent	0.44189	no	H	T
375.8422852	n/a	96215.625	responseSmallT	correct	n/a	0.44189	no	n/a	n/a
376.9204102	n/a	96491.625	largeTSmallT	error	congruent	0.5415	no	T	T
377.4619141	n/a	96630.25	responseSmallH	error	n/a	0.5415	no	n/a	n/a
378.5336914	n/a	96904.625	largeHSmallH	correct	congruent	0.60498	no	H	H
379.1386719	n/a	97059.5	responseSmallH	correct	n/a	0.60498	no	n/a	n/a
380.2138672	n/a	97334.75	largeTSmallT	correct	congruent	0.39111	no	T	T
380.6049805	n/a	97434.875	responseSmallT	correct	n/a	0.39111	no	n/a	n/a
381.6674805	n/a	97706.875	largeTSmallH	correct	incongruent	0.55469	no	T	H
382.222168	n/a	97848.875	responseSmallH	correct	n/a	0.55469	no	n/a	n/a
383.2939453	n/a	98123.25	largeTSmallH	correct	incongruent	0.52832	no	T	H
383.8222656	n/a	98258.5	responseSmallH	correct	n/a	0.52832	no	n/a	n/a
384.8935547	n/a	98532.75	largeTSmallT	correct	congruent	0.46338	no	T	T
385.3569336	n/a	98651.375	responseSmallT	correct	n/a	0.46338	no	n/a	n/a
386.4404297	n/a	98928.75	largeTSmallH	correct	incongruent	0.3999	no	T	H
386.840332	n/a	99031.125	responseSmallH	correct	n/a	0.3999	no	n/a	n/a
387.9204102	n/a	99307.625	largeTSmallT	correct	congruent	0.40137	no	T	T
388.3217773	n/a	99410.375	responseSmallT	correct	n/a	0.40137	no	n/a	n/a
389.4003906	n/a	99686.5	largeTSmallH	correct	incongruent	0.47363	no	T	H
389.8740234	n/a	99807.75	responseSmallH	correct	n/a	0.47363	no	n/a	n/a
390.9467773	n/a	100082.375	largeTSmallT	correct	congruent	0.4043	no	T	T
391.3510742	n/a	100185.875	responseSmallT	correct	n/a	0.4043	no	n/a	n/a
392.4267578	n/a	100461.25	largeHSmallH	correct	congruent	0.49316	no	H	H
392.9199219	n/a	100587.5	responseSmallH	correct	n/a	0.49316	no	n/a	n/a
393.9868164	n/a	100860.625	largeTSmallH	correct	incongruent	0.6123	no	T	H
394.5991211	n/a	101017.375	responseSmallH	correct	n/a	0.6123	no	n/a	n/a
395.6669922	n/a	101290.75	largeTSmallT	correct	congruent	0.58154	no	T	T
396.2485352	n/a	101439.625	responseSmallT	correct	n/a	0.58154	no	n/a	n/a
397.3203125	n/a	101714	largeHSmallT	error	incongruent	0.42871	no	H	T
397.7490234	n/a	101823.75	responseSmallH	error	n/a	0.42871	no	n/a	n/a
398.8266602	n/a	102099.625	largeTSmallT	correct	congruent	0.63818	no	T	T
399.4648438	n/a	102263	responseSmallT	correct	n/a	0.63818	no	n/a	n/a
400.5332031	n/a	102536.5	largeTSmallT	correct	congruent	0.4502	no	T	T
400.9833984	n/a	102651.75	responseSmallT	correct	n/a	0.4502	no	n/a	n/a
402.0532227	n/a	102925.625	largeHSmallT	correct	incongruent	0.54736	no	H	T
402.6005859	n/a	103065.75	responseSmallT	correct	n/a	0.54736	no	n/a	n/a
403.6665039	n/a	103338.625	largeTSmallT	correct	congruent	0.43457	no	T	T
404.1010742	n/a	103449.875	responseSmallT	correct	n/a	0.43457	no	n/a	n/a
405.1733398	n/a	103724.375	largeTSmallT	correct	congruent	0.479	no	T	T
405.6523438	n/a	103847	responseSmallT	correct	n/a	0.479	no	n/a	n/a
406.7333984	n/a	104123.75	largeTSmallH	error	incongruent	0.47314	no	T	H
407.206543	n/a	104244.875	responseSmallT	error	n/a	0.47314	no	n/a	n/a
408.2797852	n/a	104519.625	largeTSmallH	correct	incongruent	0.49268	no	T	H
408.7724609	n/a	104645.75	responseSmallH	correct	n/a	0.49268	no	n/a	n/a
409.8530273	n/a	104922.375	largeHSmallT	correct	incongruent	0.52246	no	H	T
410.3754883	n/a	105056.125	responseSmallT	correct	n/a	0.52246	no	n/a	n/a
411.4399414	n/a	105328.625	largeTSmallT	correct	congruent	0.46436	no	T	T
411.9042969	n/a	105447.5	responseSmallT	correct	n/a	0.46436	no	n/a	n/a
412.9731445	n/a	105721.125	largeHSmallH	correct	congruent	0.38965	no	H	H
413.362793	n/a	105820.875	responseSmallH	correct	n/a	0.38965	no	n/a	n/a
414.4399414	n/a	106096.625	largeHSmallH	correct	congruent	0.4751	no	H	H
414.9150391	n/a	106218.25	responseSmallH	correct	n/a	0.4751	no	n/a	n/a
415.9863281	n/a	106492.5	largeHSmallT	correct	incongruent	0.39307	no	H	T
416.3793945	n/a	106593.125	responseSmallT	correct	n/a	0.39307	no	n/a	n/a
417.453125	n/a	106868	largeHSmallH	correct	congruent	0.5625	no	H	H
418.015625	n/a	107012	responseSmallH	correct	n/a	0.5625	no	n/a	n/a
419.0795898	n/a	107284.375	largeHSmallT	correct	incongruent	0.40234	no	H	T
419.4819336	n/a	107387.375	responseSmallT	correct	n/a	0.40234	no	n/a	n/a
420.5463867	n/a	107659.875	largeTSmallT	correct	congruent	0.52197	no	T	T
421.0683594	n/a	107793.5	responseSmallT	correct	n/a	0.52197	no	n/a	n/a
422.1459961	n/a	108069.375	largeHSmallH	correct	congruent	0.45312	no	H	H
422.5991211	n/a	108185.375	responseSmallH	correct	n/a	0.45312	no	n/a	n/a
423.6660156	n/a	108458.5	largeTSmallH	error	incongruent	0.39014	no	T	H
424.0561523	n/a	108558.375	responseSmallT	error	n/a	0.39014	no	n/a	n/a
425.1191406	n/a	108830.5	largeTSmallT	correct	congruent	0.43018	no	T	T
425.5493164	n/a	108940.625	responseSmallT	correct	n/a	0.43018	no	n/a	n/a
426.6132812	n/a	109213	largeTSmallH	correct	incongruent	0.44678	no	T	H
427.0600586	n/a	109327.375	responseSmallH	correct	n/a	0.44678	no	n/a	n/a
428.1328125	n/a	109602	largeHSmallH	correct	congruent	0.48535	no	H	H
428.6181641	n/a	109726.25	responseSmallH	correct	n/a	0.48535	no	n/a	n/a
429.6923828	n/a	110001.25	largeHSmallH	correct	congruent	0.44531	no	H	H
430.1376953	n/a	110115.25	responseSmallH	correct	n/a	0.44531	no	n/a	n/a
431.2124023	n/a	110390.375	largeTSmallH	correct	incongruent	0.59277	no	T	H
431.8051758	n/a	110542.125	responseSmallH	correct	n/a	0.59277	no	n/a	n/a
432.8793945	n/a	110817.125	largeTSmallT	correct	congruent	0.50781	no	T	T
433.387207	n/a	110947.125	responseSmallT	correct	n/a	0.50781	no	n/a	n/a
434.4526367	n/a	111219.875	largeHSmallH	correct	congruent	0.46826	no	H	H
434.9208984	n/a	111339.75	responseSmallH	correct	n/a	0.46826	no	n/a	n/a
435.9990234	n/a	111615.75	largeHSmallH	correct	congruent	0.45605	no	H	H
436.4550781	n/a	111732.5	responseSmallH	correct	n/a	0.45605	no	n/a	n/a
437.519043	n/a	112004.875	largeHSmallH	correct	congruent	0.37988	no	H	H
437.8989258	n/a	112102.125	responseSmallH	correct	n/a	0.37988	no	n/a	n/a
438.972168	n/a	112376.875	largeHSmallH	correct	congruent	0.47656	no	H	H
439.4487305	n/a	112498.875	responseSmallH	correct	n/a	0.47656	no	n/a	n/a
440.519043	n/a	112772.875	largeTSmallH	correct	incongruent	0.42432	no	T	H
440.9433594	n/a	112881.5	responseSmallH	correct	n/a	0.42432	no	n/a	n/a
442.012207	n/a	113155.125	largeHSmallH	correct	congruent	0.42432	no	H	H
442.4365234	n/a	113263.75	responseSmallH	correct	n/a	0.42432	no	n/a	n/a
443.519043	n/a	113540.875	largeTSmallH	correct	incongruent	0.40625	no	T	H
443.925293	n/a	113644.875	responseSmallH	correct	n/a	0.40625	no	n/a	n/a
444.9990234	n/a	113919.75	largeHSmallH	correct	congruent	0.4248	no	H	H
445.4238281	n/a	114028.5	responseSmallH	correct	n/a	0.4248	no	n/a	n/a
446.4921875	n/a	114302	largeTSmallT	correct	congruent	0.46289	no	T	T
446.9550781	n/a	114420.5	responseSmallT	correct	n/a	0.46289	no	n/a	n/a
448.0253906	n/a	114694.5	largeHSmallT	correct	incongruent	0.43359	no	H	T
448.4589844	n/a	114805.5	responseSmallT	correct	n/a	0.43359	no	n/a	n/a
449.5322266	n/a	115080.25	largeTSmallH	correct	incongruent	0.48291	no	T	H
450.0151367	n/a	115203.875	responseSmallH	correct	n/a	0.48291	no	n/a	n/a
451.0786133	n/a	115476.125	largeTSmallH	correct	incongruent	0.43701	no	T	H
451.515625	n/a	115588	responseSmallH	correct	n/a	0.43701	no	n/a	n/a
452.5859375	n/a	115862	largeHSmallH	correct	congruent	0.45068	no	H	H
453.0366211	n/a	115977.375	responseSmallH	correct	n/a	0.45068	no	n/a	n/a
454.1054688	n/a	116251	largeHSmallT	correct	incongruent	0.55029	no	H	T
454.6557617	n/a	116391.875	responseSmallT	correct	n/a	0.55029	no	n/a	n/a
455.7319336	n/a	116667.375	largeHSmallH	correct	congruent	0.40869	no	H	H
456.140625	n/a	116772	responseSmallH	correct	n/a	0.40869	no	n/a	n/a
457.2119141	n/a	117046.25	largeHSmallH	correct	congruent	0.41553	no	H	H
457.6274414	n/a	117152.625	responseSmallH	correct	n/a	0.41553	no	n/a	n/a
458.6918945	n/a	117425.125	largeTSmallT	correct	congruent	0.39746	no	T	T
459.0893555	n/a	117526.875	responseSmallT	correct	n/a	0.39746	no	n/a	n/a
460.1586914	n/a	117800.625	largeHSmallT	error	incongruent	0.34229	no	H	T
460.5009766	n/a	117888.25	responseSmallH	error	n/a	0.34229	no	n/a	n/a
461.5849609	n/a	118165.75	largeTSmallH	correct	incongruent	0.44141	no	T	H
462.0263672	n/a	118278.75	responseSmallH	correct	n/a	0.44141	no	n/a	n/a
463.0917969	n/a	118551.5	largeTSmallT	correct	congruent	0.41016	no	T	T
463.5019531	n/a	118656.5	responseSmallT	correct	n/a	0.41016	no	n/a	n/a
464.5717773	n/a	118930.375	largeTSmallH	correct	incongruent	0.40625	no	T	H
464.9780273	n/a	119034.375	responseSmallH	correct	n/a	0.40625	no	n/a	n/a
466.0517578	n/a	119309.25	largeHSmallT	error	incongruent	0.4375	no	H	T
466.4892578	n/a	119421.25	responseSmallH	error	n/a	0.4375	no	n/a	n/a
467.5581055	n/a	119694.875	largeTSmallH	correct	incongruent	0.53076	no	T	H
468.0888672	n/a	119830.75	responseSmallH	correct	n/a	0.53076	no	n/a	n/a
469.1582031	n/a	120104.5	largeHSmallH	correct	congruent	0.46875	no	H	H
469.6269531	n/a	120224.5	responseSmallH	correct	n/a	0.46875	no	n/a	n/a
470.7050781	n/a	120500.5	largeHSmallT	correct	incongruent	0.37012	no	H	T
471.0751953	n/a	120595.25	responseSmallT	correct	n/a	0.37012	no	n/a	n/a
472.1450195	n/a	120869.125	largeTSmallH	correct	incongruent	0.48926	no	T	H
472.6342773	n/a	120994.375	responseSmallH	correct	n/a	0.48926	no	n/a	n/a
473.7050781	n/a	121268.5	largeHSmallT	correct	incongruent	0.46289	no	H	T
474.1679688	n/a	121387	responseSmallT	correct	n/a	0.46289	no	n/a	n/a
475.2382812	n/a	121661	largeHSmallT	error	incongruent	0.43994	no	H	T
475.6782227	n/a	121773.625	responseSmallH	error	n/a	0.43994	no	n/a	n/a
476.7446289	n/a	122046.625	largeHSmallT	correct	incongruent	0.48486	no	H	T
477.2294922	n/a	122170.75	responseSmallT	correct	n/a	0.48486	no	n/a	n/a
478.3046875	n/a	122446	largeHSmallT	correct	incongruent	0.4375	no	H	T
478.7421875	n/a	122558	responseSmallT	correct	n/a	0.4375	no	n/a	n/a
479.8115234	n/a	122831.75	largeHSmallT	correct	incongruent	0.41553	no	H	T
480.2270508	n/a	122938.125	responseSmallT	correct	n/a	0.41553	no	n/a	n/a
481.2915039	n/a	123210.625	largeHSmallH	correct	congruent	0.38232	no	H	H
481.6738281	n/a	123308.5	responseSmallH	correct	n/a	0.38232	no	n/a	n/a
482.7446289	n/a	123582.625	largeTSmallH	correct	incongruent	0.45361	no	T	H
483.1982422	n/a	123698.75	responseSmallH	correct	n/a	0.45361	no	n/a	n/a
484.2646484	n/a	123971.75	largeTSmallH	correct	incongruent	0.44482	no	T	H
484.7094727	n/a	124085.625	responseSmallH	correct	n/a	0.44482	no	n/a	n/a
485.7709961	n/a	124357.375	largeHSmallT	correct	incongruent	0.38135	no	H	T
486.1523438	n/a	124455	responseSmallT	correct	n/a	0.38135	no	n/a	n/a
487.2246094	n/a	124729.5	largeHSmallH	correct	congruent	0.47656	no	H	H
487.7011719	n/a	124851.5	responseSmallH	correct	n/a	0.47656	no	n/a	n/a
488.7714844	n/a	125125.5	largeHSmallT	correct	incongruent	0.40625	no	H	T
489.1777344	n/a	125229.5	responseSmallT	correct	n/a	0.40625	no	n/a	n/a
490.2509766	n/a	125504.25	largeTSmallH	error	incongruent	0.49756	no	T	H
490.7485352	n/a	125631.625	responseSmallT	error	n/a	0.49756	no	n/a	n/a
491.8110352	n/a	125903.625	largeTSmallH	correct	incongruent	0.5332	no	T	H
492.3442383	n/a	126040.125	responseSmallH	correct	n/a	0.5332	no	n/a	n/a
493.4243164	n/a	126316.625	largeHSmallH	correct	congruent	0.49854	no	H	H
493.9228516	n/a	126444.25	responseSmallH	correct	n/a	0.49854	no	n/a	n/a
494.9975586	n/a	126719.375	largeTSmallH	correct	incongruent	0.45752	no	T	H
495.4550781	n/a	126836.5	responseSmallH	correct	n/a	0.45752	no	n/a	n/a
496.5307617	n/a	127111.875	largeTSmallT	correct	congruent	0.39697	no	T	T
496.9277344	n/a	127213.5	responseSmallT	correct	n/a	0.39697	no	n/a	n/a
498.0107422	n/a	127490.75	largeTSmallH	correct	incongruent	0.40967	no	T	H
498.4204102	n/a	127595.625	responseSmallH	correct	n/a	0.40967	no	n/a	n/a
499.4907227	n/a	127869.625	largeHSmallT	correct	incongruent	0.45312	no	H	T
499.9438477	n/a	127985.625	responseSmallT	correct	n/a	0.45312	no	n/a	n/a
501.0107422	n/a	128258.75	largeTSmallT	correct	congruent	0.43652	no	T	T
501.4472656	n/a	128370.5	responseSmallT	correct	n/a	0.43652	no	n/a	n/a
502.5175781	n/a	128644.5	largeHSmallT	error	incongruent	0.42236	no	H	T
502.9399414	n/a	128752.625	responseSmallH	error	n/a	0.42236	no	n/a	n/a
504.0107422	n/a	129026.75	largeTSmallH	correct	incongruent	0.35791	no	T	H
504.3686523	n/a	129118.375	responseSmallH	correct	n/a	0.35791	no	n/a	n/a
505.4506836	n/a	129395.375	largeHSmallT	error	incongruent	0.5376	no	H	T
505.9882812	n/a	129533	responseSmallH	error	n/a	0.5376	no	n/a	n/a
507.0639648	n/a	129808.375	largeHSmallT	correct	incongruent	0.55762	no	H	T
507.621582	n/a	129951.125	responseSmallT	correct	n/a	0.55762	no	n/a	n/a
508.6904297	n/a	130224.75	largeTSmallT	correct	congruent	0.46875	no	T	T
509.1591797	n/a	130344.75	responseSmallT	correct	n/a	0.46875	no	n/a	n/a
510.2373047	n/a	130620.75	largeHSmallT	error	incongruent	0.40576	no	H	T
510.6430664	n/a	130724.625	responseSmallH	error	n/a	0.40576	no	n/a	n/a
511.7172852	n/a	130999.625	largeTSmallT	correct	congruent	0.41211	no	T	T
512.1293945	n/a	131105.125	responseSmallT	correct	n/a	0.41211	no	n/a	n/a
513.1972656	n/a	131378.5	largeTSmallT	correct	congruent	0.39697	no	T	T
513.5942383	n/a	131480.125	responseSmallT	correct	n/a	0.39697	no	n/a	n/a
514.6635742	n/a	131753.875	largeTSmallT	correct	congruent	0.36523	no	T	T
515.0288086	n/a	131847.375	responseSmallT	correct	n/a	0.36523	no	n/a	n/a
516.1035156	n/a	132122.5	largeHSmallH	correct	congruent	0.37988	no	H	H
516.4833984	n/a	132219.75	responseSmallH	correct	n/a	0.37988	no	n/a	n/a
517.5571289	n/a	132494.625	largeHSmallT	correct	incongruent	0.35986	no	H	T
517.9169922	n/a	132586.75	responseSmallT	correct	n/a	0.35986	no	n/a	n/a
518.9829102	n/a	132859.625	largeTSmallT	correct	congruent	0.41406	no	T	T
519.3969727	n/a	132965.625	responseSmallT	correct	n/a	0.41406	no	n/a	n/a
520.4638672	n/a	133238.75	largeHSmallT	error	incongruent	0.38672	no	H	T
520.8505859	n/a	133337.75	responseSmallH	error	n/a	0.38672	no	n/a	n/a
521.9169922	n/a	133610.75	largeHSmallH	correct	congruent	0.41895	no	H	H
522.3359375	n/a	133718	responseSmallH	correct	n/a	0.41895	no	n/a	n/a
523.3969727	n/a	133989.625	largeTSmallT	correct	congruent	0.43018	no	T	T
523.8271484	n/a	134099.75	responseSmallT	correct	n/a	0.43018	no	n/a	n/a
524.9033203	n/a	134375.25	largeTSmallH	correct	incongruent	0.50879	no	T	H
525.4121094	n/a	134505.5	responseSmallH	correct	n/a	0.50879	no	n/a	n/a
526.4902344	n/a	134781.5	largeTSmallH	correct	incongruent	0.4917	no	T	H
526.9819336	n/a	134907.375	responseSmallH	correct	n/a	0.4917	no	n/a	n/a
528.050293	n/a	135180.875	largeTSmallH	error	incongruent	0.4292	no	T	H
528.4794922	n/a	135290.75	responseSmallT	error	n/a	0.4292	no	n/a	n/a
529.543457	n/a	135563.125	largeHSmallH	correct	congruent	0.48779	no	H	H
530.03125	n/a	135688	responseSmallH	correct	n/a	0.48779	no	n/a	n/a
531.1035156	n/a	135962.5	largeHSmallT	correct	incongruent	0.604	no	H	T
531.7075195	n/a	136117.125	responseSmallT	correct	n/a	0.604	no	n/a	n/a
532.7700195	n/a	136389.125	largeTSmallH	correct	incongruent	0.58545	no	T	H
533.3554688	n/a	136539	responseSmallH	correct	n/a	0.58545	no	n/a	n/a
534.4365234	n/a	136815.75	largeTSmallH	correct	incongruent	0.44873	no	T	H
534.8852539	n/a	136930.625	responseSmallH	correct	n/a	0.44873	no	n/a	n/a
535.956543	n/a	137204.875	largeTSmallT	correct	congruent	0.46582	no	T	T
536.4223633	n/a	137324.125	responseSmallT	correct	n/a	0.46582	no	n/a	n/a
537.4897461	n/a	137597.375	largeTSmallT	correct	congruent	0.38525	no	T	T
537.875	n/a	137696	responseSmallT	correct	n/a	0.38525	no	n/a	n/a
538.9433594	n/a	137969.5	largeHSmallH	correct	congruent	0.38623	no	H	H
539.3295898	n/a	138068.375	responseSmallH	correct	n/a	0.38623	no	n/a	n/a
540.409668	n/a	138344.875	largeTSmallT	correct	congruent	0.37988	no	T	T
540.7895508	n/a	138442.125	responseSmallT	correct	n/a	0.37988	no	n/a	n/a
541.862793	n/a	138716.875	largeTSmallH	error	incongruent	0.48486	no	T	H
542.3476562	n/a	138841	responseSmallT	error	n/a	0.48486	no	n/a	n/a
543.4228516	n/a	139116.25	largeHSmallH	correct	congruent	0.65137	no	H	H
544.0742188	n/a	139283	responseSmallH	correct	n/a	0.65137	no	n/a	n/a
545.1430664	n/a	139556.625	largeTSmallH	correct	incongruent	0.47119	no	T	H
545.6142578	n/a	139677.25	responseSmallH	correct	n/a	0.47119	no	n/a	n/a
546.6894531	n/a	139952.5	largeTSmallT	correct	congruent	0.40771	no	T	T
547.097168	n/a	140056.875	responseSmallT	correct	n/a	0.40771	no	n/a	n/a
548.1694336	n/a	140331.375	largeHSmallT	correct	incongruent	0.51855	no	H	T
548.6879883	n/a	140464.125	responseSmallT	correct	n/a	0.51855	no	n/a	n/a
549.7695312	n/a	140741	largeTSmallH	correct	incongruent	0.49463	no	T	H
550.2641602	n/a	140867.625	responseSmallH	correct	n/a	0.49463	no	n/a	n/a
551.3427734	n/a	141143.75	largeHSmallH	correct	congruent	0.54883	no	H	H
551.8916016	n/a	141284.25	responseSmallH	correct	n/a	0.54883	no	n/a	n/a
552.9692383	n/a	141560.125	largeHSmallH	correct	congruent	0.43604	no	H	H
553.4052734	n/a	141671.75	responseSmallH	correct	n/a	0.43604	no	n/a	n/a
554.4760742	n/a	141945.875	largeHSmallT	correct	incongruent	0.45068	no	H	T
554.9267578	n/a	142061.25	responseSmallT	correct	n/a	0.45068	no	n/a	n/a
555.9960938	n/a	142335	largeHSmallT	correct	incongruent	0.48682	no	H	T
556.4829102	n/a	142459.625	responseSmallT	correct	n/a	0.48682	no	n/a	n/a
557.5556641	n/a	142734.25	largeTSmallT	correct	congruent	0.4248	no	T	T
557.9804688	n/a	142843	responseSmallT	correct	n/a	0.4248	no	n/a	n/a
559.0493164	n/a	143116.625	largeTSmallH	correct	incongruent	0.52734	no	T	H
559.5766602	n/a	143251.625	responseSmallH	correct	n/a	0.52734	no	n/a	n/a
560.6494141	n/a	143526.25	largeTSmallH	correct	incongruent	0.45117	no	T	H
561.1005859	n/a	143641.75	responseSmallH	correct	n/a	0.45117	no	n/a	n/a
562.1694336	n/a	143915.375	largeTSmallH	correct	incongruent	0.45459	no	T	H
562.6240234	n/a	144031.75	responseSmallH	correct	n/a	0.45459	no	n/a	n/a
563.7026367	n/a	144307.875	largeHSmallT	correct	incongruent	0.4248	no	H	T
564.1274414	n/a	144416.625	responseSmallT	correct	n/a	0.4248	no	n/a	n/a
565.1958008	n/a	144690.125	largeTSmallT	correct	congruent	0.47803	no	T	T
565.6738281	n/a	144812.5	responseSmallT	correct	n/a	0.47803	no	n/a	n/a
566.7421875	n/a	145086	largeHSmallT	correct	incongruent	0.56689	no	H	T
567.309082	n/a	145231.125	responseSmallT	correct	n/a	0.56689	no	n/a	n/a
568.3823242	n/a	145505.875	largeHSmallT	correct	incongruent	0.59863	no	H	T
568.980957	n/a	145659.125	responseSmallT	correct	n/a	0.59863	no	n/a	n/a
570.0488281	n/a	145932.5	largeTSmallT	correct	congruent	0.46484	no	T	T
570.5136719	n/a	146051.5	responseSmallT	correct	n/a	0.46484	no	n/a	n/a
571.5957031	n/a	146328.5	largeTSmallH	correct	incongruent	0.42725	no	T	H
572.0229492	n/a	146437.875	responseSmallH	correct	n/a	0.42725	no	n/a	n/a
573.0888672	n/a	146710.75	largeTSmallH	correct	incongruent	0.49854	no	T	H
573.5874023	n/a	146838.375	responseSmallH	correct	n/a	0.49854	no	n/a	n/a
574.6621094	n/a	147113.5	largeHSmallT	correct	incongruent	0.47168	no	H	T
575.1337891	n/a	147234.25	responseSmallT	correct	n/a	0.47168	no	n/a	n/a
576.2089844	n/a	147509.5	largeHSmallH	correct	congruent	0.42969	no	H	H
576.6386719	n/a	147619.5	responseSmallH	correct	n/a	0.42969	no	n/a	n/a
577.7021484	n/a	147891.75	largeTSmallH	correct	incongruent	0.50146	no	T	H
578.2036133	n/a	148020.125	responseSmallH	correct	n/a	0.50146	no	n/a	n/a
579.2753906	n/a	148294.5	largeTSmallT	correct	congruent	0.34668	no	T	T
579.6220703	n/a	148383.25	responseSmallT	correct	n/a	0.34668	no	n/a	n/a
580.6884766	n/a	148656.25	largeHSmallT	error	incongruent	0.44189	no	H	T
581.1303711	n/a	148769.375	responseSmallH	error	n/a	0.44189	no	n/a	n/a
582.1953125	n/a	149042	largeHSmallH	correct	congruent	0.39502	no	H	H
582.590332	n/a	149143.125	responseSmallH	correct	n/a	0.39502	no	n/a	n/a
583.6621094	n/a	149417.5	largeTSmallH	correct	incongruent	0.43457	no	T	H
584.0966797	n/a	149528.75	responseSmallH	correct	n/a	0.43457	no	n/a	n/a
585.1552734	n/a	149799.75	largeHSmallH	correct	congruent	0.4624	no	H	H
585.6176758	n/a	149918.125	responseSmallH	correct	n/a	0.4624	no	n/a	n/a
586.6884766	n/a	150192.25	largeHSmallT	correct	incongruent	0.3667	no	H	T
587.0551758	n/a	150286.125	responseSmallT	correct	n/a	0.3667	no	n/a	n/a
588.128418	n/a	150560.875	largeHSmallT	correct	incongruent	0.62939	no	H	T
588.7578125	n/a	150722	responseSmallT	correct	n/a	0.62939	no	n/a	n/a
589.8217773	n/a	150994.375	largeTSmallH	correct	incongruent	0.38818	no	T	H
590.2099609	n/a	151093.75	responseSmallH	correct	n/a	0.38818	no	n/a	n/a
591.2749023	n/a	151366.375	largeHSmallT	error	incongruent	0.51172	no	H	T
591.7866211	n/a	151497.375	responseSmallH	error	n/a	0.51172	no	n/a	n/a
592.8481445	n/a	151769.125	largeTSmallT	correct	congruent	0.44922	no	T	T
593.2973633	n/a	151884.125	responseSmallT	correct	n/a	0.44922	no	n/a	n/a
594.3686523	n/a	152158.375	largeHSmallH	correct	congruent	0.41162	no	H	H
594.7802734	n/a	152263.75	responseSmallH	correct	n/a	0.41162	no	n/a	n/a
595.8481445	n/a	152537.125	largeTSmallT	correct	congruent	0.45947	no	T	T
596.3076172	n/a	152654.75	responseSmallT	correct	n/a	0.45947	no	n/a	n/a
597.3818359	n/a	152929.75	largeHSmallH	correct	congruent	0.46973	no	H	H
597.8515625	n/a	153050	responseSmallH	correct	n/a	0.46973	no	n/a	n/a
598.9282227	n/a	153325.625	largeHSmallT	correct	incongruent	0.5459	no	H	T
599.4741211	n/a	153465.375	responseSmallT	correct	n/a	0.5459	no	n/a	n/a
600.5415039	n/a	153738.625	largeHSmallH	correct	congruent	0.39648	no	H	H
600.9379883	n/a	153840.125	responseSmallH	correct	n/a	0.39648	no	n/a	n/a
602.0078125	n/a	154114	largeHSmallH	correct	congruent	0.57715	no	H	H
602.5849609	n/a	154261.75	responseSmallH	correct	n/a	0.57715	no	n/a	n/a
603.6479492	n/a	154533.875	largeHSmallT	correct	incongruent	0.58447	no	H	T
604.2324219	n/a	154683.5	responseSmallT	correct	n/a	0.58447	no	n/a	n/a
605.3012695	n/a	154957.125	largeTSmallH	correct	incongruent	0.5708	no	T	H
605.8720703	n/a	155103.25	responseSmallH	correct	n/a	0.5708	no	n/a	n/a
606.9414062	n/a	155377	largeTSmallH	correct	incongruent	0.4585	no	T	H
607.3999023	n/a	155494.375	responseSmallH	correct	n/a	0.4585	no	n/a	n/a
608.4746094	n/a	155769.5	largeTSmallH	correct	incongruent	0.43457	no	T	H
608.9091797	n/a	155880.75	responseSmallH	correct	n/a	0.43457	no	n/a	n/a
609.9814453	n/a	156155.25	largeTSmallT	correct	congruent	0.50879	no	T	T
610.4902344	n/a	156285.5	responseSmallT	correct	n/a	0.50879	no	n/a	n/a
611.5541992	n/a	156557.875	largeHSmallH	correct	congruent	0.40186	no	H	H
611.9560547	n/a	156660.75	responseSmallH	correct	n/a	0.40186	no	n/a	n/a
613.0209961	n/a	156933.375	largeTSmallT	correct	congruent	0.51514	no	T	T
613.5361328	n/a	157065.25	responseSmallT	correct	n/a	0.51514	no	n/a	n/a
614.5947266	n/a	157336.25	largeHSmallT	correct	incongruent	0.47754	no	H	T
615.0722656	n/a	157458.5	responseSmallT	correct	n/a	0.47754	no	n/a	n/a
616.1411133	n/a	157732.125	largeTSmallH	correct	incongruent	0.43945	no	T	H
616.5805664	n/a	157844.625	responseSmallH	correct	n/a	0.43945	no	n/a	n/a
617.6611328	n/a	158121.25	largeTSmallH	correct	incongruent	0.54492	no	T	H
618.2060547	n/a	158260.75	responseSmallH	correct	n/a	0.54492	no	n/a	n/a
619.2744141	n/a	158534.25	largeTSmallT	correct	congruent	0.39014	no	T	T
619.6645508	n/a	158634.125	responseSmallT	correct	n/a	0.39014	no	n/a	n/a
620.7275391	n/a	158906.25	largeTSmallH	correct	incongruent	0.38916	no	T	H
621.1166992	n/a	159005.875	responseSmallH	correct	n/a	0.38916	no	n/a	n/a
622.1811523	n/a	159278.375	largeTSmallT	correct	congruent	0.45508	no	T	T
622.6362305	n/a	159394.875	responseSmallT	correct	n/a	0.45508	no	n/a	n/a
623.7143555	n/a	159670.875	largeHSmallH	correct	congruent	0.43701	no	H	H
624.1513672	n/a	159782.75	responseSmallH	correct	n/a	0.43701	no	n/a	n/a
625.2207031	n/a	160056.5	largeHSmallH	correct	congruent	0.44922	no	H	H
625.6699219	n/a	160171.5	responseSmallH	correct	n/a	0.44922	no	n/a	n/a
626.7407227	n/a	160445.625	largeHSmallT	correct	incongruent	1.0146	no	H	T
627.7553711	n/a	160705.375	responseSmallT	correct	n/a	1.0146	no	n/a	n/a
628.8212891	n/a	160978.25	largeHSmallH	correct	congruent	0.50488	no	H	H
629.3261719	n/a	161107.5	responseSmallH	correct	n/a	0.50488	no	n/a	n/a
630.4072266	n/a	161384.25	largeTSmallT	correct	congruent	0.39648	no	T	T
630.8037109	n/a	161485.75	responseSmallT	correct	n/a	0.39648	no	n/a	n/a
631.8740234	n/a	161759.75	largeHSmallH	correct	congruent	0.44043	no	H	H
632.3144531	n/a	161872.5	responseSmallH	correct	n/a	0.44043	no	n/a	n/a
633.3808594	n/a	162145.5	largeTSmallT	correct	congruent	0.41943	no	T	T
633.800293	n/a	162252.875	responseSmallT	correct	n/a	0.41943	no	n/a	n/a
634.8603516	n/a	162524.25	largeTSmallH	error	incongruent	0.43652	no	T	H
635.296875	n/a	162636	responseSmallT	error	n/a	0.43652	no	n/a	n/a
636.3671875	n/a	162910	largeTSmallH	correct	incongruent	0.49609	no	T	H
636.8632812	n/a	163037	responseSmallH	correct	n/a	0.49609	no	n/a	n/a
637.9404297	n/a	163312.75	largeTSmallT	correct	congruent	0.36426	no	T	T
638.3046875	n/a	163406	responseSmallT	correct	n/a	0.36426	no	n/a	n/a
639.3803711	n/a	163681.375	largeHSmallT	correct	incongruent	0.66699	no	H	T
640.0473633	n/a	163852.125	responseSmallT	correct	n/a	0.66699	no	n/a	n/a
641.1137695	n/a	164125.125	largeTSmallT	correct	congruent	0.48633	no	T	T
641.6000977	n/a	164249.625	responseSmallT	correct	n/a	0.48633	no	n/a	n/a
642.6601562	n/a	164521	largeTSmallT	correct	congruent	0.48535	no	T	T
643.1455078	n/a	164645.25	responseSmallT	correct	n/a	0.48535	no	n/a	n/a
644.2070312	n/a	164917	largeTSmallT	correct	congruent	0.44092	no	T	T
644.6479492	n/a	165029.875	responseSmallT	correct	n/a	0.44092	no	n/a	n/a
645.7270508	n/a	165306.125	largeHSmallT	correct	incongruent	0.68555	no	H	T
646.4125977	n/a	165481.625	responseSmallT	correct	n/a	0.68555	no	n/a	n/a
647.4868164	n/a	165756.625	largeHSmallT	correct	incongruent	0.57764	no	H	T
648.0644531	n/a	165904.5	responseSmallT	correct	n/a	0.57764	no	n/a	n/a
649.1401367	n/a	166179.875	largeHSmallT	correct	incongruent	0.43408	no	H	T
649.5742188	n/a	166291	responseSmallT	correct	n/a	0.43408	no	n/a	n/a
650.6469727	n/a	166565.625	largeTSmallT	correct	congruent	0.48047	no	T	T
651.1274414	n/a	166688.625	responseSmallT	correct	n/a	0.48047	no	n/a	n/a
652.1933594	n/a	166961.5	largeTSmallT	correct	congruent	0.50488	no	T	T
652.6982422	n/a	167090.75	responseSmallT	correct	n/a	0.50488	no	n/a	n/a
653.7666016	n/a	167364.25	largeHSmallT	correct	incongruent	0.61914	no	H	T
654.3857422	n/a	167522.75	responseSmallT	correct	n/a	0.61914	no	n/a	n/a
655.4599609	n/a	167797.75	largeTSmallT	correct	congruent	0.50488	no	T	T
655.9648438	n/a	167927	responseSmallT	correct	n/a	0.50488	no	n/a	n/a
665.9262695	n/a	170477.125	largeHSmallH	correct	congruent	0.78564	no	H	H
666.7119141	n/a	170678.25	responseLargeH	correct	n/a	0.78564	no	n/a	n/a
667.7797852	n/a	170951.625	largeHSmallT	correct	incongruent	0.76025	no	H	T
668.5400391	n/a	171146.25	responseLargeH	correct	n/a	0.76025	no	n/a	n/a
669.6064453	n/a	171419.25	largeTSmallT	correct	congruent	0.45996	no	T	T
670.0664062	n/a	171537	responseLargeT	correct	n/a	0.45996	no	n/a	n/a
671.1396484	n/a	171811.75	largeHSmallH	correct	congruent	0.52344	no	H	H
671.6630859	n/a	171945.75	responseLargeH	correct	n/a	0.52344	no	n/a	n/a
672.7397461	n/a	172221.375	largeTSmallH	correct	incongruent	0.47803	no	T	H
673.2177734	n/a	172343.75	responseLargeT	correct	n/a	0.47803	no	n/a	n/a
674.2861328	n/a	172617.25	largeHSmallT	correct	incongruent	0.45752	no	H	T
674.7436523	n/a	172734.375	responseLargeH	correct	n/a	0.45752	no	n/a	n/a
675.8193359	n/a	173009.75	largeHSmallH	correct	congruent	0.45605	no	H	H
676.2753906	n/a	173126.5	responseLargeH	correct	n/a	0.45605	no	n/a	n/a
677.3393555	n/a	173398.875	largeTSmallH	correct	incongruent	0.4375	no	T	H
677.7768555	n/a	173510.875	responseLargeT	correct	n/a	0.4375	no	n/a	n/a
678.8461914	n/a	173784.625	largeTSmallT	correct	congruent	0.4502	no	T	T
679.2963867	n/a	173899.875	responseLargeT	correct	n/a	0.4502	no	n/a	n/a
680.3662109	n/a	174173.75	largeTSmallH	correct	incongruent	0.43262	no	T	H
680.7988281	n/a	174284.5	responseLargeT	correct	n/a	0.43262	no	n/a	n/a
681.8725586	n/a	174559.375	largeHSmallH	correct	congruent	0.36768	no	H	H
682.2402344	n/a	174653.5	responseLargeH	correct	n/a	0.36768	no	n/a	n/a
683.3125	n/a	174928	largeTSmallH	correct	incongruent	0.50781	no	T	H
683.8203125	n/a	175058	responseLargeT	correct	n/a	0.50781	no	n/a	n/a
684.8994141	n/a	175334.25	largeHSmallT	correct	incongruent	0.38623	no	H	T
685.2856445	n/a	175433.125	responseLargeH	correct	n/a	0.38623	no	n/a	n/a
686.3657227	n/a	175709.625	largeHSmallH	correct	congruent	0.44238	no	H	H
686.8081055	n/a	175822.875	responseLargeH	correct	n/a	0.44238	no	n/a	n/a
687.8725586	n/a	176095.375	largeTSmallT	correct	congruent	0.43311	no	T	T
688.3056641	n/a	176206.25	responseLargeT	correct	n/a	0.43311	no	n/a	n/a
689.3657227	n/a	176477.625	largeTSmallT	correct	congruent	0.42822	no	T	T
689.7939453	n/a	176587.25	responseLargeT	correct	n/a	0.42822	no	n/a	n/a
690.8725586	n/a	176863.375	largeTSmallT	correct	congruent	0.43115	no	T	T
691.3037109	n/a	176973.75	responseLargeT	correct	n/a	0.43115	no	n/a	n/a
692.3789062	n/a	177249	largeTSmallH	correct	incongruent	0.36523	no	T	H
692.7441406	n/a	177342.5	responseLargeT	correct	n/a	0.36523	no	n/a	n/a
693.8188477	n/a	177617.625	largeTSmallH	correct	incongruent	0.43359	no	T	H
694.2524414	n/a	177728.625	responseLargeT	correct	n/a	0.43359	no	n/a	n/a
695.3256836	n/a	178003.375	largeHSmallH	correct	congruent	0.45557	no	H	H
695.78125	n/a	178120	responseLargeH	correct	n/a	0.45557	no	n/a	n/a
696.8588867	n/a	178395.875	largeHSmallT	correct	incongruent	0.43604	no	H	T
697.2949219	n/a	178507.5	responseLargeH	correct	n/a	0.43604	no	n/a	n/a
698.3657227	n/a	178781.625	largeTSmallT	correct	congruent	0.45801	no	T	T
698.8237305	n/a	178898.875	responseLargeT	correct	n/a	0.45801	no	n/a	n/a
699.8989258	n/a	179174.125	largeHSmallT	correct	incongruent	0.36426	no	H	T
700.2631836	n/a	179267.375	responseLargeH	correct	n/a	0.36426	no	n/a	n/a
701.3388672	n/a	179542.75	largeHSmallT	correct	incongruent	0.47217	no	H	T
701.8110352	n/a	179663.625	responseLargeH	correct	n/a	0.47217	no	n/a	n/a
702.8852539	n/a	179938.625	largeTSmallH	correct	incongruent	0.39648	no	T	H
703.2817383	n/a	180040.125	responseLargeT	correct	n/a	0.39648	no	n/a	n/a
704.3388672	n/a	180310.75	largeTSmallT	correct	congruent	0.4834	no	T	T
704.8222656	n/a	180434.5	responseLargeT	correct	n/a	0.4834	no	n/a	n/a
705.8989258	n/a	180710.125	largeHSmallT	correct	incongruent	0.34277	no	H	T
706.2416992	n/a	180797.875	responseLargeH	correct	n/a	0.34277	no	n/a	n/a
707.3120117	n/a	181071.875	largeHSmallH	correct	congruent	0.40332	no	H	H
707.715332	n/a	181175.125	responseLargeH	correct	n/a	0.40332	no	n/a	n/a
708.7919922	n/a	181450.75	largeHSmallT	correct	incongruent	0.39453	no	H	T
709.1865234	n/a	181551.75	responseLargeH	correct	n/a	0.39453	no	n/a	n/a
710.2587891	n/a	181826.25	largeTSmallH	correct	incongruent	0.35498	no	T	H
710.6137695	n/a	181917.125	responseLargeT	correct	n/a	0.35498	no	n/a	n/a
711.671875	n/a	182188	largeTSmallH	correct	incongruent	0.44043	no	T	H
712.1123047	n/a	182300.75	responseLargeT	correct	n/a	0.44043	no	n/a	n/a
713.1787109	n/a	182573.75	largeTSmallT	correct	congruent	0.50488	no	T	T
713.6835938	n/a	182703	responseLargeT	correct	n/a	0.50488	no	n/a	n/a
714.7519531	n/a	182976.5	largeHSmallH	correct	congruent	0.36084	no	H	H
715.112793	n/a	183068.875	responseLargeH	correct	n/a	0.36084	no	n/a	n/a
716.1918945	n/a	183345.125	largeTSmallT	correct	congruent	0.33398	no	T	T
716.5258789	n/a	183430.625	responseLargeT	correct	n/a	0.33398	no	n/a	n/a
717.5917969	n/a	183703.5	largeHSmallT	correct	incongruent	0.30322	no	H	T
717.8950195	n/a	183781.125	responseLargeH	correct	n/a	0.30322	no	n/a	n/a
718.9648438	n/a	184055	largeTSmallT	correct	congruent	0.31836	no	T	T
719.2832031	n/a	184136.5	responseLargeT	correct	n/a	0.31836	no	n/a	n/a
720.3515625	n/a	184410	largeHSmallT	correct	incongruent	0.3125	no	H	T
720.6640625	n/a	184490	responseLargeH	correct	n/a	0.3125	no	n/a	n/a
721.7382812	n/a	184765	largeHSmallT	error	incongruent	0.42773	no	H	T
722.1660156	n/a	184874.5	responseLargeT	error	n/a	0.42773	no	n/a	n/a
723.2451172	n/a	185150.75	largeTSmallT	correct	congruent	0.34277	no	T	T
723.5878906	n/a	185238.5	responseLargeT	correct	n/a	0.34277	no	n/a	n/a
724.6582031	n/a	185512.5	largeTSmallH	error	incongruent	0.31592	no	T	H
724.9741211	n/a	185593.375	responseLargeH	error	n/a	0.31592	no	n/a	n/a
726.0449219	n/a	185867.5	largeTSmallH	error	incongruent	0.34277	no	T	H
726.3876953	n/a	185955.25	responseLargeH	error	n/a	0.34277	no	n/a	n/a
727.4716797	n/a	186232.75	largeHSmallH	correct	congruent	0.44531	no	H	H
727.9169922	n/a	186346.75	responseLargeH	correct	n/a	0.44531	no	n/a	n/a
728.9916992	n/a	186621.875	largeTSmallT	correct	congruent	0.36816	no	T	T
729.3598633	n/a	186716.125	responseLargeT	correct	n/a	0.36816	no	n/a	n/a
730.4316406	n/a	186990.5	largeHSmallH	correct	congruent	0.36768	no	H	H
730.7993164	n/a	187084.625	responseLargeH	correct	n/a	0.36768	no	n/a	n/a
731.871582	n/a	187359.125	largeHSmallT	correct	incongruent	0.48389	no	H	T
732.3554688	n/a	187483	responseLargeH	correct	n/a	0.48389	no	n/a	n/a
733.4179688	n/a	187755	largeHSmallT	correct	incongruent	0.46875	no	H	T
733.8867188	n/a	187875	responseLargeH	correct	n/a	0.46875	no	n/a	n/a
734.9516602	n/a	188147.625	largeHSmallH	correct	congruent	0.47412	no	H	H
735.4257812	n/a	188269	responseLargeH	correct	n/a	0.47412	no	n/a	n/a
736.4980469	n/a	188543.5	largeTSmallH	correct	incongruent	0.38086	no	T	H
736.8789062	n/a	188641	responseLargeT	correct	n/a	0.38086	no	n/a	n/a
737.9516602	n/a	188915.625	largeHSmallT	correct	incongruent	0.39453	no	H	T
738.3461914	n/a	189016.625	responseLargeH	correct	n/a	0.39453	no	n/a	n/a
739.4179688	n/a	189291	largeHSmallH	correct	congruent	0.47754	no	H	H
739.8955078	n/a	189413.25	responseLargeH	correct	n/a	0.47754	no	n/a	n/a
740.9643555	n/a	189686.875	largeHSmallT	correct	incongruent	0.47021	no	H	T
741.4345703	n/a	189807.25	responseLargeH	correct	n/a	0.47021	no	n/a	n/a
742.5112305	n/a	190082.875	largeHSmallH	correct	congruent	0.42773	no	H	H
742.9389648	n/a	190192.375	responseLargeH	correct	n/a	0.42773	no	n/a	n/a
744.0043945	n/a	190465.125	largeTSmallH	correct	incongruent	0.37695	no	T	H
744.3813477	n/a	190561.625	responseLargeT	correct	n/a	0.37695	no	n/a	n/a
745.4575195	n/a	190837.125	largeHSmallH	correct	congruent	0.50537	no	H	H
745.9628906	n/a	190966.5	responseLargeH	correct	n/a	0.50537	no	n/a	n/a
747.0307617	n/a	191239.875	largeTSmallH	correct	incongruent	0.37842	no	T	H
747.4091797	n/a	191336.75	responseLargeT	correct	n/a	0.37842	no	n/a	n/a
748.4711914	n/a	191608.625	largeHSmallT	correct	incongruent	0.53955	no	H	T
749.0107422	n/a	191746.75	responseLargeH	correct	n/a	0.53955	no	n/a	n/a
750.0839844	n/a	192021.5	largeHSmallH	correct	congruent	0.4458	no	H	H
750.5297852	n/a	192135.625	responseLargeH	correct	n/a	0.4458	no	n/a	n/a
751.6040039	n/a	192410.625	largeHSmallT	correct	incongruent	0.39258	no	H	T
751.996582	n/a	192511.125	responseLargeH	correct	n/a	0.39258	no	n/a	n/a
753.0708008	n/a	192786.125	largeTSmallH	correct	incongruent	0.38184	no	T	H
753.4526367	n/a	192883.875	responseLargeT	correct	n/a	0.38184	no	n/a	n/a
754.5112305	n/a	193154.875	largeHSmallH	correct	congruent	0.46924	no	H	H
754.9804688	n/a	193275	responseLargeH	correct	n/a	0.46924	no	n/a	n/a
756.0439453	n/a	193547.25	largeHSmallT	correct	incongruent	0.45264	no	H	T
756.496582	n/a	193663.125	responseLargeH	correct	n/a	0.45264	no	n/a	n/a
757.5771484	n/a	193939.75	largeTSmallT	correct	congruent	0.35986	no	T	T
757.9370117	n/a	194031.875	responseLargeT	correct	n/a	0.35986	no	n/a	n/a
759.0039062	n/a	194305	largeTSmallH	correct	incongruent	0.46143	no	T	H
759.465332	n/a	194423.125	responseLargeT	correct	n/a	0.46143	no	n/a	n/a
760.5371094	n/a	194697.5	largeTSmallH	correct	incongruent	0.46631	no	T	H
761.003418	n/a	194816.875	responseLargeT	correct	n/a	0.46631	no	n/a	n/a
762.0703125	n/a	195090	largeHSmallH	correct	congruent	0.41455	no	H	H
762.4848633	n/a	195196.125	responseLargeH	correct	n/a	0.41455	no	n/a	n/a
763.5507812	n/a	195469	largeHSmallH	correct	congruent	0.41846	no	H	H
763.9692383	n/a	195576.125	responseLargeH	correct	n/a	0.41846	no	n/a	n/a
765.0439453	n/a	195851.25	largeTSmallT	correct	congruent	0.45215	no	T	T
765.4960938	n/a	195967	responseLargeT	correct	n/a	0.45215	no	n/a	n/a
766.5639648	n/a	196240.375	largeHSmallT	correct	incongruent	0.35205	no	H	T
766.9160156	n/a	196330.5	responseLargeH	correct	n/a	0.35205	no	n/a	n/a
767.9770508	n/a	196602.125	largeTSmallT	correct	congruent	0.42822	no	T	T
768.4052734	n/a	196711.75	responseLargeT	correct	n/a	0.42822	no	n/a	n/a
769.4702148	n/a	196984.375	largeTSmallT	error	congruent	0.31201	no	T	T
769.7822266	n/a	197064.25	responseLargeH	error	n/a	0.31201	no	n/a	n/a
770.84375	n/a	197336	largeTSmallT	correct	congruent	0.44336	no	T	T
771.2871094	n/a	197449.5	responseLargeT	correct	n/a	0.44336	no	n/a	n/a
772.3637695	n/a	197725.125	largeTSmallH	correct	incongruent	0.45459	no	T	H
772.8183594	n/a	197841.5	responseLargeT	correct	n/a	0.45459	no	n/a	n/a
773.8969727	n/a	198117.625	largeHSmallH	correct	congruent	0.35596	no	H	H
774.2529297	n/a	198208.75	responseLargeH	correct	n/a	0.35596	no	n/a	n/a
775.3237305	n/a	198482.875	largeTSmallH	correct	incongruent	0.42529	no	T	H
775.7490234	n/a	198591.75	responseLargeT	correct	n/a	0.42529	no	n/a	n/a
776.8300781	n/a	198868.5	largeHSmallT	correct	incongruent	0.34473	no	H	T
777.1748047	n/a	198956.75	responseLargeH	correct	n/a	0.34473	no	n/a	n/a
778.2436523	n/a	199230.375	largeTSmallH	correct	incongruent	0.37988	no	T	H
778.6235352	n/a	199327.625	responseLargeT	correct	n/a	0.37988	no	n/a	n/a
779.6967773	n/a	199602.375	largeHSmallT	correct	incongruent	0.36914	no	H	T
780.065918	n/a	199696.875	responseLargeH	correct	n/a	0.36914	no	n/a	n/a
781.1367188	n/a	199971	largeHSmallH	correct	congruent	0.36914	no	H	H
781.5058594	n/a	200065.5	responseLargeH	correct	n/a	0.36914	no	n/a	n/a
782.5766602	n/a	200339.625	largeTSmallT	correct	congruent	0.33496	no	T	T
782.9116211	n/a	200425.375	responseLargeT	correct	n/a	0.33496	no	n/a	n/a
783.9902344	n/a	200701.5	largeHSmallT	correct	incongruent	0.44971	no	H	T
784.4399414	n/a	200816.625	responseLargeH	correct	n/a	0.44971	no	n/a	n/a
785.5097656	n/a	201090.5	largeHSmallH	correct	congruent	0.43945	no	H	H
785.9492188	n/a	201203	responseLargeH	correct	n/a	0.43945	no	n/a	n/a
787.0297852	n/a	201479.625	largeHSmallT	correct	incongruent	0.45264	no	H	T
787.4824219	n/a	201595.5	responseLargeH	correct	n/a	0.45264	no	n/a	n/a
788.5498047	n/a	201868.75	largeHSmallH	error	congruent	0.37842	no	H	H
788.9282227	n/a	201965.625	responseLargeT	error	n/a	0.37842	no	n/a	n/a
790.003418	n/a	202240.875	largeTSmallH	correct	incongruent	0.40918	no	T	H
790.4125977	n/a	202345.625	responseLargeT	correct	n/a	0.40918	no	n/a	n/a
791.4833984	n/a	202619.75	largeHSmallT	correct	incongruent	0.44775	no	H	T
791.9311523	n/a	202734.375	responseLargeH	correct	n/a	0.44775	no	n/a	n/a
793.0029297	n/a	203008.75	largeTSmallT	correct	congruent	0.46338	no	T	T
793.4663086	n/a	203127.375	responseLargeT	correct	n/a	0.46338	no	n/a	n/a
794.5229492	n/a	203397.875	largeTSmallT	correct	congruent	0.43262	no	T	T
794.9555664	n/a	203508.625	responseLargeT	correct	n/a	0.43262	no	n/a	n/a
796.0297852	n/a	203783.625	largeTSmallT	error	congruent	0.35107	no	T	T
796.3808594	n/a	203873.5	responseLargeH	error	n/a	0.35107	no	n/a	n/a
797.4428711	n/a	204145.375	largeTSmallH	correct	incongruent	0.52979	no	T	H
797.9726562	n/a	204281	responseLargeT	correct	n/a	0.52979	no	n/a	n/a
799.0429688	n/a	204555	largeHSmallH	correct	congruent	0.44287	no	H	H
799.4858398	n/a	204668.375	responseLargeH	correct	n/a	0.44287	no	n/a	n/a
800.5493164	n/a	204940.625	largeHSmallH	correct	congruent	0.43652	no	H	H
800.9858398	n/a	205052.375	responseLargeH	correct	n/a	0.43652	no	n/a	n/a
802.0429688	n/a	205323	largeTSmallH	correct	incongruent	0.5	no	T	H
802.5429688	n/a	205451	responseLargeT	correct	n/a	0.5	no	n/a	n/a
803.6025391	n/a	205722.25	largeHSmallT	correct	incongruent	0.48975	no	H	T
804.0922852	n/a	205847.625	responseLargeH	correct	n/a	0.48975	no	n/a	n/a
805.1630859	n/a	206121.75	largeTSmallT	correct	congruent	0.41357	no	T	T
805.5766602	n/a	206227.625	responseLargeT	correct	n/a	0.41357	no	n/a	n/a
806.65625	n/a	206504	largeHSmallT	correct	incongruent	0.34326	no	H	T
806.9995117	n/a	206591.875	responseLargeH	correct	n/a	0.34326	no	n/a	n/a
808.0693359	n/a	206865.75	largeHSmallH	correct	congruent	0.52002	no	H	H
808.5893555	n/a	206998.875	responseLargeH	correct	n/a	0.52002	no	n/a	n/a
809.6689453	n/a	207275.25	largeHSmallH	error	congruent	0.42725	no	H	H
810.0961914	n/a	207384.625	responseLargeT	error	n/a	0.42725	no	n/a	n/a
811.1625977	n/a	207657.625	largeHSmallH	correct	congruent	0.4292	no	H	H
811.5917969	n/a	207767.5	responseLargeH	correct	n/a	0.4292	no	n/a	n/a
812.6557617	n/a	208039.875	largeTSmallH	correct	incongruent	0.34521	no	T	H
813.0009766	n/a	208128.25	responseLargeT	correct	n/a	0.34521	no	n/a	n/a
814.0825195	n/a	208405.125	largeHSmallH	correct	congruent	0.37061	no	H	H
814.453125	n/a	208500	responseLargeH	correct	n/a	0.37061	no	n/a	n/a
815.5224609	n/a	208773.75	largeHSmallT	correct	incongruent	0.47412	no	H	T
815.996582	n/a	208895.125	responseLargeH	correct	n/a	0.47412	no	n/a	n/a
817.0693359	n/a	209169.75	largeTSmallH	correct	incongruent	0.45654	no	T	H
817.5258789	n/a	209286.625	responseLargeT	correct	n/a	0.45654	no	n/a	n/a
818.6025391	n/a	209562.25	largeHSmallT	correct	incongruent	0.42529	no	H	T
819.027832	n/a	209671.125	responseLargeH	correct	n/a	0.42529	no	n/a	n/a
820.0957031	n/a	209944.5	largeHSmallH	correct	congruent	0.43408	no	H	H
820.5297852	n/a	210055.625	responseLargeH	correct	n/a	0.43408	no	n/a	n/a
821.5893555	n/a	210326.875	largeTSmallT	correct	congruent	0.4624	no	T	T
822.0517578	n/a	210445.25	responseLargeT	correct	n/a	0.4624	no	n/a	n/a
823.1225586	n/a	210719.375	largeHSmallH	correct	congruent	0.35742	no	H	H
823.4799805	n/a	210810.875	responseLargeH	correct	n/a	0.35742	no	n/a	n/a
824.5488281	n/a	211084.5	largeHSmallT	error	incongruent	0.34521	no	H	T
824.894043	n/a	211172.875	responseLargeT	error	n/a	0.34521	no	n/a	n/a
825.9624023	n/a	211446.375	largeTSmallH	correct	incongruent	0.43213	no	T	H
826.3945312	n/a	211557	responseLargeT	correct	n/a	0.43213	no	n/a	n/a
827.46875	n/a	211832	largeHSmallH	correct	congruent	0.32861	no	H	H
827.7973633	n/a	211916.125	responseLargeH	correct	n/a	0.32861	no	n/a	n/a
828.8686523	n/a	212190.375	largeTSmallH	correct	incongruent	0.36768	no	T	H
829.2363281	n/a	212284.5	responseLargeT	correct	n/a	0.36768	no	n/a	n/a
830.2954102	n/a	212555.625	largeTSmallH	correct	incongruent	0.49072	no	T	H
830.7861328	n/a	212681.25	responseLargeT	correct	n/a	0.49072	no	n/a	n/a
831.8554688	n/a	212955	largeTSmallT	correct	congruent	0.4541	no	T	T
832.3095703	n/a	213071.25	responseLargeT	correct	n/a	0.4541	no	n/a	n/a
833.3754883	n/a	213344.125	largeHSmallH	correct	congruent	0.36523	no	H	H
833.7407227	n/a	213437.625	responseLargeH	correct	n/a	0.36523	no	n/a	n/a
834.8154297	n/a	213712.75	largeHSmallH	correct	congruent	0.47119	no	H	H
835.2866211	n/a	213833.375	responseLargeH	correct	n/a	0.47119	no	n/a	n/a
836.3486328	n/a	214105.25	largeTSmallT	correct	congruent	0.41797	no	T	T
836.7666016	n/a	214212.25	responseLargeT	correct	n/a	0.41797	no	n/a	n/a
837.8417969	n/a	214487.5	largeHSmallT	correct	incongruent	0.35107	no	H	T
838.1928711	n/a	214577.375	responseLargeH	correct	n/a	0.35107	no	n/a	n/a
839.2685547	n/a	214852.75	largeTSmallT	correct	congruent	0.31348	no	T	T
839.5820312	n/a	214933	responseLargeT	correct	n/a	0.31348	no	n/a	n/a
840.6552734	n/a	215207.75	largeTSmallH	error	incongruent	0.33789	no	T	H
840.9931641	n/a	215294.25	responseLargeH	error	n/a	0.33789	no	n/a	n/a
842.0683594	n/a	215569.5	largeTSmallH	correct	incongruent	0.55957	no	T	H
842.6279297	n/a	215712.75	responseLargeT	correct	n/a	0.55957	no	n/a	n/a
843.6953125	n/a	215986	largeHSmallH	correct	congruent	0.32812	no	H	H
844.0234375	n/a	216070	responseLargeH	correct	n/a	0.32812	no	n/a	n/a
845.0952148	n/a	216344.375	largeHSmallH	correct	congruent	0.46094	no	H	H
845.5561523	n/a	216462.375	responseLargeH	correct	n/a	0.46094	no	n/a	n/a
846.6416016	n/a	216740.25	largeTSmallT	correct	congruent	0.34766	no	T	T
846.9892578	n/a	216829.25	responseLargeT	correct	n/a	0.34766	no	n/a	n/a
848.0551758	n/a	217102.125	largeTSmallT	correct	congruent	0.49512	no	T	T
848.550293	n/a	217228.875	responseLargeT	correct	n/a	0.49512	no	n/a	n/a
849.6147461	n/a	217501.375	largeTSmallH	correct	incongruent	0.44678	no	T	H
850.0615234	n/a	217615.75	responseLargeT	correct	n/a	0.44678	no	n/a	n/a
851.121582	n/a	217887.125	largeHSmallT	correct	incongruent	0.36816	no	H	T
851.4897461	n/a	217981.375	responseLargeH	correct	n/a	0.36816	no	n/a	n/a
852.5615234	n/a	218255.75	largeTSmallT	correct	congruent	0.39307	no	T	T
852.9545898	n/a	218356.375	responseLargeT	correct	n/a	0.39307	no	n/a	n/a
854.0283203	n/a	218631.25	largeTSmallH	correct	incongruent	0.47314	no	T	H
854.5014648	n/a	218752.375	responseLargeT	correct	n/a	0.47314	no	n/a	n/a
855.574707	n/a	219027.125	largeHSmallH	correct	congruent	0.37988	no	H	H
855.9545898	n/a	219124.375	responseLargeH	correct	n/a	0.37988	no	n/a	n/a
857.027832	n/a	219399.125	largeHSmallT	correct	incongruent	0.50684	no	H	T
857.534668	n/a	219528.875	responseLargeH	correct	n/a	0.50684	no	n/a	n/a
858.6015625	n/a	219802	largeTSmallH	correct	incongruent	0.35693	no	T	H
858.9584961	n/a	219893.375	responseLargeT	correct	n/a	0.35693	no	n/a	n/a
860.0415039	n/a	220170.625	largeHSmallT	correct	incongruent	0.4165	no	H	T
860.4580078	n/a	220277.25	responseLargeH	correct	n/a	0.4165	no	n/a	n/a
861.534668	n/a	220552.875	largeTSmallH	correct	incongruent	0.37109	no	T	H
861.9057617	n/a	220647.875	responseLargeT	correct	n/a	0.37109	no	n/a	n/a
862.987793	n/a	220924.875	largeHSmallH	correct	congruent	0.35156	no	H	H
863.3393555	n/a	221014.875	responseLargeH	correct	n/a	0.35156	no	n/a	n/a
864.4013672	n/a	221286.75	largeHSmallH	correct	congruent	0.43262	no	H	H
864.8339844	n/a	221397.5	responseLargeH	correct	n/a	0.43262	no	n/a	n/a
865.9077148	n/a	221672.375	largeHSmallT	correct	incongruent	0.3999	no	H	T
866.3076172	n/a	221774.75	responseLargeH	correct	n/a	0.3999	no	n/a	n/a
867.3876953	n/a	222051.25	largeTSmallH	error	incongruent	0.41162	no	T	H
867.7993164	n/a	222156.625	responseLargeH	error	n/a	0.41162	no	n/a	n/a
868.8676758	n/a	222430.125	largeHSmallH	correct	congruent	0.44824	no	H	H
869.315918	n/a	222544.875	responseLargeH	correct	n/a	0.44824	no	n/a	n/a
870.3876953	n/a	222819.25	largeTSmallT	correct	congruent	0.37451	no	T	T
870.762207	n/a	222915.125	responseLargeT	correct	n/a	0.37451	no	n/a	n/a
871.8276367	n/a	223187.875	largeHSmallT	correct	incongruent	0.40186	no	H	T
872.2294922	n/a	223290.75	responseLargeH	correct	n/a	0.40186	no	n/a	n/a
873.2944336	n/a	223563.375	largeTSmallT	correct	congruent	0.32178	no	T	T
873.6162109	n/a	223645.75	responseLargeT	correct	n/a	0.32178	no	n/a	n/a
874.6806641	n/a	223918.25	largeHSmallT	correct	incongruent	0.32812	no	H	T
875.0087891	n/a	224002.25	responseLargeH	correct	n/a	0.32812	no	n/a	n/a
876.0683594	n/a	224273.5	largeHSmallT	error	incongruent	0.38135	no	H	T
876.449707	n/a	224371.125	responseLargeT	error	n/a	0.38135	no	n/a	n/a
877.5209961	n/a	224645.375	largeHSmallT	correct	incongruent	0.4248	no	H	T
877.9458008	n/a	224754.125	responseLargeH	correct	n/a	0.4248	no	n/a	n/a
879.0273438	n/a	225031	largeTSmallT	correct	congruent	0.43506	no	T	T
879.4624023	n/a	225142.375	responseLargeT	correct	n/a	0.43506	no	n/a	n/a
880.5341797	n/a	225416.75	largeHSmallT	correct	incongruent	0.3252	no	H	T
880.859375	n/a	225500	responseLargeH	correct	n/a	0.3252	no	n/a	n/a
881.934082	n/a	225775.125	largeHSmallH	error	congruent	0.29834	no	H	H
882.2324219	n/a	225851.5	responseLargeT	error	n/a	0.29834	no	n/a	n/a
883.3076172	n/a	226126.75	largeTSmallT	correct	congruent	0.37158	no	T	T
883.6791992	n/a	226221.875	responseLargeT	correct	n/a	0.37158	no	n/a	n/a
884.7475586	n/a	226495.375	largeHSmallH	correct	congruent	0.38721	no	H	H
885.1347656	n/a	226594.5	responseLargeH	correct	n/a	0.38721	no	n/a	n/a
886.2138672	n/a	226870.75	largeTSmallH	correct	incongruent	0.37256	no	T	H
886.5864258	n/a	226966.125	responseLargeT	correct	n/a	0.37256	no	n/a	n/a
887.6674805	n/a	227242.875	largeHSmallH	correct	congruent	0.32373	no	H	H
887.9912109	n/a	227325.75	responseLargeH	correct	n/a	0.32373	no	n/a	n/a
889.0668945	n/a	227601.125	largeTSmallH	correct	incongruent	0.40381	no	T	H
889.4707031	n/a	227704.5	responseLargeT	correct	n/a	0.40381	no	n/a	n/a
890.546875	n/a	227980	largeTSmallT	correct	congruent	0.50244	no	T	T
891.0493164	n/a	228108.625	responseLargeT	correct	n/a	0.50244	no	n/a	n/a
892.1206055	n/a	228382.875	largeTSmallH	correct	incongruent	0.49805	no	T	H
892.6186523	n/a	228510.375	responseLargeT	correct	n/a	0.49805	no	n/a	n/a
893.6801758	n/a	228782.125	largeTSmallT	correct	congruent	0.42432	no	T	T
894.1044922	n/a	228890.75	responseLargeT	correct	n/a	0.42432	no	n/a	n/a
895.1870117	n/a	229167.875	largeHSmallT	correct	incongruent	0.5498	no	H	T
895.7368164	n/a	229308.625	responseLargeH	correct	n/a	0.5498	no	n/a	n/a
896.800293	n/a	229580.875	largeHSmallT	correct	incongruent	0.44043	no	H	T
897.2407227	n/a	229693.625	responseLargeH	correct	n/a	0.44043	no	n/a	n/a
898.3203125	n/a	229970	largeTSmallT	correct	congruent	0.48779	no	T	T
898.8081055	n/a	230094.875	responseLargeT	correct	n/a	0.48779	no	n/a	n/a
899.8803711	n/a	230369.375	largeHSmallH	correct	congruent	0.38428	no	H	H
900.2646484	n/a	230467.75	responseLargeH	correct	n/a	0.38428	no	n/a	n/a
901.3334961	n/a	230741.375	largeHSmallT	correct	incongruent	0.48096	no	H	T
901.8144531	n/a	230864.5	responseLargeH	correct	n/a	0.48096	no	n/a	n/a
902.8935547	n/a	231140.75	largeHSmallH	correct	congruent	0.42041	no	H	H
903.3139648	n/a	231248.375	responseLargeH	correct	n/a	0.42041	no	n/a	n/a
904.3867188	n/a	231523	largeTSmallT	correct	congruent	0.52441	no	T	T
904.9111328	n/a	231657.25	responseLargeT	correct	n/a	0.52441	no	n/a	n/a
905.9736328	n/a	231929.25	largeHSmallH	correct	congruent	0.38623	no	H	H
906.3598633	n/a	232028.125	responseLargeH	correct	n/a	0.38623	no	n/a	n/a
907.4267578	n/a	232301.25	largeTSmallT	correct	congruent	0.4126	no	T	T
907.8393555	n/a	232406.875	responseLargeT	correct	n/a	0.4126	no	n/a	n/a
908.9067383	n/a	232680.125	largeHSmallH	correct	congruent	0.31104	no	H	H
909.2177734	n/a	232759.75	responseLargeH	correct	n/a	0.31104	no	n/a	n/a
910.2797852	n/a	233031.625	largeTSmallT	correct	congruent	0.35449	no	T	T
910.6342773	n/a	233122.375	responseLargeT	correct	n/a	0.35449	no	n/a	n/a
911.706543	n/a	233396.875	largeTSmallT	error	congruent	0.39014	no	T	T
912.0966797	n/a	233496.75	responseLargeH	error	n/a	0.39014	no	n/a	n/a
913.1733398	n/a	233772.375	largeTSmallH	correct	incongruent	0.47803	no	T	H
913.6513672	n/a	233894.75	responseLargeT	correct	n/a	0.47803	no	n/a	n/a
914.7329102	n/a	234171.625	largeHSmallT	correct	incongruent	0.37207	no	H	T
915.1049805	n/a	234266.875	responseLargeH	correct	n/a	0.37207	no	n/a	n/a
916.1733398	n/a	234540.375	largeTSmallH	correct	incongruent	0.43652	no	T	H
916.6098633	n/a	234652.125	responseLargeT	correct	n/a	0.43652	no	n/a	n/a
917.6791992	n/a	234925.875	largeTSmallH	correct	incongruent	0.42725	no	T	H
918.1064453	n/a	235035.25	responseLargeT	correct	n/a	0.42725	no	n/a	n/a
919.1733398	n/a	235308.375	largeTSmallH	correct	incongruent	0.46777	no	T	H
919.6411133	n/a	235428.125	responseLargeT	correct	n/a	0.46777	no	n/a	n/a
920.7197266	n/a	235704.25	largeHSmallH	correct	congruent	0.45264	no	H	H
921.1723633	n/a	235820.125	responseLargeH	correct	n/a	0.45264	no	n/a	n/a
922.2529297	n/a	236096.75	largeTSmallH	correct	incongruent	0.63916	no	T	H
922.8920898	n/a	236260.375	responseLargeT	correct	n/a	0.63916	no	n/a	n/a
923.9594727	n/a	236533.625	largeTSmallH	correct	incongruent	0.44678	no	T	H
924.40625	n/a	236648	responseLargeT	correct	n/a	0.44678	no	n/a	n/a
925.4794922	n/a	236922.75	largeTSmallT	correct	congruent	0.42871	no	T	T
925.9082031	n/a	237032.5	responseLargeT	correct	n/a	0.42871	no	n/a	n/a
926.9731445	n/a	237305.125	largeHSmallT	correct	incongruent	0.35449	no	H	T
927.3276367	n/a	237395.875	responseLargeH	correct	n/a	0.35449	no	n/a	n/a
928.3994141	n/a	237670.25	largeHSmallT	correct	incongruent	0.4585	no	H	T
928.8579102	n/a	237787.625	responseLargeH	correct	n/a	0.4585	no	n/a	n/a
929.9194336	n/a	238059.375	largeTSmallH	correct	incongruent	0.31885	no	T	H
930.2382812	n/a	238141	responseLargeT	correct	n/a	0.31885	no	n/a	n/a
931.3193359	n/a	238417.75	largeHSmallT	correct	incongruent	0.36475	no	H	T
931.684082	n/a	238511.125	responseLargeH	correct	n/a	0.36475	no	n/a	n/a
932.7460938	n/a	238783	largeHSmallT	correct	incongruent	0.43262	no	H	T
933.1787109	n/a	238893.75	responseLargeH	correct	n/a	0.43262	no	n/a	n/a
934.2392578	n/a	239165.25	largeTSmallT	correct	congruent	0.32227	no	T	T
934.5615234	n/a	239247.75	responseLargeT	correct	n/a	0.32227	no	n/a	n/a
935.6391602	n/a	239523.625	largeHSmallT	correct	incongruent	0.32959	no	H	T
935.96875	n/a	239608	responseLargeH	correct	n/a	0.32959	no	n/a	n/a
937.0390625	n/a	239882	largeTSmallT	correct	congruent	0.36621	no	T	T
937.4052734	n/a	239975.75	responseLargeT	correct	n/a	0.36621	no	n/a	n/a
938.4658203	n/a	240247.25	largeTSmallH	correct	incongruent	0.4126	no	T	H
938.878418	n/a	240352.875	responseLargeT	correct	n/a	0.4126	no	n/a	n/a
939.9594727	n/a	240629.625	largeTSmallH	correct	incongruent	0.43555	no	T	H
940.3950195	n/a	240741.125	responseLargeT	correct	n/a	0.43555	no	n/a	n/a
941.4658203	n/a	241015.25	largeHSmallH	correct	congruent	0.33691	no	H	H
941.8027344	n/a	241101.5	responseLargeH	correct	n/a	0.33691	no	n/a	n/a
942.8657227	n/a	241373.625	largeTSmallT	correct	congruent	0.31348	no	T	T
943.1791992	n/a	241453.875	responseLargeT	correct	n/a	0.31348	no	n/a	n/a
944.2392578	n/a	241725.25	largeTSmallH	correct	incongruent	0.44678	no	T	H
944.6860352	n/a	241839.625	responseLargeT	correct	n/a	0.44678	no	n/a	n/a
945.7592773	n/a	242114.375	largeTSmallT	correct	congruent	0.45312	no	T	T
946.2124023	n/a	242230.375	responseLargeT	correct	n/a	0.45312	no	n/a	n/a
947.2792969	n/a	242503.5	largeHSmallT	correct	incongruent	0.375	no	H	T
947.6542969	n/a	242599.5	responseLargeH	correct	n/a	0.375	no	n/a	n/a
948.7192383	n/a	242872.125	largeHSmallT	correct	incongruent	0.45264	no	H	T
949.171875	n/a	242988	responseLargeH	correct	n/a	0.45264	no	n/a	n/a
950.2524414	n/a	243264.625	largeTSmallT	correct	congruent	0.37646	no	T	T
950.6289062	n/a	243361	responseLargeT	correct	n/a	0.37646	no	n/a	n/a
951.7055664	n/a	243636.625	largeTSmallT	correct	congruent	0.45605	no	T	T
952.1616211	n/a	243753.375	responseLargeT	correct	n/a	0.45605	no	n/a	n/a
953.2255859	n/a	244025.75	largeTSmallT	correct	congruent	0.42578	no	T	T
953.6513672	n/a	244134.75	responseLargeT	correct	n/a	0.42578	no	n/a	n/a
954.7319336	n/a	244411.375	largeTSmallH	correct	incongruent	0.43799	no	T	H
955.1699219	n/a	244523.5	responseLargeT	correct	n/a	0.43799	no	n/a	n/a
956.2387695	n/a	244797.125	largeHSmallH	correct	congruent	0.39893	no	H	H
956.6376953	n/a	244899.25	responseLargeH	correct	n/a	0.39893	no	n/a	n/a
957.7055664	n/a	245172.625	largeTSmallT	correct	congruent	0.3916	no	T	T
958.097168	n/a	245272.875	responseLargeT	correct	n/a	0.3916	no	n/a	n/a
959.171875	n/a	245548	largeTSmallH	correct	incongruent	0.41602	no	T	H
959.5878906	n/a	245654.5	responseLargeT	correct	n/a	0.41602	no	n/a	n/a
960.6518555	n/a	245926.875	largeHSmallH	correct	congruent	0.37451	no	H	H
961.0263672	n/a	246022.75	responseLargeH	correct	n/a	0.37451	no	n/a	n/a
962.0917969	n/a	246295.5	largeTSmallT	correct	congruent	0.40479	no	T	T
962.496582	n/a	246399.125	responseLargeT	correct	n/a	0.40479	no	n/a	n/a
974.2114258	n/a	249398.125	largeTSmallH	error	incongruent	0.51562	no	T	H
974.7270508	n/a	249530.125	responseSmallT	error	n/a	0.51562	no	n/a	n/a
975.7983398	n/a	249804.375	largeTSmallH	correct	incongruent	0.42725	no	T	H
976.2255859	n/a	249913.75	responseSmallH	correct	n/a	0.42725	no	n/a	n/a
977.3051758	n/a	250190.125	largeTSmallT	correct	congruent	0.37402	no	T	T
977.6791992	n/a	250285.875	responseSmallT	correct	n/a	0.37402	no	n/a	n/a
978.7583008	n/a	250562.125	largeHSmallT	correct	incongruent	0.49365	no	H	T
979.2519531	n/a	250688.5	responseSmallT	correct	n/a	0.49365	no	n/a	n/a
980.331543	n/a	250964.875	largeTSmallT	correct	congruent	0.48633	no	T	T
980.8178711	n/a	251089.375	responseSmallT	correct	n/a	0.48633	no	n/a	n/a
981.8916016	n/a	251364.25	largeTSmallH	correct	incongruent	0.39844	no	T	H
982.2900391	n/a	251466.25	responseSmallH	correct	n/a	0.39844	no	n/a	n/a
983.3579102	n/a	251739.625	largeTSmallH	correct	incongruent	0.49951	no	T	H
983.8574219	n/a	251867.5	responseSmallH	correct	n/a	0.49951	no	n/a	n/a
984.9311523	n/a	252142.375	largeTSmallH	correct	incongruent	0.44043	no	T	H
985.371582	n/a	252255.125	responseSmallH	correct	n/a	0.44043	no	n/a	n/a
986.4379883	n/a	252528.125	largeTSmallH	correct	incongruent	0.41211	no	T	H
986.8500977	n/a	252633.625	responseSmallH	correct	n/a	0.41211	no	n/a	n/a
987.9311523	n/a	252910.375	largeHSmallT	correct	incongruent	0.36475	no	H	T
988.2958984	n/a	253003.75	responseSmallT	correct	n/a	0.36475	no	n/a	n/a
989.3579102	n/a	253275.625	largeHSmallH	correct	congruent	0.36963	no	H	H
989.7275391	n/a	253370.25	responseSmallH	correct	n/a	0.36963	no	n/a	n/a
990.7978516	n/a	253644.25	largeHSmallH	correct	congruent	0.43896	no	H	H
991.2368164	n/a	253756.625	responseSmallH	correct	n/a	0.43896	no	n/a	n/a
992.3041992	n/a	254029.875	largeHSmallH	correct	congruent	0.43018	no	H	H
992.734375	n/a	254140	responseSmallH	correct	n/a	0.43018	no	n/a	n/a
993.8110352	n/a	254415.625	largeTSmallT	correct	congruent	0.37988	no	T	T
994.190918	n/a	254512.875	responseSmallT	correct	n/a	0.37988	no	n/a	n/a
995.2509766	n/a	254784.25	largeHSmallT	correct	incongruent	0.47559	no	H	T
995.7265625	n/a	254906	responseSmallT	correct	n/a	0.47559	no	n/a	n/a
996.7978516	n/a	255180.25	largeTSmallT	correct	congruent	0.51123	no	T	T
997.309082	n/a	255311.125	responseSmallT	correct	n/a	0.51123	no	n/a	n/a
998.3710938	n/a	255583	largeTSmallH	correct	incongruent	0.31689	no	T	H
998.6879883	n/a	255664.125	responseSmallH	correct	n/a	0.31689	no	n/a	n/a
999.7709961	n/a	255941.375	largeHSmallT	correct	incongruent	0.38135	no	H	T
1000.152344	n/a	256039	responseSmallT	correct	n/a	0.38135	no	n/a	n/a
1001.224121	n/a	256313.375	largeHSmallH	correct	congruent	0.4165	no	H	H
1001.640625	n/a	256420	responseSmallH	correct	n/a	0.4165	no	n/a	n/a
1002.717285	n/a	256695.625	largeHSmallT	error	incongruent	0.47803	no	H	T
1003.195312	n/a	256818	responseSmallH	error	n/a	0.47803	no	n/a	n/a
1004.277344	n/a	257095	largeTSmallH	correct	incongruent	0.37012	no	T	H
1004.647461	n/a	257189.75	responseSmallH	correct	n/a	0.37012	no	n/a	n/a
1005.717285	n/a	257463.625	largeHSmallT	correct	incongruent	0.34082	no	H	T
1006.058105	n/a	257550.875	responseSmallT	correct	n/a	0.34082	no	n/a	n/a
1007.130859	n/a	257825.5	largeHSmallT	correct	incongruent	0.47559	no	H	T
1007.606445	n/a	257947.25	responseSmallT	correct	n/a	0.47559	no	n/a	n/a
1008.677246	n/a	258221.375	largeTSmallT	correct	congruent	0.48682	no	T	T
1009.164062	n/a	258346	responseSmallT	correct	n/a	0.48682	no	n/a	n/a
1010.237305	n/a	258620.75	largeTSmallH	error	incongruent	0.4375	no	T	H
1010.674805	n/a	258732.75	responseSmallT	error	n/a	0.4375	no	n/a	n/a
1011.744141	n/a	259006.5	largeTSmallT	correct	congruent	0.49854	no	T	T
1012.242676	n/a	259134.125	responseSmallT	correct	n/a	0.49854	no	n/a	n/a
1013.316895	n/a	259409.125	largeTSmallH	correct	incongruent	0.36084	no	T	H
1013.677734	n/a	259501.5	responseSmallH	correct	n/a	0.36084	no	n/a	n/a
1014.743652	n/a	259774.375	largeTSmallT	correct	congruent	0.45264	no	T	T
1015.196289	n/a	259890.25	responseSmallT	correct	n/a	0.45264	no	n/a	n/a
1016.263672	n/a	260163.5	largeTSmallT	correct	congruent	0.41309	no	T	T
1016.676758	n/a	260269.25	responseSmallT	correct	n/a	0.41309	no	n/a	n/a
1017.756836	n/a	260545.75	largeTSmallT	correct	congruent	0.50879	no	T	T
1018.265625	n/a	260676	responseSmallT	correct	n/a	0.50879	no	n/a	n/a
1019.34375	n/a	260952	largeHSmallH	correct	congruent	0.49951	no	H	H
1019.843262	n/a	261079.875	responseSmallH	correct	n/a	0.49951	no	n/a	n/a
1020.916992	n/a	261354.75	largeHSmallT	correct	incongruent	0.42822	no	H	T
1021.345215	n/a	261464.375	responseSmallT	correct	n/a	0.42822	no	n/a	n/a
1022.410156	n/a	261737	largeTSmallH	correct	incongruent	0.34717	no	T	H
1022.757324	n/a	261825.875	responseSmallH	correct	n/a	0.34717	no	n/a	n/a
1023.836914	n/a	262102.25	largeHSmallT	correct	incongruent	0.38623	no	H	T
1024.223145	n/a	262201.125	responseSmallT	correct	n/a	0.38623	no	n/a	n/a
1025.290039	n/a	262474.25	largeHSmallT	correct	incongruent	0.43799	no	H	T
1025.728027	n/a	262586.375	responseSmallT	correct	n/a	0.43799	no	n/a	n/a
1026.796875	n/a	262860	largeTSmallH	correct	incongruent	0.33057	no	T	H
1027.127441	n/a	262944.625	responseSmallH	correct	n/a	0.33057	no	n/a	n/a
1028.209961	n/a	263221.75	largeTSmallT	correct	congruent	0.45215	no	T	T
1028.662109	n/a	263337.5	responseSmallT	correct	n/a	0.45215	no	n/a	n/a
1029.72998	n/a	263610.875	largeHSmallH	correct	congruent	0.31787	no	H	H
1030.047852	n/a	263692.25	responseSmallH	correct	n/a	0.31787	no	n/a	n/a
1031.116699	n/a	263965.875	largeTSmallH	error	incongruent	0.3125	no	T	H
1031.429199	n/a	264045.875	responseSmallT	error	n/a	0.3125	no	n/a	n/a
1032.490234	n/a	264317.5	largeHSmallH	correct	congruent	0.39941	no	H	H
1032.889648	n/a	264419.75	responseSmallH	correct	n/a	0.39941	no	n/a	n/a
1033.957031	n/a	264693	largeTSmallT	correct	congruent	0.39746	no	T	T
1034.354492	n/a	264794.75	responseSmallT	correct	n/a	0.39746	no	n/a	n/a
1035.42334	n/a	265068.375	largeTSmallT	correct	congruent	0.43359	no	T	T
1035.856934	n/a	265179.375	responseSmallT	correct	n/a	0.43359	no	n/a	n/a
1036.930176	n/a	265454.125	largeHSmallT	error	incongruent	0.37305	no	H	T
1037.303223	n/a	265549.625	responseSmallH	error	n/a	0.37305	no	n/a	n/a
1038.370117	n/a	265822.75	largeTSmallT	correct	congruent	0.43066	no	T	T
1038.800781	n/a	265933	responseSmallT	correct	n/a	0.43066	no	n/a	n/a
1039.876465	n/a	266208.375	largeTSmallH	correct	incongruent	0.37012	no	T	H
1040.246582	n/a	266303.125	responseSmallH	correct	n/a	0.37012	no	n/a	n/a
1041.330078	n/a	266580.5	largeTSmallT	correct	congruent	0.42725	no	T	T
1041.757324	n/a	266689.875	responseSmallT	correct	n/a	0.42725	no	n/a	n/a
1042.823242	n/a	266962.75	largeHSmallH	correct	congruent	0.38037	no	H	H
1043.203613	n/a	267060.125	responseSmallH	correct	n/a	0.38037	no	n/a	n/a
1044.276367	n/a	267334.75	largeHSmallT	correct	incongruent	0.49365	no	H	T
1044.77002	n/a	267461.125	responseSmallT	correct	n/a	0.49365	no	n/a	n/a
1045.849609	n/a	267737.5	largeTSmallT	correct	congruent	0.47705	no	T	T
1046.32666	n/a	267859.625	responseSmallT	correct	n/a	0.47705	no	n/a	n/a
1047.396484	n/a	268133.5	largeTSmallT	correct	congruent	0.46582	no	T	T
1047.862305	n/a	268252.75	responseSmallT	correct	n/a	0.46582	no	n/a	n/a
1048.942871	n/a	268529.375	largeTSmallH	correct	incongruent	0.40186	no	T	H
1049.344727	n/a	268632.25	responseSmallH	correct	n/a	0.40186	no	n/a	n/a
1050.422852	n/a	268908.25	largeTSmallH	error	incongruent	0.42285	no	T	H
1050.845703	n/a	269016.5	responseSmallT	error	n/a	0.42285	no	n/a	n/a
1051.916504	n/a	269290.625	largeHSmallH	correct	congruent	0.39795	no	H	H
1052.314453	n/a	269392.5	responseSmallH	correct	n/a	0.39795	no	n/a	n/a
1053.382812	n/a	269666	largeHSmallT	correct	incongruent	0.43164	no	H	T
1053.814453	n/a	269776.5	responseSmallT	correct	n/a	0.43164	no	n/a	n/a
1054.875977	n/a	270048.25	largeHSmallT	correct	incongruent	0.50635	no	H	T
1055.382324	n/a	270177.875	responseSmallT	correct	n/a	0.50635	no	n/a	n/a
1056.449707	n/a	270451.125	largeHSmallT	correct	incongruent	0.63525	no	H	T
1057.084961	n/a	270613.75	responseSmallT	correct	n/a	0.63525	no	n/a	n/a
1058.15625	n/a	270888	largeHSmallH	correct	congruent	0.40283	no	H	H
1058.559082	n/a	270991.125	responseSmallH	correct	n/a	0.40283	no	n/a	n/a
1059.622559	n/a	271263.375	largeTSmallH	correct	incongruent	0.46729	no	T	H
1060.089844	n/a	271383	responseSmallH	correct	n/a	0.46729	no	n/a	n/a
1061.169434	n/a	271659.375	largeHSmallT	correct	incongruent	0.49609	no	H	T
1061.665527	n/a	271786.375	responseSmallT	correct	n/a	0.49609	no	n/a	n/a
1062.742676	n/a	272062.125	largeHSmallH	correct	congruent	0.4165	no	H	H
1063.15918	n/a	272168.75	responseSmallH	correct	n/a	0.4165	no	n/a	n/a
1064.222656	n/a	272441	largeHSmallH	correct	congruent	0.44971	no	H	H
1064.672363	n/a	272556.125	responseSmallH	correct	n/a	0.44971	no	n/a	n/a
1065.742676	n/a	272830.125	largeTSmallH	correct	incongruent	0.50928	no	T	H
1066.251953	n/a	272960.5	responseSmallH	correct	n/a	0.50928	no	n/a	n/a
1067.329102	n/a	273236.25	largeHSmallH	correct	congruent	0.44727	no	H	H
1067.776367	n/a	273350.75	responseSmallH	correct	n/a	0.44727	no	n/a	n/a
1068.849121	n/a	273625.375	largeTSmallT	correct	congruent	0.34473	no	T	T
1069.193848	n/a	273713.625	responseSmallT	correct	n/a	0.34473	no	n/a	n/a
1070.262207	n/a	273987.125	largeHSmallT	correct	incongruent	0.4209	no	H	T
1070.683105	n/a	274094.875	responseSmallT	correct	n/a	0.4209	no	n/a	n/a
1071.755859	n/a	274369.5	largeHSmallT	correct	incongruent	0.41895	no	H	T
1072.174805	n/a	274476.75	responseSmallT	correct	n/a	0.41895	no	n/a	n/a
1073.235352	n/a	274748.25	largeTSmallH	correct	incongruent	0.49609	no	T	H
1073.731445	n/a	274875.25	responseSmallH	correct	n/a	0.49609	no	n/a	n/a
1074.809082	n/a	275151.125	largeTSmallH	correct	incongruent	0.60498	no	T	H
1075.414062	n/a	275306	responseSmallH	correct	n/a	0.60498	no	n/a	n/a
1076.48877	n/a	275581.125	largeHSmallT	error	incongruent	0.43262	no	H	T
1076.921387	n/a	275691.875	responseSmallH	error	n/a	0.43262	no	n/a	n/a
1077.995605	n/a	275966.875	largeHSmallH	correct	congruent	0.41992	no	H	H
1078.415527	n/a	276074.375	responseSmallH	correct	n/a	0.41992	no	n/a	n/a
1079.48877	n/a	276349.125	largeTSmallT	correct	congruent	0.40918	no	T	T
1079.897949	n/a	276453.875	responseSmallT	correct	n/a	0.40918	no	n/a	n/a
1080.96875	n/a	276728	largeTSmallH	correct	incongruent	0.48926	no	T	H
1081.458008	n/a	276853.25	responseSmallH	correct	n/a	0.48926	no	n/a	n/a
1082.515137	n/a	277123.875	largeHSmallT	error	incongruent	0.44092	no	H	T
1082.956055	n/a	277236.75	responseSmallH	error	n/a	0.44092	no	n/a	n/a
1084.021973	n/a	277509.625	largeHSmallT	correct	incongruent	0.48535	no	H	T
1084.507324	n/a	277633.875	responseSmallT	correct	n/a	0.48535	no	n/a	n/a
1085.582031	n/a	277909	largeTSmallT	correct	congruent	0.44531	no	T	T
1086.027344	n/a	278023	responseSmallT	correct	n/a	0.44531	no	n/a	n/a
1087.088867	n/a	278294.75	largeTSmallH	correct	incongruent	0.40967	no	T	H
1087.498535	n/a	278399.625	responseSmallH	correct	n/a	0.40967	no	n/a	n/a
1088.582031	n/a	278677	largeHSmallT	correct	incongruent	0.55957	no	H	T
1089.141602	n/a	278820.25	responseSmallT	correct	n/a	0.55957	no	n/a	n/a
1090.208496	n/a	279093.375	largeTSmallH	correct	incongruent	0.76123	no	T	H
1090.969727	n/a	279288.25	responseSmallH	correct	n/a	0.76123	no	n/a	n/a
1092.035156	n/a	279561	largeTSmallT	correct	congruent	0.41309	no	T	T
1092.448242	n/a	279666.75	responseSmallT	correct	n/a	0.41309	no	n/a	n/a
1093.515137	n/a	279939.875	largeHSmallH	correct	congruent	0.38574	no	H	H
1093.900879	n/a	280038.625	responseSmallH	correct	n/a	0.38574	no	n/a	n/a
1094.96875	n/a	280312	largeHSmallT	correct	incongruent	0.40039	no	H	T
1095.369141	n/a	280414.5	responseSmallT	correct	n/a	0.40039	no	n/a	n/a
1096.435059	n/a	280687.375	largeTSmallH	correct	incongruent	0.37354	no	T	H
1096.808594	n/a	280783	responseSmallH	correct	n/a	0.37354	no	n/a	n/a
1097.875	n/a	281056	largeTSmallT	correct	congruent	0.41455	no	T	T
1098.289551	n/a	281162.125	responseSmallT	correct	n/a	0.41455	no	n/a	n/a
1099.35498	n/a	281434.875	largeTSmallT	correct	congruent	0.43457	no	T	T
1099.789551	n/a	281546.125	responseSmallT	correct	n/a	0.43457	no	n/a	n/a
1100.848145	n/a	281817.125	largeHSmallT	correct	incongruent	0.49023	no	H	T
1101.338379	n/a	281942.625	responseSmallT	correct	n/a	0.49023	no	n/a	n/a
1102.408203	n/a	282216.5	largeTSmallT	correct	congruent	0.45947	no	T	T
1102.867676	n/a	282334.125	responseSmallT	correct	n/a	0.45947	no	n/a	n/a
1103.941406	n/a	282609	largeTSmallH	correct	incongruent	0.36523	no	T	H
1104.306641	n/a	282702.5	responseSmallH	correct	n/a	0.36523	no	n/a	n/a
1105.381348	n/a	282977.625	largeTSmallT	correct	congruent	0.3667	no	T	T
1105.748047	n/a	283071.5	responseSmallT	correct	n/a	0.3667	no	n/a	n/a
1106.808105	n/a	283342.875	largeTSmallH	correct	incongruent	0.34766	no	T	H
1107.155762	n/a	283431.875	responseSmallH	correct	n/a	0.34766	no	n/a	n/a
1108.234863	n/a	283708.125	largeTSmallH	correct	incongruent	0.49805	no	T	H
1108.73291	n/a	283835.625	responseSmallH	correct	n/a	0.49805	no	n/a	n/a
1109.808105	n/a	284110.875	largeHSmallT	error	incongruent	0.47168	no	H	T
1110.279785	n/a	284231.625	responseSmallH	error	n/a	0.47168	no	n/a	n/a
1111.354492	n/a	284506.75	largeTSmallH	correct	incongruent	0.39062	no	T	H
1111.745117	n/a	284606.75	responseSmallH	correct	n/a	0.39062	no	n/a	n/a
1112.821289	n/a	284882.25	largeTSmallT	correct	congruent	0.34912	no	T	T
1113.17041	n/a	284971.625	responseSmallT	correct	n/a	0.34912	no	n/a	n/a
1114.234375	n/a	285244	largeTSmallT	correct	congruent	0.48682	no	T	T
1114.721191	n/a	285368.625	responseSmallT	correct	n/a	0.48682	no	n/a	n/a
1115.794434	n/a	285643.375	largeHSmallH	correct	congruent	0.34229	no	H	H
1116.136719	n/a	285731	responseSmallH	correct	n/a	0.34229	no	n/a	n/a
1117.194336	n/a	286001.75	largeHSmallH	correct	congruent	0.44873	no	H	H
