onset	duration	sample	value	stimulus	response_type	response_time
91.47265625	n/a	23417	A	nontarget	n/a	n/a
93.1484375	n/a	23846	C	nontarget	n/a	n/a
94.72265625	n/a	24249	D	nontarget	n/a	n/a
96.2890625	n/a	24650	C	nontarget	n/a	n/a
97.859375	n/a	25052	A	nontarget	n/a	n/a
99.43359375	n/a	25455	A	target	hit	691.4062
100.125	n/a	25632	rt	n/a	hit	691.4062
101	n/a	25856	D	nontarget	n/a	n/a
102.5664062	n/a	26257	B	nontarget	n/a	n/a
104.1289062	n/a	26657	A	nontarget	n/a	n/a
105.6992188	n/a	27059	A	target	hit	574.2188
106.2734375	n/a	27206	rt	n/a	hit	574.2188
107.2734375	n/a	27462	B	nontarget	n/a	n/a
108.8476562	n/a	27865	B	target	hit	500
109.3476562	n/a	27993	rt	n/a	hit	500
110.421875	n/a	28268	B	target	hit	808.5938
111.2304688	n/a	28475	rt	n/a	hit	808.5938
111.9921875	n/a	28670	A	nontarget	n/a	n/a
113.5546875	n/a	29070	A	target	hit	542.9688
114.0976562	n/a	29209	rt	n/a	hit	542.9688
115.1289062	n/a	29473	D	nontarget	n/a	n/a
116.6875	n/a	29872	C	nontarget	n/a	n/a
118.2460938	n/a	30271	C	target	hit	535.1562
118.78125	n/a	30408	rt	n/a	hit	535.1562
119.8085938	n/a	30671	A	nontarget	n/a	n/a
121.375	n/a	31072	D	nontarget	n/a	n/a
122.953125	n/a	31476	A	nontarget	n/a	n/a
124.5273438	n/a	31879	D	nontarget	n/a	n/a
126.1015625	n/a	32282	A	nontarget	n/a	n/a
127.6757812	n/a	32685	A	target	hit	570.3125
128.2460938	n/a	32831	rt	n/a	hit	570.3125
129.2460938	n/a	33087	A	target	hit	695.3125
129.9414062	n/a	33265	rt	n/a	hit	695.3125
130.8085938	n/a	33487	C	nontarget	n/a	n/a
132.3671875	n/a	33886	B	nontarget	n/a	n/a
133.9414062	n/a	34289	C	nontarget	n/a	n/a
135.5	n/a	34688	C	target	hit	769.5312
136.2695312	n/a	34885	rt	n/a	hit	769.5312
137.0625	n/a	35088	A	nontarget	n/a	n/a
138.6210938	n/a	35487	B	nontarget	n/a	n/a
140.1796875	n/a	35886	B	target	hit	664.0625
140.84375	n/a	36056	rt	n/a	hit	664.0625
141.7421875	n/a	36286	A	nontarget	n/a	n/a
143.3007812	n/a	36685	A	target	hit	515.625
143.8164062	n/a	36817	rt	n/a	hit	515.625
144.859375	n/a	37084	C	nontarget	n/a	n/a
146.421875	n/a	37484	D	nontarget	n/a	n/a
147.9804688	n/a	37883	C	nontarget	n/a	n/a
149.5390625	n/a	38282	B	nontarget	n/a	n/a
151.1015625	n/a	38682	A	nontarget	n/a	n/a
152.6601562	n/a	39081	D	nontarget	n/a	n/a
154.21875	n/a	39480	C	nontarget	n/a	n/a
155.78125	n/a	39880	C	target	hit	566.4062
156.3476562	n/a	40025	rt	n/a	hit	566.4062
157.3398438	n/a	40279	C	target	hit	1050.7812
158.390625	n/a	40548	rt	n/a	hit	1050.7812
158.8984375	n/a	40678	D	nontarget	n/a	n/a
160.4609375	n/a	41078	A	nontarget	n/a	n/a
162.0195312	n/a	41477	C	nontarget	n/a	n/a
163.578125	n/a	41876	A	nontarget	n/a	n/a
165.140625	n/a	42276	D	nontarget	n/a	n/a
166.6992188	n/a	42675	A	nontarget	n/a	n/a
168.2734375	n/a	43078	B	nontarget	n/a	n/a
169.8476562	n/a	43481	D	nontarget	n/a	n/a
171.4179688	n/a	43883	B	nontarget	n/a	n/a
172.9921875	n/a	44286	D	nontarget	n/a	n/a
174.5664062	n/a	44689	D	target	hit	660.1562
175.2265625	n/a	44858	rt	n/a	hit	660.1562
176.140625	n/a	45092	C	nontarget	n/a	n/a
177.6992188	n/a	45491	D	nontarget	n/a	n/a
179.2578125	n/a	45890	A	nontarget	n/a	n/a
180.8203125	n/a	46290	B	nontarget	n/a	n/a
182.3789062	n/a	46689	C	nontarget	n/a	n/a
183.9414062	n/a	47089	C	target	hit	625
184.5664062	n/a	47249	rt	n/a	hit	625
185.5	n/a	47488	A	nontarget	n/a	n/a
187.0585938	n/a	47887	C	nontarget	n/a	n/a
188.6210938	n/a	48287	C	target	hit	675.7812
189.296875	n/a	48460	rt	n/a	hit	675.7812
190.1796875	n/a	48686	B	nontarget	n/a	n/a
191.7382812	n/a	49085	B	target	hit	609.375
192.3476562	n/a	49241	rt	n/a	hit	609.375
193.3007812	n/a	49485	D	nontarget	n/a	n/a
194.859375	n/a	49884	A	nontarget	n/a	n/a
196.4179688	n/a	50283	A	target	hit	617.1875
197.0351562	n/a	50441	rt	n/a	hit	617.1875
197.9804688	n/a	50683	A	target	hit	621.0938
198.6015625	n/a	50842	rt	n/a	hit	621.0938
199.5390625	n/a	51082	C	nontarget	n/a	n/a
201.0976562	n/a	51481	A	nontarget	n/a	n/a
202.6601562	n/a	51881	C	nontarget	n/a	n/a
204.21875	n/a	52280	A	nontarget	n/a	n/a
205.78125	n/a	52680	B	nontarget	n/a	n/a
207.3398438	n/a	53079	A	nontarget	n/a	n/a
208.8984375	n/a	53478	B	nontarget	n/a	n/a
210.4609375	n/a	53878	A	nontarget	n/a	n/a
212.0195312	n/a	54277	C	nontarget	n/a	n/a
213.578125	n/a	54676	C	target	hit	574.2188
214.1523438	n/a	54823	rt	n/a	hit	574.2188
215.140625	n/a	55076	A	nontarget	n/a	n/a
216.6992188	n/a	55475	B	nontarget	n/a	n/a
218.2578125	n/a	55874	B	target	hit	574.2188
218.8320312	n/a	56021	rt	n/a	hit	574.2188
219.8203125	n/a	56274	B	target	hit	656.25
220.4765625	n/a	56442	rt	n/a	hit	656.25
221.3789062	n/a	56673	D	nontarget	n/a	n/a
222.9375	n/a	57072	D	target	hit	753.9062
223.6914062	n/a	57265	rt	n/a	hit	753.9062
224.5	n/a	57472	C	nontarget	n/a	n/a
226.0585938	n/a	57871	B	nontarget	n/a	n/a
227.6171875	n/a	58270	A	nontarget	n/a	n/a
229.1796875	n/a	58670	C	nontarget	n/a	n/a
230.7382812	n/a	59069	D	nontarget	n/a	n/a
232.296875	n/a	59468	B	nontarget	n/a	n/a
233.859375	n/a	59868	C	nontarget	n/a	n/a
235.4179688	n/a	60267	C	target	hit	582.0312
236	n/a	60416	rt	n/a	hit	582.0312
236.9765625	n/a	60666	A	nontarget	n/a	n/a
238.5390625	n/a	61066	B	nontarget	n/a	n/a
240.0976562	n/a	61465	C	nontarget	n/a	n/a
241.6601562	n/a	61865	C	target	hit	664.0625
242.3242188	n/a	62035	rt	n/a	hit	664.0625
243.2304688	n/a	62267	D	nontarget	n/a	n/a
244.8046875	n/a	62670	D	target	hit	683.5938
245.4882812	n/a	62845	rt	n/a	hit	683.5938
246.3789062	n/a	63073	A	nontarget	n/a	n/a
247.953125	n/a	63476	B	nontarget	n/a	n/a
249.5234375	n/a	63878	D	nontarget	n/a	n/a
251.0976562	n/a	64281	D	target	hit	515.625
251.6132812	n/a	64413	rt	n/a	hit	515.625
252.65625	n/a	64680	B	nontarget	n/a	n/a
254.21875	n/a	65080	A	nontarget	n/a	n/a
255.7773438	n/a	65479	B	nontarget	n/a	n/a
257.3359375	n/a	65878	A	nontarget	n/a	n/a
258.8984375	n/a	66278	A	target	hit	707.0312
259.6054688	n/a	66459	rt	n/a	hit	707.0312
260.4570312	n/a	66677	B	nontarget	n/a	n/a
262.0195312	n/a	67077	B	target	miss	n/a
263.578125	n/a	67476	A	nontarget	miss	n/a
265.1367188	n/a	67875	B	nontarget	n/a	n/a
266.6992188	n/a	68275	D	nontarget	n/a	n/a
268.2578125	n/a	68674	B	nontarget	n/a	n/a
269.8164062	n/a	69073	C	nontarget	n/a	n/a
271.3789062	n/a	69473	C	target	hit	425.7812
271.8046875	n/a	69582	rt	n/a	hit	425.7812
272.9375	n/a	69872	B	nontarget	n/a	n/a
274.4960938	n/a	70271	A	nontarget	n/a	n/a
276.0585938	n/a	70671	C	nontarget	n/a	n/a
277.6171875	n/a	71070	B	nontarget	n/a	n/a
279.1757812	n/a	71469	B	target	miss	n/a
280.7382812	n/a	71869	D	nontarget	miss	n/a
282.296875	n/a	72268	D	target	hit	496.0938
282.7929688	n/a	72395	rt	n/a	hit	496.0938
283.859375	n/a	72668	D	target	hit	675.7812
284.5351562	n/a	72841	rt	n/a	hit	675.7812
285.4179688	n/a	73067	D	target	hit	488.2812
285.90625	n/a	73192	rt	n/a	hit	488.2812
286.9765625	n/a	73466	C	nontarget	n/a	n/a
288.5390625	n/a	73866	D	nontarget	n/a	n/a
290.0976562	n/a	74265	B	nontarget	n/a	n/a
291.65625	n/a	74664	D	nontarget	n/a	n/a
293.21875	n/a	75064	A	nontarget	n/a	n/a
294.7773438	n/a	75463	B	nontarget	n/a	n/a
296.3398438	n/a	75863	A	nontarget	n/a	n/a
297.8984375	n/a	76262	D	nontarget	n/a	n/a
299.4570312	n/a	76661	D	target	hit	539.0625
299.9960938	n/a	76799	rt	n/a	hit	539.0625
301.015625	n/a	77060	B	nontarget	n/a	n/a
302.578125	n/a	77460	B	target	hit	453.125
303.03125	n/a	77576	rt	n/a	hit	453.125
304.1367188	n/a	77859	C	nontarget	n/a	n/a
305.6992188	n/a	78259	C	target	hit	531.25
306.2304688	n/a	78395	rt	n/a	hit	531.25
307.2578125	n/a	78658	A	nontarget	n/a	n/a
308.8164062	n/a	79057	C	nontarget	n/a	n/a
310.375	n/a	79456	A	nontarget	n/a	n/a
311.9375	n/a	79856	B	nontarget	n/a	n/a
313.4960938	n/a	80255	C	nontarget	n/a	n/a
315.0585938	n/a	80655	D	nontarget	n/a	n/a
316.6171875	n/a	81054	D	target	hit	640.625
317.2578125	n/a	81218	rt	n/a	hit	640.625
318.1757812	n/a	81453	A	nontarget	n/a	n/a
319.7382812	n/a	81853	A	target	hit	625
320.3632812	n/a	82013	rt	n/a	hit	625
321.296875	n/a	82252	D	nontarget	n/a	n/a
322.8710938	n/a	82655	D	target	hit	750
323.6210938	n/a	82847	rt	n/a	hit	750
324.4453125	n/a	83058	D	target	hit	726.5625
325.171875	n/a	83244	rt	n/a	hit	726.5625
326.015625	n/a	83460	B	nontarget	n/a	n/a
327.5898438	n/a	83863	C	nontarget	n/a	n/a
329.1640625	n/a	84266	C	target	hit	476.5625
329.640625	n/a	84388	rt	n/a	hit	476.5625
330.7226562	n/a	84665	C	target	hit	585.9375
331.3085938	n/a	84815	rt	n/a	hit	585.9375
332.28125	n/a	85064	B	nontarget	n/a	n/a
333.84375	n/a	85464	A	nontarget	n/a	n/a
335.4023438	n/a	85863	C	nontarget	n/a	n/a
336.9648438	n/a	86263	C	target	hit	593.75
337.5585938	n/a	86415	rt	n/a	hit	593.75
338.5234375	n/a	86662	C	target	hit	597.6562
339.1210938	n/a	86815	rt	n/a	hit	597.6562
340.0820312	n/a	87061	A	nontarget	n/a	n/a
341.6445312	n/a	87461	D	nontarget	n/a	n/a
343.203125	n/a	87860	C	nontarget	n/a	n/a
344.7617188	n/a	88259	A	nontarget	n/a	n/a
346.3242188	n/a	88659	A	target	hit	640.625
346.9648438	n/a	88823	rt	n/a	hit	640.625
347.8828125	n/a	89058	A	target	hit	609.375
348.4921875	n/a	89214	rt	n/a	hit	609.375
349.4414062	n/a	89457	C	nontarget	n/a	n/a
351.0039062	n/a	89857	C	target	hit	718.75
351.7226562	n/a	90041	rt	n/a	hit	718.75
352.5625	n/a	90256	D	nontarget	n/a	n/a
354.1210938	n/a	90655	A	nontarget	n/a	n/a
355.6835938	n/a	91055	A	target	hit	656.25
356.3398438	n/a	91223	rt	n/a	hit	656.25
357.2421875	n/a	91454	A	target	hit	597.6562
357.8398438	n/a	91607	rt	n/a	hit	597.6562
358.8007812	n/a	91853	B	nontarget	n/a	n/a
360.3632812	n/a	92253	C	nontarget	n/a	n/a
361.921875	n/a	92652	D	nontarget	n/a	n/a
363.4804688	n/a	93051	A	nontarget	n/a	n/a
365.0429688	n/a	93451	D	nontarget	n/a	n/a
366.6015625	n/a	93850	A	nontarget	n/a	n/a
368.1640625	n/a	94250	A	target	hit	687.5
368.8515625	n/a	94426	rt	n/a	hit	687.5
369.7226562	n/a	94649	C	nontarget	n/a	n/a
371.28125	n/a	95048	B	nontarget	n/a	n/a
372.84375	n/a	95448	B	target	miss	n/a
374.4023438	n/a	95847	C	nontarget	miss	n/a
375.9609375	n/a	96246	C	target	hit	691.4062
376.6523438	n/a	96423	rt	n/a	hit	691.4062
377.5234375	n/a	96646	C	target	hit	679.6875
378.203125	n/a	96820	rt	n/a	hit	679.6875
379.0820312	n/a	97045	A	nontarget	n/a	n/a
380.6445312	n/a	97445	C	nontarget	n/a	n/a
382.203125	n/a	97844	A	nontarget	n/a	n/a
383.7773438	n/a	98247	D	nontarget	n/a	n/a
385.3476562	n/a	98649	D	target	hit	578.125
385.9257812	n/a	98797	rt	n/a	hit	578.125
386.9101562	n/a	99049	A	nontarget	n/a	n/a
388.4804688	n/a	99451	C	nontarget	n/a	n/a
390.0546875	n/a	99854	B	nontarget	n/a	n/a
391.6289062	n/a	100257	D	nontarget	n/a	n/a
393.203125	n/a	100660	A	nontarget	n/a	n/a
394.7734375	n/a	101062	A	target	hit	613.2812
395.3867188	n/a	101219	rt	n/a	hit	613.2812
396.3359375	n/a	101462	C	nontarget	n/a	n/a
397.8945312	n/a	101861	A	nontarget	n/a	n/a
399.4570312	n/a	102261	B	nontarget	n/a	n/a
401.015625	n/a	102660	D	nontarget	n/a	n/a
402.5742188	n/a	103059	C	nontarget	n/a	n/a
404.1367188	n/a	103459	A	nontarget	n/a	n/a
405.6953125	n/a	103858	C	nontarget	n/a	n/a
407.2539062	n/a	104257	A	nontarget	n/a	n/a
408.8164062	n/a	104657	A	target	hit	628.9062
409.4453125	n/a	104818	rt	n/a	hit	628.9062
410.375	n/a	105056	C	nontarget	n/a	n/a
411.9335938	n/a	105455	A	nontarget	n/a	n/a
413.4960938	n/a	105855	D	nontarget	n/a	n/a
415.0546875	n/a	106254	B	nontarget	n/a	n/a
416.6132812	n/a	106653	B	target	hit	632.8125
417.2460938	n/a	106815	rt	n/a	hit	632.8125
418.1757812	n/a	107053	C	nontarget	n/a	n/a
419.734375	n/a	107452	C	target	hit	425.7812
420.1601562	n/a	107561	rt	n/a	hit	425.7812
421.2929688	n/a	107851	D	nontarget	n/a	n/a
422.8554688	n/a	108251	B	nontarget	n/a	n/a
424.4140625	n/a	108650	C	nontarget	n/a	n/a
425.9882812	n/a	109053	D	nontarget	n/a	n/a
427.5507812	n/a	109453	C	nontarget	n/a	n/a
429.1210938	n/a	109855	C	target	hit	660.1562
429.78125	n/a	110024	rt	n/a	hit	660.1562
430.6953125	n/a	110258	B	nontarget	n/a	n/a
432.2695312	n/a	110661	B	target	hit	878.9062
433.1484375	n/a	110886	rt	n/a	hit	878.9062
433.8398438	n/a	111063	D	nontarget	n/a	n/a
435.4140625	n/a	111466	B	nontarget	n/a	n/a
436.9726562	n/a	111865	C	nontarget	n/a	n/a
438.5351562	n/a	112265	B	nontarget	n/a	n/a
440.09375	n/a	112664	D	nontarget	false_alarm	703.125
440.796875	n/a	112844	rt	n/a	false_alarm	703.125
441.6523438	n/a	113063	C	nontarget	n/a	n/a
443.2148438	n/a	113463	D	nontarget	n/a	n/a
444.7734375	n/a	113862	D	target	hit	679.6875
445.453125	n/a	114036	rt	n/a	hit	679.6875
446.3359375	n/a	114262	C	nontarget	n/a	n/a
447.8945312	n/a	114661	C	target	hit	640.625
448.5351562	n/a	114825	rt	n/a	hit	640.625
449.453125	n/a	115060	B	nontarget	n/a	n/a
451.015625	n/a	115460	B	target	hit	656.25
451.671875	n/a	115628	rt	n/a	hit	656.25
452.5742188	n/a	115859	A	nontarget	n/a	n/a
454.1328125	n/a	116258	A	target	hit	527.3438
454.6601562	n/a	116393	rt	n/a	hit	527.3438
455.6953125	n/a	116658	D	nontarget	n/a	n/a
457.2539062	n/a	117057	A	nontarget	n/a	n/a
458.8164062	n/a	117457	B	nontarget	n/a	n/a
460.375	n/a	117856	B	target	hit	640.625
461.015625	n/a	118020	rt	n/a	hit	640.625
461.9335938	n/a	118255	D	nontarget	n/a	n/a
463.4921875	n/a	118654	A	nontarget	n/a	n/a
465.0546875	n/a	119054	A	target	hit	566.4062
465.6210938	n/a	119199	rt	n/a	hit	566.4062
466.6132812	n/a	119453	D	nontarget	n/a	n/a
468.171875	n/a	119852	C	nontarget	n/a	n/a
469.734375	n/a	120252	D	nontarget	n/a	n/a
471.2929688	n/a	120651	C	nontarget	n/a	n/a
472.8554688	n/a	121051	D	nontarget	n/a	n/a
474.4140625	n/a	121450	B	nontarget	n/a	n/a
475.9726562	n/a	121849	B	target	miss	n/a
477.5351562	n/a	122249	A	nontarget	miss	n/a
479.09375	n/a	122648	C	nontarget	n/a	n/a
480.6523438	n/a	123047	D	nontarget	n/a	n/a
482.2148438	n/a	123447	B	nontarget	n/a	n/a
483.7734375	n/a	123846	A	nontarget	n/a	n/a
485.3320312	n/a	124245	C	nontarget	n/a	n/a
486.8945312	n/a	124645	D	nontarget	n/a	n/a
488.453125	n/a	125044	A	nontarget	n/a	n/a
490.0117188	n/a	125443	C	nontarget	n/a	n/a
491.5742188	n/a	125843	B	nontarget	n/a	n/a
493.1328125	n/a	126242	A	nontarget	n/a	n/a
494.6953125	n/a	126642	A	target	hit	464.8438
495.1601562	n/a	126761	rt	n/a	hit	464.8438
496.2539062	n/a	127041	C	nontarget	n/a	n/a
