onset	duration	sample	value	response_type	congruence	response_time	response_out_of_range	largeletter	smallletter
5.3671875	n/a	1374	largeHSmallH	correct	congruent	0.65234	no	H	H
6.01953125	n/a	1541	responseLargeH	correct	n/a	0.65234	no	n/a	n/a
7.09765625	n/a	1817	largeTSmallH	correct	incongruent	0.80859	no	T	H
7.90625	n/a	2024	responseLargeT	correct	n/a	0.80859	no	n/a	n/a
8.9765625	n/a	2298	largeTSmallT	correct	congruent	0.66406	no	T	T
9.640625	n/a	2468	responseLargeT	correct	n/a	0.66406	no	n/a	n/a
10.7109375	n/a	2742	largeHSmallH	correct	congruent	0.53516	no	H	H
11.24609375	n/a	2879	responseLargeH	correct	n/a	0.53516	no	n/a	n/a
12.32421875	n/a	3155	largeHSmallH	correct	congruent	0.62109	no	H	H
12.9453125	n/a	3314	responseLargeH	correct	n/a	0.62109	no	n/a	n/a
14.015625	n/a	3588	largeHSmallH	correct	congruent	0.55859	no	H	H
14.57421875	n/a	3731	responseLargeH	correct	n/a	0.55859	no	n/a	n/a
15.64453125	n/a	4005	largeHSmallH	correct	congruent	0.55469	no	H	H
16.19921875	n/a	4147	responseLargeH	correct	n/a	0.55469	no	n/a	n/a
17.2578125	n/a	4418	largeTSmallH	correct	incongruent	0.65234	no	T	H
17.91015625	n/a	4585	responseLargeT	correct	n/a	0.65234	no	n/a	n/a
18.9765625	n/a	4858	largeHSmallT	correct	incongruent	0.8125	no	H	T
19.7890625	n/a	5066	responseLargeH	correct	n/a	0.8125	no	n/a	n/a
20.85546875	n/a	5339	largeTSmallT	correct	congruent	0.64062	no	T	T
21.49609375	n/a	5503	responseLargeT	correct	n/a	0.64062	no	n/a	n/a
22.5625	n/a	5776	largeHSmallT	correct	incongruent	0.66406	no	H	T
23.2265625	n/a	5946	responseLargeH	correct	n/a	0.66406	no	n/a	n/a
24.296875	n/a	6220	largeHSmallH	correct	congruent	0.62891	no	H	H
24.92578125	n/a	6381	responseLargeH	correct	n/a	0.62891	no	n/a	n/a
25.9765625	n/a	6650	largeHSmallT	correct	incongruent	0.70703	no	H	T
26.68359375	n/a	6831	responseLargeH	correct	n/a	0.70703	no	n/a	n/a
27.75	n/a	7104	largeHSmallT	correct	incongruent	0.48438	no	H	T
28.234375	n/a	7228	responseLargeH	correct	n/a	0.48438	no	n/a	n/a
29.30859375	n/a	7503	largeHSmallH	correct	congruent	0.49219	no	H	H
29.80078125	n/a	7629	responseLargeH	correct	n/a	0.49219	no	n/a	n/a
30.87109375	n/a	7903	largeHSmallT	correct	incongruent	0.55078	no	H	T
31.421875	n/a	8044	responseLargeH	correct	n/a	0.55078	no	n/a	n/a
32.484375	n/a	8316	largeTSmallT	correct	congruent	0.48438	no	T	T
32.96875	n/a	8440	responseLargeT	correct	n/a	0.48438	no	n/a	n/a
34.03125	n/a	8712	largeTSmallH	correct	incongruent	0.56641	no	T	H
34.59765625	n/a	8857	responseLargeT	correct	n/a	0.56641	no	n/a	n/a
35.66796875	n/a	9131	largeHSmallH	correct	congruent	0.61328	no	H	H
36.28125	n/a	9288	responseLargeH	correct	n/a	0.61328	no	n/a	n/a
37.3515625	n/a	9562	largeTSmallT	correct	congruent	0.58203	no	T	T
37.93359375	n/a	9711	responseLargeT	correct	n/a	0.58203	no	n/a	n/a
38.98828125	n/a	9981	largeTSmallT	correct	congruent	0.57812	no	T	T
39.56640625	n/a	10129	responseLargeT	correct	n/a	0.57812	no	n/a	n/a
40.62890625	n/a	10401	largeHSmallT	correct	incongruent	0.85938	no	H	T
41.48828125	n/a	10621	responseLargeH	correct	n/a	0.85938	no	n/a	n/a
42.55078125	n/a	10893	largeTSmallH	correct	incongruent	0.66797	no	T	H
43.21875	n/a	11064	responseLargeT	correct	n/a	0.66797	no	n/a	n/a
44.28125	n/a	11336	largeHSmallH	correct	congruent	0.54688	no	H	H
44.828125	n/a	11476	responseLargeH	correct	n/a	0.54688	no	n/a	n/a
45.8828125	n/a	11746	largeTSmallH	correct	incongruent	0.52344	no	T	H
46.40625	n/a	11880	responseLargeT	correct	n/a	0.52344	no	n/a	n/a
47.46875	n/a	12152	largeHSmallT	correct	incongruent	0.49609	no	H	T
47.96484375	n/a	12279	responseLargeH	correct	n/a	0.49609	no	n/a	n/a
49.04296875	n/a	12555	largeHSmallT	correct	incongruent	0.4375	no	H	T
49.48046875	n/a	12667	responseLargeH	correct	n/a	0.4375	no	n/a	n/a
50.55078125	n/a	12941	largeTSmallH	correct	incongruent	0.52734	no	T	H
51.078125	n/a	13076	responseLargeT	correct	n/a	0.52734	no	n/a	n/a
52.1484375	n/a	13350	largeHSmallT	correct	incongruent	0.46094	no	H	T
52.609375	n/a	13468	responseLargeH	correct	n/a	0.46094	no	n/a	n/a
53.66796875	n/a	13739	largeHSmallT	correct	incongruent	0.52734	no	H	T
54.1953125	n/a	13874	responseLargeH	correct	n/a	0.52734	no	n/a	n/a
55.26953125	n/a	14149	largeTSmallT	correct	congruent	0.47656	no	T	T
55.74609375	n/a	14271	responseLargeT	correct	n/a	0.47656	no	n/a	n/a
56.81640625	n/a	14545	largeTSmallH	correct	incongruent	0.57031	no	T	H
57.38671875	n/a	14691	responseLargeT	correct	n/a	0.57031	no	n/a	n/a
58.44140625	n/a	14961	largeTSmallH	correct	incongruent	0.51562	no	T	H
58.95703125	n/a	15093	responseLargeT	correct	n/a	0.51562	no	n/a	n/a
60.02734375	n/a	15367	largeTSmallH	correct	incongruent	0.65625	no	T	H
60.68359375	n/a	15535	responseLargeT	correct	n/a	0.65625	no	n/a	n/a
61.75	n/a	15808	largeTSmallT	correct	congruent	0.51562	no	T	T
62.265625	n/a	15940	responseLargeT	correct	n/a	0.51562	no	n/a	n/a
63.3359375	n/a	16214	largeHSmallH	correct	congruent	0.52344	no	H	H
63.859375	n/a	16348	responseLargeH	correct	n/a	0.52344	no	n/a	n/a
64.921875	n/a	16620	largeHSmallT	correct	incongruent	0.55078	no	H	T
65.47265625	n/a	16761	responseLargeH	correct	n/a	0.55078	no	n/a	n/a
66.546875	n/a	17036	largeHSmallT	correct	incongruent	0.50781	no	H	T
67.0546875	n/a	17166	responseLargeH	correct	n/a	0.50781	no	n/a	n/a
68.12109375	n/a	17439	largeHSmallH	correct	congruent	0.55078	no	H	H
68.671875	n/a	17580	responseLargeH	correct	n/a	0.55078	no	n/a	n/a
69.734375	n/a	17852	largeHSmallH	correct	congruent	0.49609	no	H	H
70.23046875	n/a	17979	responseLargeH	correct	n/a	0.49609	no	n/a	n/a
71.296875	n/a	18252	largeTSmallH	correct	incongruent	0.42188	no	T	H
71.71875	n/a	18360	responseLargeT	correct	n/a	0.42188	no	n/a	n/a
72.7890625	n/a	18634	largeHSmallT	correct	incongruent	0.46094	no	H	T
73.25	n/a	18752	responseLargeH	correct	n/a	0.46094	no	n/a	n/a
74.30859375	n/a	19023	largeTSmallH	correct	incongruent	0.55859	no	T	H
74.8671875	n/a	19166	responseLargeT	correct	n/a	0.55859	no	n/a	n/a
75.93359375	n/a	19439	largeTSmallH	correct	incongruent	0.55078	no	T	H
76.484375	n/a	19580	responseLargeT	correct	n/a	0.55078	no	n/a	n/a
77.5625	n/a	19856	largeTSmallT	correct	congruent	0.46875	no	T	T
78.03125	n/a	19976	responseLargeT	correct	n/a	0.46875	no	n/a	n/a
79.109375	n/a	20252	largeHSmallT	correct	incongruent	0.44531	no	H	T
79.5546875	n/a	20366	responseLargeH	correct	n/a	0.44531	no	n/a	n/a
80.61328125	n/a	20637	largeTSmallT	correct	congruent	0.55078	no	T	T
81.1640625	n/a	20778	responseLargeT	correct	n/a	0.55078	no	n/a	n/a
82.2421875	n/a	21054	largeTSmallT	correct	congruent	0.42969	no	T	T
82.671875	n/a	21164	responseLargeT	correct	n/a	0.42969	no	n/a	n/a
83.734375	n/a	21436	largeHSmallT	correct	incongruent	0.54688	no	H	T
84.28125	n/a	21576	responseLargeH	correct	n/a	0.54688	no	n/a	n/a
85.3359375	n/a	21846	largeTSmallH	correct	incongruent	0.44141	no	T	H
85.77734375	n/a	21959	responseLargeT	correct	n/a	0.44141	no	n/a	n/a
86.83984375	n/a	22231	largeHSmallH	correct	congruent	0.52344	no	H	H
87.36328125	n/a	22365	responseLargeH	correct	n/a	0.52344	no	n/a	n/a
88.4296875	n/a	22638	largeHSmallH	correct	congruent	0.48828	no	H	H
88.91796875	n/a	22763	responseLargeH	correct	n/a	0.48828	no	n/a	n/a
89.98828125	n/a	23037	largeHSmallT	correct	incongruent	0.54688	no	H	T
90.53515625	n/a	23177	responseLargeH	correct	n/a	0.54688	no	n/a	n/a
91.6015625	n/a	23450	largeTSmallT	correct	congruent	0.52344	no	T	T
92.125	n/a	23584	responseLargeT	correct	n/a	0.52344	no	n/a	n/a
93.1875	n/a	23856	largeTSmallH	error	incongruent	0.45703	no	T	H
93.64453125	n/a	23973	responseLargeH	error	n/a	0.45703	no	n/a	n/a
94.72265625	n/a	24249	largeTSmallT	correct	congruent	0.625	no	T	T
95.34765625	n/a	24409	responseLargeT	correct	n/a	0.625	no	n/a	n/a
96.4140625	n/a	24682	largeTSmallT	correct	congruent	0.39062	no	T	T
96.8046875	n/a	24782	responseLargeT	correct	n/a	0.39062	no	n/a	n/a
97.8671875	n/a	25054	largeHSmallH	correct	congruent	0.60547	no	H	H
98.47265625	n/a	25209	responseLargeH	correct	n/a	0.60547	no	n/a	n/a
99.53515625	n/a	25481	largeTSmallT	correct	congruent	0.52344	no	T	T
100.0585938	n/a	25615	responseLargeT	correct	n/a	0.52344	no	n/a	n/a
101.1367188	n/a	25891	largeHSmallH	correct	congruent	0.47656	no	H	H
101.6132812	n/a	26013	responseLargeH	correct	n/a	0.47656	no	n/a	n/a
102.6679688	n/a	26283	largeTSmallT	correct	congruent	0.43359	no	T	T
103.1015625	n/a	26394	responseLargeT	correct	n/a	0.43359	no	n/a	n/a
104.1757812	n/a	26669	largeTSmallT	correct	congruent	0.50781	no	T	T
104.6835938	n/a	26799	responseLargeT	correct	n/a	0.50781	no	n/a	n/a
105.7460938	n/a	27071	largeHSmallH	correct	congruent	0.43359	no	H	H
106.1796875	n/a	27182	responseLargeH	correct	n/a	0.43359	no	n/a	n/a
107.2421875	n/a	27454	largeTSmallH	correct	incongruent	0.59766	no	T	H
107.8398438	n/a	27607	responseLargeT	correct	n/a	0.59766	no	n/a	n/a
108.90625	n/a	27880	largeTSmallH	correct	incongruent	0.48438	no	T	H
109.390625	n/a	28004	responseLargeT	correct	n/a	0.48438	no	n/a	n/a
110.453125	n/a	28276	largeTSmallH	correct	incongruent	0.57812	no	T	H
111.03125	n/a	28424	responseLargeT	correct	n/a	0.57812	no	n/a	n/a
112.09375	n/a	28696	largeHSmallT	correct	incongruent	0.48828	no	H	T
112.5820312	n/a	28821	responseLargeH	correct	n/a	0.48828	no	n/a	n/a
113.640625	n/a	29092	largeTSmallT	correct	congruent	0.50391	no	T	T
114.1445312	n/a	29221	responseLargeT	correct	n/a	0.50391	no	n/a	n/a
115.2148438	n/a	29495	largeHSmallT	correct	incongruent	0.49219	no	H	T
115.7070312	n/a	29621	responseLargeH	correct	n/a	0.49219	no	n/a	n/a
116.7734375	n/a	29894	largeTSmallT	correct	congruent	0.51562	no	T	T
117.2890625	n/a	30026	responseLargeT	correct	n/a	0.51562	no	n/a	n/a
118.3476562	n/a	30297	largeHSmallT	correct	incongruent	0.47266	no	H	T
118.8203125	n/a	30418	responseLargeH	correct	n/a	0.47266	no	n/a	n/a
119.8828125	n/a	30690	largeTSmallT	correct	congruent	0.48828	no	T	T
120.3710938	n/a	30815	responseLargeT	correct	n/a	0.48828	no	n/a	n/a
121.4414062	n/a	31089	largeTSmallH	correct	incongruent	0.58203	no	T	H
122.0234375	n/a	31238	responseLargeT	correct	n/a	0.58203	no	n/a	n/a
123.09375	n/a	31512	largeTSmallH	correct	incongruent	0.49219	no	T	H
123.5859375	n/a	31638	responseLargeT	correct	n/a	0.49219	no	n/a	n/a
124.65625	n/a	31912	largeTSmallH	error	incongruent	0.4375	no	T	H
125.09375	n/a	32024	responseLargeH	error	n/a	0.4375	no	n/a	n/a
126.1601562	n/a	32297	largeHSmallH	correct	congruent	0.44922	no	H	H
126.609375	n/a	32412	responseLargeH	correct	n/a	0.44922	no	n/a	n/a
127.6796875	n/a	32686	largeHSmallH	correct	congruent	0.49219	no	H	H
128.171875	n/a	32812	responseLargeH	correct	n/a	0.49219	no	n/a	n/a
129.2421875	n/a	33086	largeHSmallH	correct	congruent	0.47656	no	H	H
129.71875	n/a	33208	responseLargeH	correct	n/a	0.47656	no	n/a	n/a
130.7890625	n/a	33482	largeHSmallT	correct	incongruent	0.49609	no	H	T
131.2851562	n/a	33609	responseLargeH	correct	n/a	0.49609	no	n/a	n/a
132.3476562	n/a	33881	largeTSmallT	correct	congruent	0.38281	no	T	T
132.7304688	n/a	33979	responseLargeT	correct	n/a	0.38281	no	n/a	n/a
140.28125	n/a	35912	largeTSmallT	correct	congruent	0.63281	no	T	T
140.9140625	n/a	36074	responseSmallT	correct	n/a	0.63281	no	n/a	n/a
141.9882812	n/a	36349	largeTSmallT	correct	congruent	0.55469	no	T	T
142.5429688	n/a	36491	responseSmallT	correct	n/a	0.55469	no	n/a	n/a
143.6132812	n/a	36765	largeTSmallT	correct	congruent	0.59375	no	T	T
144.2070312	n/a	36917	responseSmallT	correct	n/a	0.59375	no	n/a	n/a
145.28125	n/a	37192	largeTSmallT	correct	congruent	0.55078	no	T	T
145.8320312	n/a	37333	responseSmallT	correct	n/a	0.55078	no	n/a	n/a
146.90625	n/a	37608	largeHSmallT	correct	incongruent	0.6875	no	H	T
147.59375	n/a	37784	responseSmallT	correct	n/a	0.6875	no	n/a	n/a
148.6679688	n/a	38059	largeHSmallH	correct	congruent	0.61328	no	H	H
149.28125	n/a	38216	responseSmallH	correct	n/a	0.61328	no	n/a	n/a
150.3476562	n/a	38489	largeHSmallH	correct	congruent	0.54297	no	H	H
150.890625	n/a	38628	responseSmallH	correct	n/a	0.54297	no	n/a	n/a
151.9492188	n/a	38899	largeHSmallT	correct	incongruent	0.58594	no	H	T
152.5351562	n/a	39049	responseSmallT	correct	n/a	0.58594	no	n/a	n/a
153.6132812	n/a	39325	largeHSmallT	correct	incongruent	0.67188	no	H	T
154.2851562	n/a	39497	responseSmallT	correct	n/a	0.67188	no	n/a	n/a
155.359375	n/a	39772	largeHSmallT	correct	incongruent	0.54688	no	H	T
155.90625	n/a	39912	responseSmallT	correct	n/a	0.54688	no	n/a	n/a
156.9726562	n/a	40185	largeHSmallT	correct	incongruent	0.57422	no	H	T
157.546875	n/a	40332	responseSmallT	correct	n/a	0.57422	no	n/a	n/a
158.6132812	n/a	40605	largeHSmallH	correct	congruent	0.51953	no	H	H
159.1328125	n/a	40738	responseSmallH	correct	n/a	0.51953	no	n/a	n/a
160.1875	n/a	41008	largeTSmallH	correct	incongruent	0.54688	no	T	H
160.734375	n/a	41148	responseSmallH	correct	n/a	0.54688	no	n/a	n/a
161.8007812	n/a	41421	largeHSmallT	correct	incongruent	0.60156	no	H	T
162.4023438	n/a	41575	responseSmallT	correct	n/a	0.60156	no	n/a	n/a
163.4648438	n/a	41847	largeHSmallH	correct	congruent	0.54688	no	H	H
164.0117188	n/a	41987	responseSmallH	correct	n/a	0.54688	no	n/a	n/a
165.0820312	n/a	42261	largeTSmallT	correct	congruent	0.70312	no	T	T
165.7851562	n/a	42441	responseSmallT	correct	n/a	0.70312	no	n/a	n/a
166.8554688	n/a	42715	largeHSmallH	correct	congruent	0.58594	no	H	H
167.4414062	n/a	42865	responseSmallH	correct	n/a	0.58594	no	n/a	n/a
168.5078125	n/a	43138	largeTSmallT	correct	congruent	0.62891	no	T	T
169.1367188	n/a	43299	responseSmallT	correct	n/a	0.62891	no	n/a	n/a
170.1992188	n/a	43571	largeTSmallH	correct	incongruent	0.49609	no	T	H
170.6953125	n/a	43698	responseSmallH	correct	n/a	0.49609	no	n/a	n/a
171.7617188	n/a	43971	largeHSmallH	correct	congruent	0.51953	no	H	H
172.28125	n/a	44104	responseSmallH	correct	n/a	0.51953	no	n/a	n/a
173.3476562	n/a	44377	largeHSmallH	correct	congruent	0.57422	no	H	H
173.921875	n/a	44524	responseSmallH	correct	n/a	0.57422	no	n/a	n/a
174.9882812	n/a	44797	largeTSmallH	correct	incongruent	0.64844	no	T	H
175.6367188	n/a	44963	responseSmallH	correct	n/a	0.64844	no	n/a	n/a
176.6914062	n/a	45233	largeTSmallH	correct	incongruent	0.5625	no	T	H
177.2539062	n/a	45377	responseSmallH	correct	n/a	0.5625	no	n/a	n/a
178.3203125	n/a	45650	largeTSmallH	correct	incongruent	0.50391	no	T	H
178.8242188	n/a	45779	responseSmallH	correct	n/a	0.50391	no	n/a	n/a
179.8945312	n/a	46053	largeHSmallT	correct	incongruent	0.61328	no	H	T
180.5078125	n/a	46210	responseSmallT	correct	n/a	0.61328	no	n/a	n/a
181.5742188	n/a	46483	largeHSmallT	correct	incongruent	0.50391	no	H	T
182.078125	n/a	46612	responseSmallT	correct	n/a	0.50391	no	n/a	n/a
183.1328125	n/a	46882	largeHSmallT	correct	incongruent	0.53906	no	H	T
183.671875	n/a	47020	responseSmallT	correct	n/a	0.53906	no	n/a	n/a
184.7460938	n/a	47295	largeTSmallT	correct	congruent	0.56641	no	T	T
185.3125	n/a	47440	responseSmallT	correct	n/a	0.56641	no	n/a	n/a
186.3867188	n/a	47715	largeHSmallT	correct	incongruent	0.53906	no	H	T
186.9257812	n/a	47853	responseSmallT	correct	n/a	0.53906	no	n/a	n/a
187.984375	n/a	48124	largeTSmallH	correct	incongruent	0.52734	no	T	H
188.5117188	n/a	48259	responseSmallH	correct	n/a	0.52734	no	n/a	n/a
189.5859375	n/a	48534	largeTSmallH	correct	incongruent	0.50781	no	T	H
190.09375	n/a	48664	responseSmallH	correct	n/a	0.50781	no	n/a	n/a
191.1601562	n/a	48937	largeTSmallH	correct	incongruent	0.52344	no	T	H
191.6835938	n/a	49071	responseSmallH	correct	n/a	0.52344	no	n/a	n/a
192.7460938	n/a	49343	largeTSmallT	correct	congruent	0.53516	no	T	T
193.28125	n/a	49480	responseSmallT	correct	n/a	0.53516	no	n/a	n/a
194.359375	n/a	49756	largeTSmallT	correct	congruent	0.49219	no	T	T
194.8515625	n/a	49882	responseSmallT	correct	n/a	0.49219	no	n/a	n/a
195.9179688	n/a	50155	largeHSmallH	correct	congruent	0.48047	no	H	H
196.3984375	n/a	50278	responseSmallH	correct	n/a	0.48047	no	n/a	n/a
197.453125	n/a	50548	largeHSmallH	correct	congruent	0.49609	no	H	H
197.9492188	n/a	50675	responseSmallH	correct	n/a	0.49609	no	n/a	n/a
199.0273438	n/a	50951	largeTSmallT	correct	congruent	0.53516	no	T	T
199.5625	n/a	51088	responseSmallT	correct	n/a	0.53516	no	n/a	n/a
200.625	n/a	51360	largeHSmallH	correct	congruent	0.50391	no	H	H
201.1289062	n/a	51489	responseSmallH	correct	n/a	0.50391	no	n/a	n/a
202.1992188	n/a	51763	largeTSmallH	correct	incongruent	0.50781	no	T	H
202.7070312	n/a	51893	responseSmallH	correct	n/a	0.50781	no	n/a	n/a
203.7734375	n/a	52166	largeTSmallT	correct	congruent	0.57812	no	T	T
204.3515625	n/a	52314	responseSmallT	correct	n/a	0.57812	no	n/a	n/a
205.4140625	n/a	52586	largeTSmallH	correct	incongruent	0.53125	no	T	H
205.9453125	n/a	52722	responseSmallH	correct	n/a	0.53125	no	n/a	n/a
207.0117188	n/a	52995	largeTSmallH	correct	incongruent	0.49219	no	T	H
207.5039062	n/a	53121	responseSmallH	correct	n/a	0.49219	no	n/a	n/a
208.5585938	n/a	53391	largeTSmallH	correct	incongruent	0.50391	no	T	H
209.0625	n/a	53520	responseSmallH	correct	n/a	0.50391	no	n/a	n/a
210.1328125	n/a	53794	largeTSmallH	correct	incongruent	0.51562	no	T	H
210.6484375	n/a	53926	responseSmallH	correct	n/a	0.51562	no	n/a	n/a
211.71875	n/a	54200	largeHSmallT	correct	incongruent	0.51172	no	H	T
212.2304688	n/a	54331	responseSmallT	correct	n/a	0.51172	no	n/a	n/a
213.2929688	n/a	54603	largeHSmallT	correct	incongruent	0.52344	no	H	T
213.8164062	n/a	54737	responseSmallT	correct	n/a	0.52344	no	n/a	n/a
214.8789062	n/a	55009	largeHSmallH	correct	congruent	0.48828	no	H	H
215.3671875	n/a	55134	responseSmallH	correct	n/a	0.48828	no	n/a	n/a
216.4257812	n/a	55405	largeTSmallT	correct	congruent	0.5625	no	T	T
216.9882812	n/a	55549	responseSmallT	correct	n/a	0.5625	no	n/a	n/a
218.0507812	n/a	55821	largeTSmallT	correct	congruent	0.5	no	T	T
218.5507812	n/a	55949	responseSmallT	correct	n/a	0.5	no	n/a	n/a
219.6132812	n/a	56221	largeHSmallH	correct	congruent	0.50781	no	H	H
220.1210938	n/a	56351	responseSmallH	correct	n/a	0.50781	no	n/a	n/a
221.1835938	n/a	56623	largeHSmallT	correct	incongruent	0.60156	no	H	T
221.7851562	n/a	56777	responseSmallT	correct	n/a	0.60156	no	n/a	n/a
222.8515625	n/a	57050	largeTSmallT	correct	congruent	0.53125	no	T	T
223.3828125	n/a	57186	responseSmallT	correct	n/a	0.53125	no	n/a	n/a
224.453125	n/a	57460	largeTSmallH	correct	incongruent	0.53906	no	T	H
224.9921875	n/a	57598	responseSmallH	correct	n/a	0.53906	no	n/a	n/a
226.0507812	n/a	57869	largeTSmallH	correct	incongruent	0.51562	no	T	H
226.5664062	n/a	58001	responseSmallH	correct	n/a	0.51562	no	n/a	n/a
227.625	n/a	58272	largeHSmallH	correct	congruent	0.52344	no	H	H
228.1484375	n/a	58406	responseSmallH	correct	n/a	0.52344	no	n/a	n/a
229.2265625	n/a	58682	largeHSmallH	correct	congruent	0.55469	no	H	H
229.78125	n/a	58824	responseSmallH	correct	n/a	0.55469	no	n/a	n/a
230.8398438	n/a	59095	largeTSmallH	correct	incongruent	0.60156	no	T	H
231.4414062	n/a	59249	responseSmallH	correct	n/a	0.60156	no	n/a	n/a
232.5195312	n/a	59525	largeTSmallT	correct	congruent	0.60938	no	T	T
233.1289062	n/a	59681	responseSmallT	correct	n/a	0.60938	no	n/a	n/a
234.1992188	n/a	59955	largeHSmallT	correct	incongruent	0.60547	no	H	T
234.8046875	n/a	60110	responseSmallT	correct	n/a	0.60547	no	n/a	n/a
235.8671875	n/a	60382	largeHSmallH	correct	congruent	0.51953	no	H	H
236.3867188	n/a	60515	responseSmallH	correct	n/a	0.51953	no	n/a	n/a
237.4648438	n/a	60791	largeHSmallT	correct	incongruent	0.58984	no	H	T
238.0546875	n/a	60942	responseSmallT	correct	n/a	0.58984	no	n/a	n/a
239.1328125	n/a	61218	largeHSmallH	correct	congruent	0.50391	no	H	H
239.6367188	n/a	61347	responseSmallH	correct	n/a	0.50391	no	n/a	n/a
240.7070312	n/a	61621	largeHSmallT	correct	incongruent	0.63281	no	H	T
241.3398438	n/a	61783	responseSmallT	correct	n/a	0.63281	no	n/a	n/a
242.3984375	n/a	62054	largeTSmallT	correct	congruent	0.54297	no	T	T
242.9414062	n/a	62193	responseSmallT	correct	n/a	0.54297	no	n/a	n/a
244.0117188	n/a	62467	largeHSmallT	correct	incongruent	0.64453	no	H	T
244.65625	n/a	62632	responseSmallT	correct	n/a	0.64453	no	n/a	n/a
245.71875	n/a	62904	largeHSmallT	correct	incongruent	0.55078	no	H	T
246.2695312	n/a	63045	responseSmallT	correct	n/a	0.55078	no	n/a	n/a
247.3320312	n/a	63317	largeTSmallT	correct	congruent	0.57812	no	T	T
247.9101562	n/a	63465	responseSmallT	correct	n/a	0.57812	no	n/a	n/a
248.9726562	n/a	63737	largeHSmallH	correct	congruent	0.46875	no	H	H
249.4414062	n/a	63857	responseSmallH	correct	n/a	0.46875	no	n/a	n/a
250.5195312	n/a	64133	largeTSmallT	correct	congruent	0.55469	no	T	T
251.0742188	n/a	64275	responseSmallT	correct	n/a	0.55469	no	n/a	n/a
252.1445312	n/a	64549	largeTSmallH	correct	incongruent	0.53516	no	T	H
252.6796875	n/a	64686	responseSmallH	correct	n/a	0.53516	no	n/a	n/a
253.7460938	n/a	64959	largeHSmallT	correct	incongruent	0.52344	no	H	T
254.2695312	n/a	65093	responseSmallT	correct	n/a	0.52344	no	n/a	n/a
255.3320312	n/a	65365	largeHSmallT	correct	incongruent	0.625	no	H	T
255.9570312	n/a	65525	responseSmallT	correct	n/a	0.625	no	n/a	n/a
257.0234375	n/a	65798	largeHSmallH	correct	congruent	0.4375	no	H	H
257.4609375	n/a	65910	responseSmallH	correct	n/a	0.4375	no	n/a	n/a
258.53125	n/a	66184	largeTSmallH	correct	incongruent	0.52734	no	T	H
259.0585938	n/a	66319	responseSmallH	correct	n/a	0.52734	no	n/a	n/a
260.1328125	n/a	66594	largeTSmallH	correct	incongruent	0.50391	no	T	H
260.6367188	n/a	66723	responseSmallH	correct	n/a	0.50391	no	n/a	n/a
261.703125	n/a	66996	largeHSmallH	correct	congruent	0.51953	no	H	H
262.2226562	n/a	67129	responseSmallH	correct	n/a	0.51953	no	n/a	n/a
263.2929688	n/a	67403	largeTSmallT	correct	congruent	0.52734	no	T	T
263.8203125	n/a	67538	responseSmallT	correct	n/a	0.52734	no	n/a	n/a
264.8789062	n/a	67809	largeTSmallT	correct	congruent	0.47266	no	T	T
265.3515625	n/a	67930	responseSmallT	correct	n/a	0.47266	no	n/a	n/a
266.4257812	n/a	68205	largeHSmallH	correct	congruent	0.49609	no	H	H
266.921875	n/a	68332	responseSmallH	correct	n/a	0.49609	no	n/a	n/a
267.984375	n/a	68604	largeTSmallH	correct	incongruent	0.76953	no	T	H
268.7539062	n/a	68801	responseSmallH	correct	n/a	0.76953	no	n/a	n/a
274.0117188	n/a	70147	largeTSmallT	correct	congruent	0.55859	no	T	T
274.5703125	n/a	70290	responseLargeT	correct	n/a	0.55859	no	n/a	n/a
275.6367188	n/a	70563	largeTSmallT	correct	congruent	0.53906	no	T	T
276.1757812	n/a	70701	responseLargeT	correct	n/a	0.53906	no	n/a	n/a
277.2382812	n/a	70973	largeHSmallH	correct	congruent	0.42578	no	H	H
277.6640625	n/a	71082	responseLargeH	correct	n/a	0.42578	no	n/a	n/a
278.7304688	n/a	71355	largeHSmallH	correct	congruent	0.44531	no	H	H
279.1757812	n/a	71469	responseLargeH	correct	n/a	0.44531	no	n/a	n/a
280.25	n/a	71744	largeTSmallH	correct	incongruent	0.55859	no	T	H
280.8085938	n/a	71887	responseLargeT	correct	n/a	0.55859	no	n/a	n/a
281.8632812	n/a	72157	largeTSmallT	correct	congruent	0.41406	no	T	T
282.2773438	n/a	72263	responseLargeT	correct	n/a	0.41406	no	n/a	n/a
283.359375	n/a	72540	largeHSmallH	correct	congruent	0.38672	no	H	H
283.7460938	n/a	72639	responseLargeH	correct	n/a	0.38672	no	n/a	n/a
284.8242188	n/a	72915	largeHSmallT	correct	incongruent	0.57422	no	H	T
285.3984375	n/a	73062	responseLargeH	correct	n/a	0.57422	no	n/a	n/a
286.4648438	n/a	73335	largeTSmallT	correct	congruent	0.43359	no	T	T
286.8984375	n/a	73446	responseLargeT	correct	n/a	0.43359	no	n/a	n/a
287.96875	n/a	73720	largeTSmallH	correct	incongruent	0.74219	no	T	H
288.7109375	n/a	73910	responseLargeT	correct	n/a	0.74219	no	n/a	n/a
289.7851562	n/a	74185	largeHSmallT	correct	incongruent	0.55469	no	H	T
290.3398438	n/a	74327	responseLargeH	correct	n/a	0.55469	no	n/a	n/a
291.4101562	n/a	74601	largeTSmallT	correct	congruent	0.64844	no	T	T
292.0585938	n/a	74767	responseLargeT	correct	n/a	0.64844	no	n/a	n/a
293.1171875	n/a	75038	largeTSmallT	correct	congruent	0.48438	no	T	T
293.6015625	n/a	75162	responseLargeT	correct	n/a	0.48438	no	n/a	n/a
294.6640625	n/a	75434	largeTSmallT	correct	congruent	0.44922	no	T	T
295.1132812	n/a	75549	responseLargeT	correct	n/a	0.44922	no	n/a	n/a
296.171875	n/a	75820	largeHSmallT	correct	incongruent	0.43359	no	H	T
296.6054688	n/a	75931	responseLargeH	correct	n/a	0.43359	no	n/a	n/a
297.6757812	n/a	76205	largeTSmallH	error	incongruent	0.54688	no	T	H
298.2226562	n/a	76345	responseLargeH	error	n/a	0.54688	no	n/a	n/a
299.2773438	n/a	76615	largeHSmallT	correct	incongruent	0.51562	no	H	T
299.7929688	n/a	76747	responseLargeH	correct	n/a	0.51562	no	n/a	n/a
300.8515625	n/a	77018	largeTSmallT	correct	congruent	0.58594	no	T	T
301.4375	n/a	77168	responseLargeT	correct	n/a	0.58594	no	n/a	n/a
302.515625	n/a	77444	largeHSmallH	correct	congruent	0.51562	no	H	H
303.03125	n/a	77576	responseLargeH	correct	n/a	0.51562	no	n/a	n/a
304.1054688	n/a	77851	largeHSmallT	correct	incongruent	0.46875	no	H	T
304.5742188	n/a	77971	responseLargeH	correct	n/a	0.46875	no	n/a	n/a
305.6523438	n/a	78247	largeHSmallT	correct	incongruent	0.46484	no	H	T
306.1171875	n/a	78366	responseLargeH	correct	n/a	0.46484	no	n/a	n/a
307.1835938	n/a	78639	largeHSmallT	correct	incongruent	0.57031	no	H	T
307.7539062	n/a	78785	responseLargeH	correct	n/a	0.57031	no	n/a	n/a
308.8242188	n/a	79059	largeHSmallT	correct	incongruent	0.57812	no	H	T
309.4023438	n/a	79207	responseLargeH	correct	n/a	0.57812	no	n/a	n/a
310.4648438	n/a	79479	largeTSmallH	correct	incongruent	0.51953	no	T	H
310.984375	n/a	79612	responseLargeT	correct	n/a	0.51953	no	n/a	n/a
312.0625	n/a	79888	largeHSmallH	correct	congruent	0.67969	no	H	H
312.7421875	n/a	80062	responseLargeH	correct	n/a	0.67969	no	n/a	n/a
313.8085938	n/a	80335	largeTSmallH	correct	incongruent	0.58984	no	T	H
314.3984375	n/a	80486	responseLargeT	correct	n/a	0.58984	no	n/a	n/a
315.4765625	n/a	80762	largeTSmallH	correct	incongruent	0.58594	no	T	H
316.0625	n/a	80912	responseLargeT	correct	n/a	0.58594	no	n/a	n/a
317.1289062	n/a	81185	largeTSmallH	correct	incongruent	0.55859	no	T	H
317.6875	n/a	81328	responseLargeT	correct	n/a	0.55859	no	n/a	n/a
318.7421875	n/a	81598	largeHSmallH	correct	congruent	0.57812	no	H	H
319.3203125	n/a	81746	responseLargeH	correct	n/a	0.57812	no	n/a	n/a
320.3828125	n/a	82018	largeTSmallH	correct	incongruent	0.55078	no	T	H
320.9335938	n/a	82159	responseLargeT	correct	n/a	0.55078	no	n/a	n/a
321.9960938	n/a	82431	largeTSmallT	correct	congruent	0.46484	no	T	T
322.4609375	n/a	82550	responseLargeT	correct	n/a	0.46484	no	n/a	n/a
323.53125	n/a	82824	largeTSmallT	correct	congruent	0.50781	no	T	T
324.0390625	n/a	82954	responseLargeT	correct	n/a	0.50781	no	n/a	n/a
325.1015625	n/a	83226	largeTSmallT	correct	congruent	0.46094	no	T	T
325.5625	n/a	83344	responseLargeT	correct	n/a	0.46094	no	n/a	n/a
326.625	n/a	83616	largeTSmallH	error	incongruent	0.50391	no	T	H
327.1289062	n/a	83745	responseLargeH	error	n/a	0.50391	no	n/a	n/a
328.2109375	n/a	84022	largeHSmallT	correct	incongruent	0.53906	no	H	T
328.75	n/a	84160	responseLargeH	correct	n/a	0.53906	no	n/a	n/a
329.8085938	n/a	84431	largeHSmallH	correct	congruent	0.39062	no	H	H
330.1992188	n/a	84531	responseLargeH	correct	n/a	0.39062	no	n/a	n/a
331.2617188	n/a	84803	largeHSmallH	correct	congruent	0.45312	no	H	H
331.7148438	n/a	84919	responseLargeH	correct	n/a	0.45312	no	n/a	n/a
332.7695312	n/a	85189	largeHSmallT	correct	incongruent	0.48828	no	H	T
333.2578125	n/a	85314	responseLargeH	correct	n/a	0.48828	no	n/a	n/a
334.3164062	n/a	85585	largeTSmallH	correct	incongruent	0.52344	no	T	H
334.8398438	n/a	85719	responseLargeT	correct	n/a	0.52344	no	n/a	n/a
335.9179688	n/a	85995	largeTSmallT	correct	congruent	0.4375	no	T	T
336.3554688	n/a	86107	responseLargeT	correct	n/a	0.4375	no	n/a	n/a
337.421875	n/a	86380	largeHSmallT	correct	incongruent	0.48047	no	H	T
337.9023438	n/a	86503	responseLargeH	correct	n/a	0.48047	no	n/a	n/a
338.96875	n/a	86776	largeHSmallH	correct	congruent	0.50781	no	H	H
339.4765625	n/a	86906	responseLargeH	correct	n/a	0.50781	no	n/a	n/a
340.5429688	n/a	87179	largeTSmallT	correct	congruent	0.50391	no	T	T
341.046875	n/a	87308	responseLargeT	correct	n/a	0.50391	no	n/a	n/a
342.1171875	n/a	87582	largeHSmallH	correct	congruent	0.47266	no	H	H
342.5898438	n/a	87703	responseLargeH	correct	n/a	0.47266	no	n/a	n/a
343.6640625	n/a	87978	largeTSmallH	correct	incongruent	0.47266	no	T	H
344.1367188	n/a	88099	responseLargeT	correct	n/a	0.47266	no	n/a	n/a
345.2109375	n/a	88374	largeHSmallH	correct	congruent	0.51172	no	H	H
345.7226562	n/a	88505	responseLargeH	correct	n/a	0.51172	no	n/a	n/a
346.78125	n/a	88776	largeHSmallH	correct	congruent	0.50391	no	H	H
347.2851562	n/a	88905	responseLargeH	correct	n/a	0.50391	no	n/a	n/a
348.3554688	n/a	89179	largeTSmallH	correct	incongruent	0.49609	no	T	H
348.8515625	n/a	89306	responseLargeT	correct	n/a	0.49609	no	n/a	n/a
349.9179688	n/a	89579	largeHSmallH	correct	congruent	0.48828	no	H	H
350.40625	n/a	89704	responseLargeH	correct	n/a	0.48828	no	n/a	n/a
351.4765625	n/a	89978	largeTSmallH	correct	incongruent	0.5	no	T	H
351.9765625	n/a	90106	responseLargeT	correct	n/a	0.5	no	n/a	n/a
353.0351562	n/a	90377	largeHSmallT	correct	incongruent	0.46875	no	H	T
353.5039062	n/a	90497	responseLargeH	correct	n/a	0.46875	no	n/a	n/a
354.5703125	n/a	90770	largeHSmallH	correct	congruent	0.46875	no	H	H
355.0390625	n/a	90890	responseLargeH	correct	n/a	0.46875	no	n/a	n/a
356.1171875	n/a	91166	largeTSmallT	correct	congruent	0.48828	no	T	T
356.6054688	n/a	91291	responseLargeT	correct	n/a	0.48828	no	n/a	n/a
357.6757812	n/a	91565	largeTSmallH	correct	incongruent	0.83984	no	T	H
358.515625	n/a	91780	responseLargeT	correct	n/a	0.83984	no	n/a	n/a
359.5703125	n/a	92050	largeHSmallT	correct	incongruent	0.44922	no	H	T
360.0195312	n/a	92165	responseLargeH	correct	n/a	0.44922	no	n/a	n/a
361.0898438	n/a	92439	largeTSmallH	correct	incongruent	0.63672	no	T	H
361.7265625	n/a	92602	responseLargeT	correct	n/a	0.63672	no	n/a	n/a
362.78125	n/a	92872	largeHSmallT	correct	incongruent	0.46875	no	H	T
363.25	n/a	92992	responseLargeH	correct	n/a	0.46875	no	n/a	n/a
364.3164062	n/a	93265	largeHSmallT	correct	incongruent	0.51953	no	H	T
364.8359375	n/a	93398	responseLargeH	correct	n/a	0.51953	no	n/a	n/a
365.9023438	n/a	93671	largeTSmallT	correct	congruent	0.47266	no	T	T
366.375	n/a	93792	responseLargeT	correct	n/a	0.47266	no	n/a	n/a
367.4375	n/a	94064	largeHSmallT	correct	incongruent	0.53516	no	H	T
367.9726562	n/a	94201	responseLargeH	correct	n/a	0.53516	no	n/a	n/a
369.0507812	n/a	94477	largeTSmallH	correct	incongruent	0.71484	no	T	H
369.765625	n/a	94660	responseLargeT	correct	n/a	0.71484	no	n/a	n/a
370.8359375	n/a	94934	largeHSmallH	correct	congruent	0.5	no	H	H
371.3359375	n/a	95062	responseLargeH	correct	n/a	0.5	no	n/a	n/a
372.3945312	n/a	95333	largeHSmallH	correct	congruent	0.53516	no	H	H
372.9296875	n/a	95470	responseLargeH	correct	n/a	0.53516	no	n/a	n/a
373.9960938	n/a	95743	largeTSmallH	correct	incongruent	0.49609	no	T	H
374.4921875	n/a	95870	responseLargeT	correct	n/a	0.49609	no	n/a	n/a
375.5546875	n/a	96142	largeHSmallH	correct	congruent	0.41016	no	H	H
375.9648438	n/a	96247	responseLargeH	correct	n/a	0.41016	no	n/a	n/a
377.0351562	n/a	96521	largeHSmallT	correct	incongruent	0.46094	no	H	T
377.4960938	n/a	96639	responseLargeH	correct	n/a	0.46094	no	n/a	n/a
378.5546875	n/a	96910	largeHSmallT	correct	incongruent	0.5	no	H	T
379.0546875	n/a	97038	responseLargeH	correct	n/a	0.5	no	n/a	n/a
380.1289062	n/a	97313	largeHSmallT	correct	incongruent	0.52734	no	H	T
380.65625	n/a	97448	responseLargeH	correct	n/a	0.52734	no	n/a	n/a
381.7304688	n/a	97723	largeTSmallT	correct	congruent	0.46094	no	T	T
382.1914062	n/a	97841	responseLargeT	correct	n/a	0.46094	no	n/a	n/a
383.2617188	n/a	98115	largeTSmallT	correct	congruent	0.51562	no	T	T
383.7773438	n/a	98247	responseLargeT	correct	n/a	0.51562	no	n/a	n/a
384.8476562	n/a	98521	largeTSmallT	correct	congruent	0.47656	no	T	T
385.3242188	n/a	98643	responseLargeT	correct	n/a	0.47656	no	n/a	n/a
386.3945312	n/a	98917	largeHSmallH	correct	congruent	0.48047	no	H	H
386.875	n/a	99040	responseLargeH	correct	n/a	0.48047	no	n/a	n/a
387.9414062	n/a	99313	largeTSmallT	correct	congruent	0.49609	no	T	T
388.4375	n/a	99440	responseLargeT	correct	n/a	0.49609	no	n/a	n/a
389.5	n/a	99712	largeTSmallH	error	incongruent	0.39062	no	T	H
389.890625	n/a	99812	responseLargeH	error	n/a	0.39062	no	n/a	n/a
390.96875	n/a	100088	largeHSmallT	correct	incongruent	0.51953	no	H	T
391.4882812	n/a	100221	responseLargeH	correct	n/a	0.51953	no	n/a	n/a
392.5546875	n/a	100494	largeTSmallT	correct	congruent	0.61719	no	T	T
393.171875	n/a	100652	responseLargeT	correct	n/a	0.61719	no	n/a	n/a
394.234375	n/a	100924	largeHSmallH	correct	congruent	0.63672	no	H	H
394.8710938	n/a	101087	responseLargeH	correct	n/a	0.63672	no	n/a	n/a
395.9414062	n/a	101361	largeTSmallH	correct	incongruent	0.76172	no	T	H
396.703125	n/a	101556	responseLargeT	correct	n/a	0.76172	no	n/a	n/a
397.7695312	n/a	101829	largeHSmallH	correct	congruent	0.51953	no	H	H
398.2890625	n/a	101962	responseLargeH	correct	n/a	0.51953	no	n/a	n/a
399.3554688	n/a	102235	largeTSmallH	correct	incongruent	0.58984	no	T	H
399.9453125	n/a	102386	responseLargeT	correct	n/a	0.58984	no	n/a	n/a
402.8476562	n/a	103129	largeTSmallT	correct	congruent	0.60938	no	T	T
403.4570312	n/a	103285	responseSmallT	correct	n/a	0.60938	no	n/a	n/a
404.515625	n/a	103556	largeHSmallH	correct	congruent	0.43359	no	H	H
404.9492188	n/a	103667	responseSmallH	correct	n/a	0.43359	no	n/a	n/a
406.0195312	n/a	103941	largeHSmallT	correct	incongruent	0.60156	no	H	T
406.6210938	n/a	104095	responseSmallT	correct	n/a	0.60156	no	n/a	n/a
407.6875	n/a	104368	largeTSmallH	correct	incongruent	0.46094	no	T	H
408.1484375	n/a	104486	responseSmallH	correct	n/a	0.46094	no	n/a	n/a
409.2070312	n/a	104757	largeHSmallT	correct	incongruent	0.46484	no	H	T
409.671875	n/a	104876	responseSmallT	correct	n/a	0.46484	no	n/a	n/a
410.7421875	n/a	105150	largeTSmallT	correct	congruent	0.54688	no	T	T
411.2890625	n/a	105290	responseSmallT	correct	n/a	0.54688	no	n/a	n/a
412.3554688	n/a	105563	largeTSmallT	correct	congruent	0.49219	no	T	T
412.8476562	n/a	105689	responseSmallT	correct	n/a	0.49219	no	n/a	n/a
413.9140625	n/a	105962	largeTSmallT	correct	congruent	0.46094	no	T	T
414.375	n/a	106080	responseSmallT	correct	n/a	0.46094	no	n/a	n/a
415.4335938	n/a	106351	largeHSmallH	correct	congruent	0.48828	no	H	H
415.921875	n/a	106476	responseSmallH	correct	n/a	0.48828	no	n/a	n/a
416.9804688	n/a	106747	largeTSmallH	correct	incongruent	0.48828	no	T	H
417.46875	n/a	106872	responseSmallH	correct	n/a	0.48828	no	n/a	n/a
418.5273438	n/a	107143	largeTSmallH	correct	incongruent	0.4375	no	T	H
418.9648438	n/a	107255	responseSmallH	correct	n/a	0.4375	no	n/a	n/a
420.0195312	n/a	107525	largeTSmallT	error	congruent	0.46484	no	T	T
420.484375	n/a	107644	responseSmallH	error	n/a	0.46484	no	n/a	n/a
421.5546875	n/a	107918	largeHSmallH	correct	congruent	0.54688	no	H	H
422.1015625	n/a	108058	responseSmallH	correct	n/a	0.54688	no	n/a	n/a
423.1796875	n/a	108334	largeTSmallT	correct	congruent	0.47656	no	T	T
423.65625	n/a	108456	responseSmallT	correct	n/a	0.47656	no	n/a	n/a
424.7265625	n/a	108730	largeHSmallT	correct	incongruent	0.77344	no	H	T
425.5	n/a	108928	responseSmallT	correct	n/a	0.77344	no	n/a	n/a
426.5664062	n/a	109201	largeHSmallH	correct	congruent	0.55078	no	H	H
427.1171875	n/a	109342	responseSmallH	correct	n/a	0.55078	no	n/a	n/a
428.1796875	n/a	109614	largeTSmallH	correct	incongruent	0.55469	no	T	H
428.734375	n/a	109756	responseSmallH	correct	n/a	0.55469	no	n/a	n/a
429.8085938	n/a	110031	largeHSmallH	correct	congruent	0.50391	no	H	H
430.3125	n/a	110160	responseSmallH	correct	n/a	0.50391	no	n/a	n/a
431.3828125	n/a	110434	largeTSmallT	correct	congruent	0.41797	no	T	T
431.8007812	n/a	110541	responseSmallT	correct	n/a	0.41797	no	n/a	n/a
432.859375	n/a	110812	largeTSmallH	correct	incongruent	0.52344	no	T	H
433.3828125	n/a	110946	responseSmallH	correct	n/a	0.52344	no	n/a	n/a
434.4609375	n/a	111222	largeHSmallH	correct	congruent	0.53516	no	H	H
434.9960938	n/a	111359	responseSmallH	correct	n/a	0.53516	no	n/a	n/a
436.0625	n/a	111632	largeTSmallT	correct	congruent	0.49219	no	T	T
436.5546875	n/a	111758	responseSmallT	correct	n/a	0.49219	no	n/a	n/a
437.6210938	n/a	112031	largeHSmallH	correct	congruent	0.55078	no	H	H
438.171875	n/a	112172	responseSmallH	correct	n/a	0.55078	no	n/a	n/a
439.234375	n/a	112444	largeTSmallT	correct	congruent	0.46484	no	T	T
439.6992188	n/a	112563	responseSmallT	correct	n/a	0.46484	no	n/a	n/a
440.78125	n/a	112840	largeTSmallT	correct	congruent	0.57812	no	T	T
441.359375	n/a	112988	responseSmallT	correct	n/a	0.57812	no	n/a	n/a
442.421875	n/a	113260	largeHSmallT	correct	incongruent	0.56641	no	H	T
442.9882812	n/a	113405	responseSmallT	correct	n/a	0.56641	no	n/a	n/a
444.046875	n/a	113676	largeTSmallH	correct	incongruent	0.57422	no	T	H
444.6210938	n/a	113823	responseSmallH	correct	n/a	0.57422	no	n/a	n/a
445.6875	n/a	114096	largeHSmallH	correct	congruent	0.5625	no	H	H
446.25	n/a	114240	responseSmallH	correct	n/a	0.5625	no	n/a	n/a
447.3125	n/a	114512	largeHSmallT	correct	incongruent	0.70312	no	H	T
448.015625	n/a	114692	responseSmallT	correct	n/a	0.70312	no	n/a	n/a
449.0859375	n/a	114966	largeHSmallH	correct	congruent	0.625	no	H	H
449.7109375	n/a	115126	responseSmallH	correct	n/a	0.625	no	n/a	n/a
450.765625	n/a	115396	largeTSmallH	correct	incongruent	0.57812	no	T	H
451.34375	n/a	115544	responseSmallH	correct	n/a	0.57812	no	n/a	n/a
452.40625	n/a	115816	largeHSmallH	correct	congruent	0.57031	no	H	H
452.9765625	n/a	115962	responseSmallH	correct	n/a	0.57031	no	n/a	n/a
454.046875	n/a	116236	largeHSmallT	correct	incongruent	0.62109	no	H	T
454.6679688	n/a	116395	responseSmallT	correct	n/a	0.62109	no	n/a	n/a
455.7421875	n/a	116670	largeTSmallT	correct	congruent	0.62109	no	T	T
456.3632812	n/a	116829	responseSmallT	correct	n/a	0.62109	no	n/a	n/a
457.4335938	n/a	117103	largeTSmallH	correct	incongruent	0.5	no	T	H
457.9335938	n/a	117231	responseSmallH	correct	n/a	0.5	no	n/a	n/a
458.9921875	n/a	117502	largeHSmallH	correct	congruent	0.48828	no	H	H
459.4804688	n/a	117627	responseSmallH	correct	n/a	0.48828	no	n/a	n/a
460.5546875	n/a	117902	largeHSmallT	correct	incongruent	0.60938	no	H	T
461.1640625	n/a	118058	responseSmallT	correct	n/a	0.60938	no	n/a	n/a
462.21875	n/a	118328	largeTSmallT	correct	congruent	0.52734	no	T	T
462.7460938	n/a	118463	responseSmallT	correct	n/a	0.52734	no	n/a	n/a
463.8203125	n/a	118738	largeHSmallT	correct	incongruent	0.5625	no	H	T
464.3828125	n/a	118882	responseSmallT	correct	n/a	0.5625	no	n/a	n/a
465.4453125	n/a	119154	largeHSmallT	correct	incongruent	0.58984	no	H	T
466.0351562	n/a	119305	responseSmallT	correct	n/a	0.58984	no	n/a	n/a
467.1132812	n/a	119581	largeHSmallT	correct	incongruent	0.54297	no	H	T
467.65625	n/a	119720	responseSmallT	correct	n/a	0.54297	no	n/a	n/a
468.7265625	n/a	119994	largeHSmallH	correct	congruent	0.58203	no	H	H
469.3085938	n/a	120143	responseSmallH	correct	n/a	0.58203	no	n/a	n/a
470.3789062	n/a	120417	largeHSmallT	correct	incongruent	0.53906	no	H	T
470.9179688	n/a	120555	responseSmallT	correct	n/a	0.53906	no	n/a	n/a
471.9921875	n/a	120830	largeTSmallH	correct	incongruent	0.55469	no	T	H
472.546875	n/a	120972	responseSmallH	correct	n/a	0.55469	no	n/a	n/a
473.6054688	n/a	121243	largeTSmallH	correct	incongruent	0.63672	no	T	H
474.2421875	n/a	121406	responseSmallH	correct	n/a	0.63672	no	n/a	n/a
475.3125	n/a	121680	largeTSmallT	correct	congruent	0.53125	no	T	T
475.84375	n/a	121816	responseSmallT	correct	n/a	0.53125	no	n/a	n/a
476.8984375	n/a	122086	largeHSmallT	correct	incongruent	0.58203	no	H	T
477.4804688	n/a	122235	responseSmallT	correct	n/a	0.58203	no	n/a	n/a
478.5390625	n/a	122506	largeHSmallT	correct	incongruent	0.53516	no	H	T
479.0742188	n/a	122643	responseSmallT	correct	n/a	0.53516	no	n/a	n/a
480.1523438	n/a	122919	largeTSmallH	correct	incongruent	0.52734	no	T	H
480.6796875	n/a	123054	responseSmallH	correct	n/a	0.52734	no	n/a	n/a
481.7382812	n/a	123325	largeHSmallT	correct	incongruent	0.57422	no	H	T
482.3125	n/a	123472	responseSmallT	correct	n/a	0.57422	no	n/a	n/a
483.3789062	n/a	123745	largeHSmallH	correct	congruent	0.48828	no	H	H
483.8671875	n/a	123870	responseSmallH	correct	n/a	0.48828	no	n/a	n/a
484.9414062	n/a	124145	largeTSmallH	correct	incongruent	0.48438	no	T	H
485.4257812	n/a	124269	responseSmallH	correct	n/a	0.48438	no	n/a	n/a
486.5	n/a	124544	largeHSmallT	correct	incongruent	0.57031	no	H	T
487.0703125	n/a	124690	responseSmallT	correct	n/a	0.57031	no	n/a	n/a
488.140625	n/a	124964	largeTSmallT	correct	congruent	0.53516	no	T	T
488.6757812	n/a	125101	responseSmallT	correct	n/a	0.53516	no	n/a	n/a
489.7382812	n/a	125373	largeTSmallT	correct	congruent	0.48438	no	T	T
490.2226562	n/a	125497	responseSmallT	correct	n/a	0.48438	no	n/a	n/a
491.2851562	n/a	125769	largeTSmallH	correct	incongruent	0.49219	no	T	H
491.7773438	n/a	125895	responseSmallH	correct	n/a	0.49219	no	n/a	n/a
492.8476562	n/a	126169	largeTSmallH	correct	incongruent	0.64453	no	T	H
493.4921875	n/a	126334	responseSmallH	correct	n/a	0.64453	no	n/a	n/a
494.5664062	n/a	126609	largeHSmallT	error	incongruent	0.63672	no	H	T
495.203125	n/a	126772	responseSmallH	error	n/a	0.63672	no	n/a	n/a
496.2851562	n/a	127049	largeHSmallH	correct	congruent	0.58594	no	H	H
496.8710938	n/a	127199	responseSmallH	correct	n/a	0.58594	no	n/a	n/a
497.9257812	n/a	127469	largeHSmallH	correct	congruent	0.51562	no	H	H
498.4414062	n/a	127601	responseSmallH	correct	n/a	0.51562	no	n/a	n/a
499.5117188	n/a	127875	largeTSmallH	correct	incongruent	0.52344	no	T	H
500.0351562	n/a	128009	responseSmallH	correct	n/a	0.52344	no	n/a	n/a
501.0976562	n/a	128281	largeTSmallH	correct	incongruent	0.48047	no	T	H
501.578125	n/a	128404	responseSmallH	correct	n/a	0.48047	no	n/a	n/a
502.6445312	n/a	128677	largeTSmallT	correct	congruent	0.60547	no	T	T
503.25	n/a	128832	responseSmallT	correct	n/a	0.60547	no	n/a	n/a
504.3125	n/a	129104	largeHSmallT	error	incongruent	0.62891	no	H	T
504.9414062	n/a	129265	responseSmallH	error	n/a	0.62891	no	n/a	n/a
506.0195312	n/a	129541	largeHSmallH	correct	congruent	0.70703	no	H	H
506.7265625	n/a	129722	responseSmallH	correct	n/a	0.70703	no	n/a	n/a
507.7929688	n/a	129995	largeHSmallT	correct	incongruent	0.52734	no	H	T
508.3203125	n/a	130130	responseSmallT	correct	n/a	0.52734	no	n/a	n/a
509.3789062	n/a	130401	largeHSmallT	correct	incongruent	0.50391	no	H	T
509.8828125	n/a	130530	responseSmallT	correct	n/a	0.50391	no	n/a	n/a
510.9375	n/a	130800	largeTSmallT	correct	congruent	0.55859	no	T	T
511.4960938	n/a	130943	responseSmallT	correct	n/a	0.55859	no	n/a	n/a
512.5664062	n/a	131217	largeTSmallH	correct	incongruent	0.51562	no	T	H
513.0820312	n/a	131349	responseSmallH	correct	n/a	0.51562	no	n/a	n/a
514.140625	n/a	131620	largeHSmallH	correct	congruent	0.57031	no	H	H
514.7109375	n/a	131766	responseSmallH	correct	n/a	0.57031	no	n/a	n/a
515.7773438	n/a	132039	largeHSmallH	correct	congruent	0.55859	no	H	H
516.3359375	n/a	132182	responseSmallH	correct	n/a	0.55859	no	n/a	n/a
517.40625	n/a	132456	largeHSmallH	correct	congruent	0.51172	no	H	H
517.9179688	n/a	132587	responseSmallH	correct	n/a	0.51172	no	n/a	n/a
518.9804688	n/a	132859	largeTSmallH	correct	incongruent	0.55859	no	T	H
519.5390625	n/a	133002	responseSmallH	correct	n/a	0.55859	no	n/a	n/a
520.6054688	n/a	133275	largeHSmallH	correct	congruent	0.61328	no	H	H
521.21875	n/a	133432	responseSmallH	correct	n/a	0.61328	no	n/a	n/a
522.2851562	n/a	133705	largeTSmallT	correct	congruent	0.50781	no	T	T
522.7929688	n/a	133835	responseSmallT	correct	n/a	0.50781	no	n/a	n/a
523.859375	n/a	134108	largeTSmallT	correct	congruent	0.53516	no	T	T
524.3945312	n/a	134245	responseSmallT	correct	n/a	0.53516	no	n/a	n/a
525.4726562	n/a	134521	largeTSmallT	correct	congruent	0.48828	no	T	T
525.9609375	n/a	134646	responseSmallT	correct	n/a	0.48828	no	n/a	n/a
527.03125	n/a	134920	largeTSmallH	correct	incongruent	0.54688	no	T	H
527.578125	n/a	135060	responseSmallH	correct	n/a	0.54688	no	n/a	n/a
528.6445312	n/a	135333	largeTSmallH	correct	incongruent	0.44141	no	T	H
529.0859375	n/a	135446	responseSmallH	correct	n/a	0.44141	no	n/a	n/a
530.1523438	n/a	135719	largeHSmallT	correct	incongruent	0.67969	no	H	T
530.8320312	n/a	135893	responseSmallT	correct	n/a	0.67969	no	n/a	n/a
