onset	duration	sample	value	response_type	congruence	response_time	response_out_of_range	largeletter	smallletter
25.078125	n/a	6420	largeTSmallT	correct	congruent	0.96875	no	T	T
26.046875	n/a	6668	responseLargeT	correct	n/a	0.96875	no	n/a	n/a
27.12890625	n/a	6945	largeHSmallH	correct	congruent	0.63672	no	H	H
27.765625	n/a	7108	responseLargeH	correct	n/a	0.63672	no	n/a	n/a
28.8359375	n/a	7382	largeHSmallT	error	incongruent	0.44141	no	H	T
29.27734375	n/a	7495	responseLargeT	error	n/a	0.44141	no	n/a	n/a
30.35546875	n/a	7771	largeHSmallH	correct	congruent	0.59375	no	H	H
30.94921875	n/a	7923	responseLargeH	correct	n/a	0.59375	no	n/a	n/a
32.01953125	n/a	8197	largeHSmallH	correct	congruent	0.53125	no	H	H
32.55078125	n/a	8333	responseLargeH	correct	n/a	0.53125	no	n/a	n/a
33.62109375	n/a	8607	largeHSmallH	correct	congruent	0.57031	no	H	H
34.19140625	n/a	8753	responseLargeH	correct	n/a	0.57031	no	n/a	n/a
35.26171875	n/a	9027	largeHSmallT	correct	incongruent	0.50391	no	H	T
35.765625	n/a	9156	responseLargeH	correct	n/a	0.50391	no	n/a	n/a
36.83203125	n/a	9429	largeHSmallH	correct	congruent	0.46875	no	H	H
37.30078125	n/a	9549	responseLargeH	correct	n/a	0.46875	no	n/a	n/a
38.3671875	n/a	9822	largeTSmallT	correct	congruent	0.52344	no	T	T
38.890625	n/a	9956	responseLargeT	correct	n/a	0.52344	no	n/a	n/a
39.953125	n/a	10228	largeTSmallT	correct	congruent	0.57422	no	T	T
40.52734375	n/a	10375	responseLargeT	correct	n/a	0.57422	no	n/a	n/a
41.59375	n/a	10648	largeTSmallH	correct	incongruent	0.6875	no	T	H
42.28125	n/a	10824	responseLargeT	correct	n/a	0.6875	no	n/a	n/a
43.35546875	n/a	11099	largeTSmallT	correct	congruent	0.44922	no	T	T
43.8046875	n/a	11214	responseLargeT	correct	n/a	0.44922	no	n/a	n/a
44.875	n/a	11488	largeTSmallH	correct	incongruent	0.41797	no	T	H
45.29296875	n/a	11595	responseLargeT	correct	n/a	0.41797	no	n/a	n/a
46.35546875	n/a	11867	largeTSmallT	correct	congruent	0.45312	no	T	T
46.80859375	n/a	11983	responseLargeT	correct	n/a	0.45312	no	n/a	n/a
47.88671875	n/a	12259	largeTSmallH	error	incongruent	0.51562	no	T	H
48.40234375	n/a	12391	responseLargeH	error	n/a	0.51562	no	n/a	n/a
49.47265625	n/a	12665	largeHSmallH	correct	congruent	0.57422	no	H	H
50.046875	n/a	12812	responseLargeH	correct	n/a	0.57422	no	n/a	n/a
51.11328125	n/a	13085	largeHSmallH	correct	congruent	0.5	no	H	H
51.61328125	n/a	13213	responseLargeH	correct	n/a	0.5	no	n/a	n/a
52.6875	n/a	13488	largeTSmallH	correct	incongruent	0.64453	no	T	H
53.33203125	n/a	13653	responseLargeT	correct	n/a	0.64453	no	n/a	n/a
54.40625	n/a	13928	largeTSmallH	correct	incongruent	0.48828	no	T	H
54.89453125	n/a	14053	responseLargeT	correct	n/a	0.48828	no	n/a	n/a
55.96484375	n/a	14327	largeTSmallT	correct	congruent	0.48047	no	T	T
56.4453125	n/a	14450	responseLargeT	correct	n/a	0.48047	no	n/a	n/a
57.51171875	n/a	14723	largeTSmallH	correct	incongruent	0.49219	no	T	H
58.00390625	n/a	14849	responseLargeT	correct	n/a	0.49219	no	n/a	n/a
59.07421875	n/a	15123	largeTSmallT	correct	congruent	0.45703	no	T	T
59.53125	n/a	15240	responseLargeT	correct	n/a	0.45703	no	n/a	n/a
60.59375	n/a	15512	largeHSmallH	correct	congruent	0.50781	no	H	H
61.1015625	n/a	15642	responseLargeH	correct	n/a	0.50781	no	n/a	n/a
62.1796875	n/a	15918	largeTSmallH	correct	incongruent	0.49609	no	T	H
62.67578125	n/a	16045	responseLargeT	correct	n/a	0.49609	no	n/a	n/a
63.75390625	n/a	16321	largeHSmallH	correct	congruent	0.44531	no	H	H
64.19921875	n/a	16435	responseLargeH	correct	n/a	0.44531	no	n/a	n/a
65.2734375	n/a	16710	largeHSmallH	correct	congruent	0.46484	no	H	H
65.73828125	n/a	16829	responseLargeH	correct	n/a	0.46484	no	n/a	n/a
66.8046875	n/a	17102	largeHSmallT	correct	incongruent	0.46484	no	H	T
67.26953125	n/a	17221	responseLargeH	correct	n/a	0.46484	no	n/a	n/a
68.33984375	n/a	17495	largeHSmallH	correct	congruent	0.49219	no	H	H
68.83203125	n/a	17621	responseLargeH	correct	n/a	0.49219	no	n/a	n/a
69.9140625	n/a	17898	largeTSmallH	correct	incongruent	0.52344	no	T	H
70.4375	n/a	18032	responseLargeT	correct	n/a	0.52344	no	n/a	n/a
71.5	n/a	18304	largeTSmallT	correct	congruent	0.48438	no	T	T
71.984375	n/a	18428	responseLargeT	correct	n/a	0.48438	no	n/a	n/a
73.046875	n/a	18700	largeHSmallT	correct	incongruent	0.47656	no	H	T
73.5234375	n/a	18822	responseLargeH	correct	n/a	0.47656	no	n/a	n/a
74.59375	n/a	19096	largeTSmallH	correct	incongruent	0.5625	no	T	H
75.15625	n/a	19240	responseLargeT	correct	n/a	0.5625	no	n/a	n/a
76.234375	n/a	19516	largeTSmallT	correct	congruent	0.5625	no	T	T
76.796875	n/a	19660	responseLargeT	correct	n/a	0.5625	no	n/a	n/a
77.87109375	n/a	19935	largeHSmallH	correct	congruent	0.43359	no	H	H
78.3046875	n/a	20046	responseLargeH	correct	n/a	0.43359	no	n/a	n/a
79.37890625	n/a	20321	largeHSmallT	correct	incongruent	0.45703	no	H	T
79.8359375	n/a	20438	responseLargeH	correct	n/a	0.45703	no	n/a	n/a
80.9140625	n/a	20714	largeHSmallT	correct	incongruent	0.44531	no	H	T
81.359375	n/a	20828	responseLargeH	correct	n/a	0.44531	no	n/a	n/a
82.43359375	n/a	21103	largeTSmallT	correct	congruent	0.48828	no	T	T
82.921875	n/a	21228	responseLargeT	correct	n/a	0.48828	no	n/a	n/a
83.9921875	n/a	21502	largeHSmallT	correct	incongruent	0.39453	no	H	T
84.38671875	n/a	21603	responseLargeH	correct	n/a	0.39453	no	n/a	n/a
85.4453125	n/a	21874	largeHSmallH	correct	congruent	0.49219	no	H	H
85.9375	n/a	22000	responseLargeH	correct	n/a	0.49219	no	n/a	n/a
87.0078125	n/a	22274	largeHSmallH	correct	congruent	0.46875	no	H	H
87.4765625	n/a	22394	responseLargeH	correct	n/a	0.46875	no	n/a	n/a
88.5546875	n/a	22670	largeHSmallH	correct	congruent	0.42188	no	H	H
88.9765625	n/a	22778	responseLargeH	correct	n/a	0.42188	no	n/a	n/a
90.046875	n/a	23052	largeTSmallT	correct	congruent	0.51562	no	T	T
90.5625	n/a	23184	responseLargeT	correct	n/a	0.51562	no	n/a	n/a
91.6328125	n/a	23458	largeTSmallT	correct	congruent	0.42578	no	T	T
92.05859375	n/a	23567	responseLargeT	correct	n/a	0.42578	no	n/a	n/a
93.125	n/a	23840	largeTSmallH	correct	incongruent	0.50781	no	T	H
93.6328125	n/a	23970	responseLargeT	correct	n/a	0.50781	no	n/a	n/a
94.69921875	n/a	24243	largeHSmallT	correct	incongruent	0.45312	no	H	T
95.15234375	n/a	24359	responseLargeH	correct	n/a	0.45312	no	n/a	n/a
96.234375	n/a	24636	largeHSmallT	correct	incongruent	0.51562	no	H	T
96.75	n/a	24768	responseLargeH	correct	n/a	0.51562	no	n/a	n/a
97.8203125	n/a	25042	largeTSmallT	correct	congruent	0.41406	no	T	T
98.234375	n/a	25148	responseLargeT	correct	n/a	0.41406	no	n/a	n/a
99.30078125	n/a	25421	largeTSmallH	correct	incongruent	0.33594	no	T	H
99.63671875	n/a	25507	responseLargeT	correct	n/a	0.33594	no	n/a	n/a
100.6992188	n/a	25779	largeHSmallT	correct	incongruent	0.41797	no	H	T
101.1171875	n/a	25886	responseLargeH	correct	n/a	0.41797	no	n/a	n/a
102.1914062	n/a	26161	largeHSmallT	correct	incongruent	0.42969	no	H	T
102.6210938	n/a	26271	responseLargeH	correct	n/a	0.42969	no	n/a	n/a
103.6875	n/a	26544	largeTSmallT	correct	congruent	0.40625	no	T	T
104.09375	n/a	26648	responseLargeT	correct	n/a	0.40625	no	n/a	n/a
105.1640625	n/a	26922	largeHSmallT	correct	incongruent	0.42578	no	H	T
105.5898438	n/a	27031	responseLargeH	correct	n/a	0.42578	no	n/a	n/a
106.6601562	n/a	27305	largeHSmallH	error	congruent	0.36719	no	H	H
107.0273438	n/a	27399	responseLargeT	error	n/a	0.36719	no	n/a	n/a
108.0976562	n/a	27673	largeHSmallH	correct	congruent	0.41797	no	H	H
108.515625	n/a	27780	responseLargeH	correct	n/a	0.41797	no	n/a	n/a
109.578125	n/a	28052	largeHSmallH	correct	congruent	0.37891	no	H	H
109.9570312	n/a	28149	responseLargeH	correct	n/a	0.37891	no	n/a	n/a
111.03125	n/a	28424	largeHSmallH	correct	congruent	0.42578	no	H	H
111.4570312	n/a	28533	responseLargeH	correct	n/a	0.42578	no	n/a	n/a
112.5234375	n/a	28806	largeHSmallT	correct	incongruent	0.34375	no	H	T
112.8671875	n/a	28894	responseLargeH	correct	n/a	0.34375	no	n/a	n/a
113.9375	n/a	29168	largeHSmallH	correct	congruent	0.33594	no	H	H
114.2734375	n/a	29254	responseLargeH	correct	n/a	0.33594	no	n/a	n/a
115.3398438	n/a	29527	largeTSmallT	error	congruent	0.37891	no	T	T
115.71875	n/a	29624	responseLargeH	error	n/a	0.37891	no	n/a	n/a
116.7929688	n/a	29899	largeTSmallH	correct	incongruent	0.5	no	T	H
117.2929688	n/a	30027	responseLargeT	correct	n/a	0.5	no	n/a	n/a
118.3671875	n/a	30302	largeTSmallH	error	incongruent	0.46875	no	T	H
118.8359375	n/a	30422	responseLargeH	error	n/a	0.46875	no	n/a	n/a
119.9101562	n/a	30697	largeHSmallT	error	incongruent	0.45312	no	H	T
120.3632812	n/a	30813	responseLargeT	error	n/a	0.45312	no	n/a	n/a
121.4335938	n/a	31087	largeHSmallH	correct	congruent	0.45703	no	H	H
121.890625	n/a	31204	responseLargeH	correct	n/a	0.45703	no	n/a	n/a
122.9648438	n/a	31479	largeTSmallH	correct	incongruent	0.63672	no	T	H
123.6015625	n/a	31642	responseLargeT	correct	n/a	0.63672	no	n/a	n/a
124.671875	n/a	31916	largeHSmallH	correct	congruent	0.39844	no	H	H
125.0703125	n/a	32018	responseLargeH	correct	n/a	0.39844	no	n/a	n/a
126.1367188	n/a	32291	largeHSmallH	correct	congruent	0.46875	no	H	H
126.6054688	n/a	32411	responseLargeH	correct	n/a	0.46875	no	n/a	n/a
127.671875	n/a	32684	largeTSmallT	correct	congruent	0.52344	no	T	T
128.1953125	n/a	32818	responseLargeT	correct	n/a	0.52344	no	n/a	n/a
129.2734375	n/a	33094	largeHSmallT	correct	incongruent	0.44531	no	H	T
129.71875	n/a	33208	responseLargeH	correct	n/a	0.44531	no	n/a	n/a
130.7773438	n/a	33479	largeHSmallT	correct	incongruent	0.49609	no	H	T
131.2734375	n/a	33606	responseLargeH	correct	n/a	0.49609	no	n/a	n/a
132.3398438	n/a	33879	largeHSmallH	correct	congruent	0.40625	no	H	H
132.7460938	n/a	33983	responseLargeH	correct	n/a	0.40625	no	n/a	n/a
133.8164062	n/a	34257	largeHSmallH	correct	congruent	0.48828	no	H	H
134.3046875	n/a	34382	responseLargeH	correct	n/a	0.48828	no	n/a	n/a
135.3632812	n/a	34653	largeHSmallH	correct	congruent	0.375	no	H	H
135.7382812	n/a	34749	responseLargeH	correct	n/a	0.375	no	n/a	n/a
136.8046875	n/a	35022	largeTSmallH	correct	incongruent	0.61719	no	T	H
137.421875	n/a	35180	responseLargeT	correct	n/a	0.61719	no	n/a	n/a
138.484375	n/a	35452	largeTSmallH	correct	incongruent	0.44922	no	T	H
138.9335938	n/a	35567	responseLargeT	correct	n/a	0.44922	no	n/a	n/a
140.0039062	n/a	35841	largeTSmallH	correct	incongruent	0.44531	no	T	H
140.4492188	n/a	35955	responseLargeT	correct	n/a	0.44531	no	n/a	n/a
141.5117188	n/a	36227	largeTSmallT	correct	congruent	0.375	no	T	T
141.8867188	n/a	36323	responseLargeT	correct	n/a	0.375	no	n/a	n/a
142.9648438	n/a	36599	largeTSmallT	correct	congruent	0.50781	no	T	T
143.4726562	n/a	36729	responseLargeT	correct	n/a	0.50781	no	n/a	n/a
144.5390625	n/a	37002	largeHSmallH	correct	congruent	0.42578	no	H	H
144.9648438	n/a	37111	responseLargeH	correct	n/a	0.42578	no	n/a	n/a
146.0429688	n/a	37387	largeTSmallH	correct	incongruent	0.34766	no	T	H
146.390625	n/a	37476	responseLargeT	correct	n/a	0.34766	no	n/a	n/a
147.4570312	n/a	37749	largeHSmallH	correct	congruent	0.33594	no	H	H
147.7929688	n/a	37835	responseLargeH	correct	n/a	0.33594	no	n/a	n/a
148.8710938	n/a	38111	largeHSmallT	error	incongruent	0.3125	no	H	T
149.1835938	n/a	38191	responseLargeT	error	n/a	0.3125	no	n/a	n/a
150.2460938	n/a	38463	largeHSmallH	correct	congruent	0.45312	no	H	H
150.6992188	n/a	38579	responseLargeH	correct	n/a	0.45312	no	n/a	n/a
151.765625	n/a	38852	largeHSmallH	correct	congruent	0.43359	no	H	H
152.1992188	n/a	38963	responseLargeH	correct	n/a	0.43359	no	n/a	n/a
153.2578125	n/a	39234	largeHSmallT	correct	incongruent	0.39453	no	H	T
153.6523438	n/a	39335	responseLargeH	correct	n/a	0.39453	no	n/a	n/a
154.7226562	n/a	39609	largeTSmallH	correct	incongruent	0.54297	no	T	H
155.265625	n/a	39748	responseLargeT	correct	n/a	0.54297	no	n/a	n/a
156.3359375	n/a	40022	largeTSmallH	error	incongruent	0.41797	no	T	H
156.7539062	n/a	40129	responseLargeH	error	n/a	0.41797	no	n/a	n/a
157.8164062	n/a	40401	largeHSmallH	correct	congruent	0.34375	no	H	H
158.1601562	n/a	40489	responseLargeH	correct	n/a	0.34375	no	n/a	n/a
159.21875	n/a	40760	largeTSmallH	correct	incongruent	0.46484	no	T	H
159.6835938	n/a	40879	responseLargeT	correct	n/a	0.46484	no	n/a	n/a
160.75	n/a	41152	largeTSmallH	error	incongruent	0.48047	no	T	H
161.2304688	n/a	41275	responseLargeH	error	n/a	0.48047	no	n/a	n/a
162.296875	n/a	41548	largeTSmallH	correct	incongruent	0.49219	no	T	H
162.7890625	n/a	41674	responseLargeT	correct	n/a	0.49219	no	n/a	n/a
163.859375	n/a	41948	largeTSmallT	correct	congruent	0.48438	no	T	T
164.34375	n/a	42072	responseLargeT	correct	n/a	0.48438	no	n/a	n/a
165.4179688	n/a	42347	largeHSmallH	correct	congruent	0.47656	no	H	H
165.8945312	n/a	42469	responseLargeH	correct	n/a	0.47656	no	n/a	n/a
166.9648438	n/a	42743	largeHSmallH	correct	congruent	0.46875	no	H	H
167.4335938	n/a	42863	responseLargeH	correct	n/a	0.46875	no	n/a	n/a
168.5117188	n/a	43139	largeTSmallH	correct	incongruent	0.62109	no	T	H
169.1328125	n/a	43298	responseLargeT	correct	n/a	0.62109	no	n/a	n/a
170.203125	n/a	43572	largeTSmallT	correct	congruent	0.48047	no	T	T
170.6835938	n/a	43695	responseLargeT	correct	n/a	0.48047	no	n/a	n/a
171.75	n/a	43968	largeTSmallT	correct	congruent	0.46484	no	T	T
172.2148438	n/a	44087	responseLargeT	correct	n/a	0.46484	no	n/a	n/a
173.2851562	n/a	44361	largeHSmallH	correct	congruent	0.44141	no	H	H
173.7265625	n/a	44474	responseLargeH	correct	n/a	0.44141	no	n/a	n/a
174.7890625	n/a	44746	largeTSmallH	correct	incongruent	0.38672	no	T	H
175.1757812	n/a	44845	responseLargeT	correct	n/a	0.38672	no	n/a	n/a
176.2421875	n/a	45118	largeHSmallT	correct	incongruent	0.34766	no	H	T
176.5898438	n/a	45207	responseLargeH	correct	n/a	0.34766	no	n/a	n/a
177.65625	n/a	45480	largeHSmallH	correct	congruent	0.52734	no	H	H
178.1835938	n/a	45615	responseLargeH	correct	n/a	0.52734	no	n/a	n/a
179.2578125	n/a	45890	largeHSmallT	correct	incongruent	0.48438	no	H	T
179.7421875	n/a	46014	responseLargeH	correct	n/a	0.48438	no	n/a	n/a
180.8164062	n/a	46289	largeHSmallT	correct	incongruent	0.45312	no	H	T
181.2695312	n/a	46405	responseLargeH	correct	n/a	0.45312	no	n/a	n/a
182.3359375	n/a	46678	largeHSmallH	correct	congruent	0.37891	no	H	H
182.7148438	n/a	46775	responseLargeH	correct	n/a	0.37891	no	n/a	n/a
183.7890625	n/a	47050	largeTSmallH	correct	incongruent	0.47266	no	T	H
184.2617188	n/a	47171	responseLargeT	correct	n/a	0.47266	no	n/a	n/a
185.3359375	n/a	47446	largeHSmallT	correct	incongruent	0.41406	no	H	T
185.75	n/a	47552	responseLargeH	correct	n/a	0.41406	no	n/a	n/a
186.8164062	n/a	47825	largeTSmallT	correct	congruent	0.38672	no	T	T
187.203125	n/a	47924	responseLargeT	correct	n/a	0.38672	no	n/a	n/a
188.2695312	n/a	48197	largeTSmallT	error	congruent	0.35156	no	T	T
188.6210938	n/a	48287	responseLargeH	error	n/a	0.35156	no	n/a	n/a
189.6835938	n/a	48559	largeTSmallH	error	incongruent	0.41406	no	T	H
190.0976562	n/a	48665	responseLargeH	error	n/a	0.41406	no	n/a	n/a
191.1757812	n/a	48941	largeHSmallT	error	incongruent	0.41016	no	H	T
191.5859375	n/a	49046	responseLargeT	error	n/a	0.41016	no	n/a	n/a
192.65625	n/a	49320	largeTSmallT	correct	congruent	0.46094	no	T	T
193.1171875	n/a	49438	responseLargeT	correct	n/a	0.46094	no	n/a	n/a
194.1757812	n/a	49709	largeHSmallT	correct	incongruent	0.57422	no	H	T
194.75	n/a	49856	responseLargeH	correct	n/a	0.57422	no	n/a	n/a
195.8164062	n/a	50129	largeHSmallT	correct	incongruent	0.46094	no	H	T
196.2773438	n/a	50247	responseLargeH	correct	n/a	0.46094	no	n/a	n/a
197.3515625	n/a	50522	largeTSmallT	correct	congruent	0.39062	no	T	T
197.7421875	n/a	50622	responseLargeT	correct	n/a	0.39062	no	n/a	n/a
198.8164062	n/a	50897	largeHSmallH	correct	congruent	0.37891	no	H	H
199.1953125	n/a	50994	responseLargeH	correct	n/a	0.37891	no	n/a	n/a
200.2695312	n/a	51269	largeHSmallT	correct	incongruent	0.4375	no	H	T
200.7070312	n/a	51381	responseLargeH	correct	n/a	0.4375	no	n/a	n/a
201.7773438	n/a	51655	largeHSmallH	correct	congruent	0.43359	no	H	H
202.2109375	n/a	51766	responseLargeH	correct	n/a	0.43359	no	n/a	n/a
203.2695312	n/a	52037	largeTSmallT	correct	congruent	0.42578	no	T	T
203.6953125	n/a	52146	responseLargeT	correct	n/a	0.42578	no	n/a	n/a
204.7617188	n/a	52419	largeTSmallH	correct	incongruent	0.52734	no	T	H
205.2890625	n/a	52554	responseLargeT	correct	n/a	0.52734	no	n/a	n/a
206.3632812	n/a	52829	largeTSmallH	correct	incongruent	0.39844	no	T	H
206.7617188	n/a	52931	responseLargeT	correct	n/a	0.39844	no	n/a	n/a
207.828125	n/a	53204	largeTSmallT	correct	congruent	0.82422	no	T	T
208.6523438	n/a	53415	responseLargeT	correct	n/a	0.82422	no	n/a	n/a
209.7226562	n/a	53689	largeTSmallH	correct	incongruent	0.625	no	T	H
210.3476562	n/a	53849	responseLargeT	correct	n/a	0.625	no	n/a	n/a
211.4179688	n/a	54123	largeHSmallT	correct	incongruent	0.46484	no	H	T
211.8828125	n/a	54242	responseLargeH	correct	n/a	0.46484	no	n/a	n/a
212.9492188	n/a	54515	largeHSmallT	error	incongruent	0.44531	no	H	T
213.3945312	n/a	54629	responseLargeT	error	n/a	0.44531	no	n/a	n/a
214.4570312	n/a	54901	largeTSmallH	correct	incongruent	0.37109	no	T	H
214.828125	n/a	54996	responseLargeT	correct	n/a	0.37109	no	n/a	n/a
215.8945312	n/a	55269	largeTSmallH	correct	incongruent	0.47656	no	T	H
216.3710938	n/a	55391	responseLargeT	correct	n/a	0.47656	no	n/a	n/a
217.4414062	n/a	55665	largeHSmallH	correct	congruent	0.66016	no	H	H
218.1015625	n/a	55834	responseLargeH	correct	n/a	0.66016	no	n/a	n/a
219.1757812	n/a	56109	largeTSmallH	correct	incongruent	0.45312	no	T	H
219.6289062	n/a	56225	responseLargeT	correct	n/a	0.45312	no	n/a	n/a
220.6953125	n/a	56498	largeHSmallH	correct	congruent	0.37109	no	H	H
221.0664062	n/a	56593	responseLargeH	correct	n/a	0.37109	no	n/a	n/a
222.1367188	n/a	56867	largeTSmallH	correct	incongruent	0.375	no	T	H
222.5117188	n/a	56963	responseLargeT	correct	n/a	0.375	no	n/a	n/a
223.5898438	n/a	57239	largeTSmallT	correct	congruent	0.46875	no	T	T
224.0585938	n/a	57359	responseLargeT	correct	n/a	0.46875	no	n/a	n/a
225.1367188	n/a	57635	largeTSmallT	correct	congruent	0.39453	no	T	T
225.53125	n/a	57736	responseLargeT	correct	n/a	0.39453	no	n/a	n/a
226.6015625	n/a	58010	largeTSmallT	correct	congruent	0.37891	no	T	T
226.9804688	n/a	58107	responseLargeT	correct	n/a	0.37891	no	n/a	n/a
228.0429688	n/a	58379	largeHSmallT	correct	incongruent	0.45703	no	H	T
228.5	n/a	58496	responseLargeH	correct	n/a	0.45703	no	n/a	n/a
229.5625	n/a	58768	largeHSmallH	correct	congruent	0.5	no	H	H
230.0625	n/a	58896	responseLargeH	correct	n/a	0.5	no	n/a	n/a
231.1367188	n/a	59171	largeHSmallT	correct	incongruent	0.41797	no	H	T
231.5546875	n/a	59278	responseLargeH	correct	n/a	0.41797	no	n/a	n/a
232.6171875	n/a	59550	largeTSmallH	correct	incongruent	0.45703	no	T	H
233.0742188	n/a	59667	responseLargeT	correct	n/a	0.45703	no	n/a	n/a
234.1484375	n/a	59942	largeHSmallH	correct	congruent	0.40234	no	H	H
234.5507812	n/a	60045	responseLargeH	correct	n/a	0.40234	no	n/a	n/a
235.6171875	n/a	60318	largeHSmallH	correct	congruent	0.41016	no	H	H
236.0273438	n/a	60423	responseLargeH	correct	n/a	0.41016	no	n/a	n/a
237.0976562	n/a	60697	largeTSmallT	correct	congruent	0.34375	no	T	T
237.4414062	n/a	60785	responseLargeT	correct	n/a	0.34375	no	n/a	n/a
238.5078125	n/a	61058	largeHSmallH	correct	congruent	0.44141	no	H	H
238.9492188	n/a	61171	responseLargeH	correct	n/a	0.44141	no	n/a	n/a
240.015625	n/a	61444	largeTSmallT	correct	congruent	0.42188	no	T	T
240.4375	n/a	61552	responseLargeT	correct	n/a	0.42188	no	n/a	n/a
241.5078125	n/a	61826	largeHSmallT	correct	incongruent	0.37891	no	H	T
241.8867188	n/a	61923	responseLargeH	correct	n/a	0.37891	no	n/a	n/a
242.9609375	n/a	62198	largeTSmallH	correct	incongruent	0.44141	no	T	H
243.4023438	n/a	62311	responseLargeT	correct	n/a	0.44141	no	n/a	n/a
244.4804688	n/a	62587	largeHSmallT	correct	incongruent	0.47266	no	H	T
244.953125	n/a	62708	responseLargeH	correct	n/a	0.47266	no	n/a	n/a
246.015625	n/a	62980	largeTSmallT	correct	congruent	0.37891	no	T	T
246.3945312	n/a	63077	responseLargeT	correct	n/a	0.37891	no	n/a	n/a
247.46875	n/a	63352	largeTSmallT	correct	congruent	0.53125	no	T	T
248	n/a	63488	responseLargeT	correct	n/a	0.53125	no	n/a	n/a
249.0820312	n/a	63765	largeHSmallT	correct	incongruent	0.42578	no	H	T
249.5078125	n/a	63874	responseLargeH	correct	n/a	0.42578	no	n/a	n/a
250.5742188	n/a	64147	largeHSmallT	correct	incongruent	0.54688	no	H	T
251.1210938	n/a	64287	responseLargeH	correct	n/a	0.54688	no	n/a	n/a
252.203125	n/a	64564	largeTSmallH	correct	incongruent	0.40625	no	T	H
252.609375	n/a	64668	responseLargeT	correct	n/a	0.40625	no	n/a	n/a
253.6835938	n/a	64943	largeHSmallH	correct	congruent	0.33984	no	H	H
254.0234375	n/a	65030	responseLargeH	correct	n/a	0.33984	no	n/a	n/a
255.09375	n/a	65304	largeHSmallT	error	incongruent	0.3125	no	H	T
255.40625	n/a	65384	responseLargeT	error	n/a	0.3125	no	n/a	n/a
256.46875	n/a	65656	largeHSmallT	correct	incongruent	0.35938	no	H	T
256.828125	n/a	65748	responseLargeH	correct	n/a	0.35938	no	n/a	n/a
257.8945312	n/a	66021	largeTSmallH	correct	incongruent	0.375	no	T	H
258.2695312	n/a	66117	responseLargeT	correct	n/a	0.375	no	n/a	n/a
259.3359375	n/a	66390	largeTSmallH	correct	incongruent	0.67188	no	T	H
260.0078125	n/a	66562	responseLargeT	correct	n/a	0.67188	no	n/a	n/a
261.0703125	n/a	66834	largeHSmallT	correct	incongruent	0.40625	no	H	T
261.4765625	n/a	66938	responseLargeH	correct	n/a	0.40625	no	n/a	n/a
262.5351562	n/a	67209	largeTSmallH	correct	incongruent	0.39844	no	T	H
262.9335938	n/a	67311	responseLargeT	correct	n/a	0.39844	no	n/a	n/a
264.015625	n/a	67588	largeHSmallT	correct	incongruent	0.43359	no	H	T
264.4492188	n/a	67699	responseLargeH	correct	n/a	0.43359	no	n/a	n/a
265.5234375	n/a	67974	largeTSmallT	correct	congruent	0.41797	no	T	T
265.9414062	n/a	68081	responseLargeT	correct	n/a	0.41797	no	n/a	n/a
267.015625	n/a	68356	largeHSmallT	correct	incongruent	0.33203	no	H	T
267.3476562	n/a	68441	responseLargeH	correct	n/a	0.33203	no	n/a	n/a
268.4296875	n/a	68718	largeTSmallT	correct	congruent	0.42969	no	T	T
268.859375	n/a	68828	responseLargeT	correct	n/a	0.42969	no	n/a	n/a
269.9335938	n/a	69103	largeTSmallH	error	incongruent	0.37891	no	T	H
270.3125	n/a	69200	responseLargeH	error	n/a	0.37891	no	n/a	n/a
271.3867188	n/a	69475	largeTSmallT	correct	congruent	0.57031	no	T	T
271.9570312	n/a	69621	responseLargeT	correct	n/a	0.57031	no	n/a	n/a
273.0273438	n/a	69895	largeTSmallT	correct	congruent	0.42188	no	T	T
273.4492188	n/a	70003	responseLargeT	correct	n/a	0.42188	no	n/a	n/a
274.5234375	n/a	70278	largeTSmallT	correct	congruent	0.47266	no	T	T
274.9960938	n/a	70399	responseLargeT	correct	n/a	0.47266	no	n/a	n/a
276.0664062	n/a	70673	largeTSmallT	correct	congruent	0.39453	no	T	T
276.4609375	n/a	70774	responseLargeT	correct	n/a	0.39453	no	n/a	n/a
277.5351562	n/a	71049	largeTSmallT	correct	congruent	0.35156	no	T	T
277.8867188	n/a	71139	responseLargeT	correct	n/a	0.35156	no	n/a	n/a
278.9492188	n/a	71411	largeHSmallH	correct	congruent	0.47266	no	H	H
279.421875	n/a	71532	responseLargeH	correct	n/a	0.47266	no	n/a	n/a
280.4960938	n/a	71807	largeTSmallH	correct	incongruent	0.49609	no	T	H
280.9921875	n/a	71934	responseLargeT	correct	n/a	0.49609	no	n/a	n/a
282.0546875	n/a	72206	largeHSmallT	correct	incongruent	0.4375	no	H	T
282.4921875	n/a	72318	responseLargeH	correct	n/a	0.4375	no	n/a	n/a
283.5742188	n/a	72595	largeTSmallH	correct	incongruent	0.41016	no	T	H
283.984375	n/a	72700	responseLargeT	correct	n/a	0.41016	no	n/a	n/a
285.0546875	n/a	72974	largeTSmallT	correct	congruent	0.46094	no	T	T
285.515625	n/a	73092	responseLargeT	correct	n/a	0.46094	no	n/a	n/a
286.5742188	n/a	73363	largeHSmallT	correct	incongruent	0.46484	no	H	T
287.0390625	n/a	73482	responseLargeH	correct	n/a	0.46484	no	n/a	n/a
288.109375	n/a	73756	largeHSmallT	correct	incongruent	0.44531	no	H	T
288.5546875	n/a	73870	responseLargeH	correct	n/a	0.44531	no	n/a	n/a
289.6132812	n/a	74141	largeHSmallT	correct	incongruent	0.46875	no	H	T
290.0820312	n/a	74261	responseLargeH	correct	n/a	0.46875	no	n/a	n/a
291.1484375	n/a	74534	largeTSmallT	correct	congruent	0.46484	no	T	T
291.6132812	n/a	74653	responseLargeT	correct	n/a	0.46484	no	n/a	n/a
292.6796875	n/a	74926	largeTSmallT	correct	congruent	0.48828	no	T	T
293.1679688	n/a	75051	responseLargeT	correct	n/a	0.48828	no	n/a	n/a
294.2421875	n/a	75326	largeTSmallH	correct	incongruent	0.45312	no	T	H
294.6953125	n/a	75442	responseLargeT	correct	n/a	0.45312	no	n/a	n/a
295.7734375	n/a	75718	largeHSmallT	correct	incongruent	0.45312	no	H	T
296.2265625	n/a	75834	responseLargeH	correct	n/a	0.45312	no	n/a	n/a
297.2929688	n/a	76107	largeHSmallH	correct	congruent	0.44531	no	H	H
297.7382812	n/a	76221	responseLargeH	correct	n/a	0.44531	no	n/a	n/a
298.8125	n/a	76496	largeHSmallT	correct	incongruent	0.41016	no	H	T
299.2226562	n/a	76601	responseLargeH	correct	n/a	0.41016	no	n/a	n/a
300.2929688	n/a	76875	largeTSmallH	correct	incongruent	0.42578	no	T	H
300.71875	n/a	76984	responseLargeT	correct	n/a	0.42578	no	n/a	n/a
301.7890625	n/a	77258	largeHSmallH	correct	congruent	0.39844	no	H	H
302.1875	n/a	77360	responseLargeH	correct	n/a	0.39844	no	n/a	n/a
303.2539062	n/a	77633	largeTSmallH	correct	incongruent	0.34766	no	T	H
303.6015625	n/a	77722	responseLargeT	correct	n/a	0.34766	no	n/a	n/a
304.6796875	n/a	77998	largeHSmallT	correct	incongruent	0.43359	no	H	T
305.1132812	n/a	78109	responseLargeH	correct	n/a	0.43359	no	n/a	n/a
306.1875	n/a	78384	largeTSmallT	correct	congruent	0.48828	no	T	T
306.6757812	n/a	78509	responseLargeT	correct	n/a	0.48828	no	n/a	n/a
307.7460938	n/a	78783	largeTSmallH	error	incongruent	0.35156	no	T	H
308.0976562	n/a	78873	responseLargeH	error	n/a	0.35156	no	n/a	n/a
309.171875	n/a	79148	largeTSmallT	correct	congruent	0.39453	no	T	T
309.5664062	n/a	79249	responseLargeT	correct	n/a	0.39453	no	n/a	n/a
310.640625	n/a	79524	largeHSmallT	correct	incongruent	0.61719	no	H	T
311.2578125	n/a	79682	responseLargeH	correct	n/a	0.61719	no	n/a	n/a
312.3203125	n/a	79954	largeHSmallH	correct	congruent	0.53516	no	H	H
312.8554688	n/a	80091	responseLargeH	correct	n/a	0.53516	no	n/a	n/a
313.9335938	n/a	80367	largeTSmallT	correct	congruent	0.44531	no	T	T
314.3789062	n/a	80481	responseLargeT	correct	n/a	0.44531	no	n/a	n/a
315.453125	n/a	80756	largeHSmallH	correct	congruent	0.37891	no	H	H
315.8320312	n/a	80853	responseLargeH	correct	n/a	0.37891	no	n/a	n/a
316.90625	n/a	81128	largeHSmallT	correct	incongruent	0.48047	no	H	T
317.3867188	n/a	81251	responseLargeH	correct	n/a	0.48047	no	n/a	n/a
318.46875	n/a	81528	largeTSmallH	correct	incongruent	0.35938	no	T	H
318.828125	n/a	81620	responseLargeT	correct	n/a	0.35938	no	n/a	n/a
319.90625	n/a	81896	largeTSmallH	correct	incongruent	0.54688	no	T	H
320.453125	n/a	82036	responseLargeT	correct	n/a	0.54688	no	n/a	n/a
321.5195312	n/a	82309	largeTSmallT	correct	congruent	0.47656	no	T	T
321.9960938	n/a	82431	responseLargeT	correct	n/a	0.47656	no	n/a	n/a
323.0664062	n/a	82705	largeTSmallH	correct	incongruent	0.54297	no	T	H
323.609375	n/a	82844	responseLargeT	correct	n/a	0.54297	no	n/a	n/a
324.6796875	n/a	83118	largeHSmallT	correct	incongruent	0.48438	no	H	T
325.1640625	n/a	83242	responseLargeH	correct	n/a	0.48438	no	n/a	n/a
326.2382812	n/a	83517	largeHSmallT	correct	incongruent	0.46875	no	H	T
326.7070312	n/a	83637	responseLargeH	correct	n/a	0.46875	no	n/a	n/a
327.7734375	n/a	83910	largeTSmallT	correct	congruent	0.43359	no	T	T
328.2070312	n/a	84021	responseLargeT	correct	n/a	0.43359	no	n/a	n/a
329.28125	n/a	84296	largeTSmallT	correct	congruent	0.44531	no	T	T
329.7265625	n/a	84410	responseLargeT	correct	n/a	0.44531	no	n/a	n/a
335.078125	n/a	85780	largeTSmallT	correct	congruent	0.52344	no	T	T
335.6015625	n/a	85914	responseSmallT	correct	n/a	0.52344	no	n/a	n/a
336.6679688	n/a	86187	largeHSmallT	correct	incongruent	0.45312	no	H	T
337.1210938	n/a	86303	responseSmallT	correct	n/a	0.45312	no	n/a	n/a
338.1875	n/a	86576	largeTSmallH	correct	incongruent	0.44531	no	T	H
338.6328125	n/a	86690	responseSmallH	correct	n/a	0.44531	no	n/a	n/a
339.6914062	n/a	86961	largeHSmallT	correct	incongruent	0.47266	no	H	T
340.1640625	n/a	87082	responseSmallT	correct	n/a	0.47266	no	n/a	n/a
341.2382812	n/a	87357	largeTSmallH	correct	incongruent	0.34375	no	T	H
341.5820312	n/a	87445	responseSmallH	correct	n/a	0.34375	no	n/a	n/a
342.640625	n/a	87716	largeTSmallT	correct	congruent	0.375	no	T	T
343.015625	n/a	87812	responseSmallT	correct	n/a	0.375	no	n/a	n/a
344.078125	n/a	88084	largeTSmallT	correct	congruent	0.47656	no	T	T
344.5546875	n/a	88206	responseSmallT	correct	n/a	0.47656	no	n/a	n/a
345.625	n/a	88480	largeHSmallH	correct	congruent	0.40625	no	H	H
346.03125	n/a	88584	responseSmallH	correct	n/a	0.40625	no	n/a	n/a
347.1054688	n/a	88859	largeTSmallH	error	incongruent	0.33203	no	T	H
347.4375	n/a	88944	responseSmallT	error	n/a	0.33203	no	n/a	n/a
348.5078125	n/a	89218	largeTSmallH	correct	incongruent	0.4375	no	T	H
348.9453125	n/a	89330	responseSmallH	correct	n/a	0.4375	no	n/a	n/a
350.0117188	n/a	89603	largeHSmallH	correct	congruent	0.44141	no	H	H
350.453125	n/a	89716	responseSmallH	correct	n/a	0.44141	no	n/a	n/a
351.5195312	n/a	89989	largeTSmallT	correct	congruent	0.43359	no	T	T
351.953125	n/a	90100	responseSmallT	correct	n/a	0.43359	no	n/a	n/a
353.0273438	n/a	90375	largeTSmallH	correct	incongruent	0.41016	no	T	H
353.4375	n/a	90480	responseSmallH	correct	n/a	0.41016	no	n/a	n/a
354.5078125	n/a	90754	largeTSmallH	correct	incongruent	0.42188	no	T	H
354.9296875	n/a	90862	responseSmallH	correct	n/a	0.42188	no	n/a	n/a
356	n/a	91136	largeTSmallH	correct	incongruent	0.42969	no	T	H
356.4296875	n/a	91246	responseSmallH	correct	n/a	0.42969	no	n/a	n/a
357.5078125	n/a	91522	largeHSmallH	correct	congruent	0.49609	no	H	H
358.0039062	n/a	91649	responseSmallH	correct	n/a	0.49609	no	n/a	n/a
359.078125	n/a	91924	largeHSmallH	correct	congruent	0.44141	no	H	H
359.5195312	n/a	92037	responseSmallH	correct	n/a	0.44141	no	n/a	n/a
360.5859375	n/a	92310	largeHSmallH	correct	congruent	0.39844	no	H	H
360.984375	n/a	92412	responseSmallH	correct	n/a	0.39844	no	n/a	n/a
362.0507812	n/a	92685	largeHSmallH	correct	congruent	0.35938	no	H	H
362.4101562	n/a	92777	responseSmallH	correct	n/a	0.35938	no	n/a	n/a
363.4921875	n/a	93054	largeHSmallT	error	incongruent	0.40234	no	H	T
363.8945312	n/a	93157	responseSmallH	error	n/a	0.40234	no	n/a	n/a
364.9726562	n/a	93433	largeHSmallT	correct	incongruent	0.47656	no	H	T
365.4492188	n/a	93555	responseSmallT	correct	n/a	0.47656	no	n/a	n/a
366.5195312	n/a	93829	largeHSmallH	correct	congruent	0.45312	no	H	H
366.9726562	n/a	93945	responseSmallH	correct	n/a	0.45312	no	n/a	n/a
368.0390625	n/a	94218	largeHSmallT	correct	incongruent	0.39844	no	H	T
368.4375	n/a	94320	responseSmallT	correct	n/a	0.39844	no	n/a	n/a
369.5039062	n/a	94593	largeHSmallT	correct	incongruent	0.48828	no	H	T
369.9921875	n/a	94718	responseSmallT	correct	n/a	0.48828	no	n/a	n/a
371.0507812	n/a	94989	largeTSmallT	error	congruent	0.46875	no	T	T
371.5195312	n/a	95109	responseSmallH	error	n/a	0.46875	no	n/a	n/a
372.5859375	n/a	95382	largeHSmallH	correct	congruent	0.44531	no	H	H
373.03125	n/a	95496	responseSmallH	correct	n/a	0.44531	no	n/a	n/a
374.09375	n/a	95768	largeTSmallH	correct	incongruent	0.46484	no	T	H
374.5585938	n/a	95887	responseSmallH	correct	n/a	0.46484	no	n/a	n/a
375.625	n/a	96160	largeTSmallT	correct	congruent	0.58203	no	T	T
376.2070312	n/a	96309	responseSmallT	correct	n/a	0.58203	no	n/a	n/a
377.2773438	n/a	96583	largeTSmallT	correct	congruent	0.46094	no	T	T
377.7382812	n/a	96701	responseSmallT	correct	n/a	0.46094	no	n/a	n/a
378.8125	n/a	96976	largeHSmallT	correct	incongruent	0.48828	no	H	T
379.3007812	n/a	97101	responseSmallT	correct	n/a	0.48828	no	n/a	n/a
380.3710938	n/a	97375	largeHSmallH	correct	congruent	0.45703	no	H	H
380.828125	n/a	97492	responseSmallH	correct	n/a	0.45703	no	n/a	n/a
381.890625	n/a	97764	largeHSmallH	correct	congruent	0.53906	no	H	H
382.4296875	n/a	97902	responseSmallH	correct	n/a	0.53906	no	n/a	n/a
383.5039062	n/a	98177	largeTSmallT	correct	congruent	0.48047	no	T	T
383.984375	n/a	98300	responseSmallT	correct	n/a	0.48047	no	n/a	n/a
385.0507812	n/a	98573	largeTSmallT	correct	congruent	0.48438	no	T	T
385.5351562	n/a	98697	responseSmallT	correct	n/a	0.48438	no	n/a	n/a
386.6132812	n/a	98973	largeTSmallH	correct	incongruent	0.5625	no	T	H
387.1757812	n/a	99117	responseSmallH	correct	n/a	0.5625	no	n/a	n/a
388.25	n/a	99392	largeTSmallT	correct	congruent	0.44922	no	T	T
388.6992188	n/a	99507	responseSmallT	correct	n/a	0.44922	no	n/a	n/a
389.7734375	n/a	99782	largeTSmallH	correct	incongruent	0.48047	no	T	H
390.2539062	n/a	99905	responseSmallH	correct	n/a	0.48047	no	n/a	n/a
391.3203125	n/a	100178	largeTSmallT	correct	congruent	0.42188	no	T	T
391.7421875	n/a	100286	responseSmallT	correct	n/a	0.42188	no	n/a	n/a
392.8125	n/a	100560	largeHSmallH	correct	congruent	0.41016	no	H	H
393.2226562	n/a	100665	responseSmallH	correct	n/a	0.41016	no	n/a	n/a
394.3046875	n/a	100942	largeTSmallT	correct	congruent	0.38281	no	T	T
394.6875	n/a	101040	responseSmallT	correct	n/a	0.38281	no	n/a	n/a
395.7734375	n/a	101318	largeHSmallT	correct	incongruent	0.5	no	H	T
396.2734375	n/a	101446	responseSmallT	correct	n/a	0.5	no	n/a	n/a
397.34375	n/a	101720	largeTSmallT	correct	congruent	0.47266	no	T	T
397.8164062	n/a	101841	responseSmallT	correct	n/a	0.47266	no	n/a	n/a
398.890625	n/a	102116	largeHSmallH	correct	congruent	0.45312	no	H	H
399.34375	n/a	102232	responseSmallH	correct	n/a	0.45312	no	n/a	n/a
400.4101562	n/a	102505	largeHSmallH	correct	congruent	0.46094	no	H	H
400.8710938	n/a	102623	responseSmallH	correct	n/a	0.46094	no	n/a	n/a
401.9453125	n/a	102898	largeTSmallH	correct	incongruent	0.67969	no	T	H
402.625	n/a	103072	responseSmallH	correct	n/a	0.67969	no	n/a	n/a
403.703125	n/a	103348	largeTSmallH	correct	incongruent	0.59766	no	T	H
404.3007812	n/a	103501	responseSmallH	correct	n/a	0.59766	no	n/a	n/a
405.3710938	n/a	103775	largeTSmallT	correct	congruent	0.48828	no	T	T
405.859375	n/a	103900	responseSmallT	correct	n/a	0.48828	no	n/a	n/a
406.9296875	n/a	104174	largeHSmallH	correct	congruent	0.4375	no	H	H
407.3671875	n/a	104286	responseSmallH	correct	n/a	0.4375	no	n/a	n/a
408.4375	n/a	104560	largeTSmallT	correct	congruent	0.39844	no	T	T
408.8359375	n/a	104662	responseSmallT	correct	n/a	0.39844	no	n/a	n/a
409.90625	n/a	104936	largeHSmallT	correct	incongruent	0.51562	no	H	T
410.421875	n/a	105068	responseSmallT	correct	n/a	0.51562	no	n/a	n/a
411.4921875	n/a	105342	largeHSmallT	correct	incongruent	0.57422	no	H	T
412.0664062	n/a	105489	responseSmallT	correct	n/a	0.57422	no	n/a	n/a
413.1328125	n/a	105762	largeHSmallH	correct	congruent	0.44141	no	H	H
413.5742188	n/a	105875	responseSmallH	correct	n/a	0.44141	no	n/a	n/a
414.6367188	n/a	106147	largeHSmallH	correct	congruent	0.46094	no	H	H
415.0976562	n/a	106265	responseSmallH	correct	n/a	0.46094	no	n/a	n/a
416.171875	n/a	106540	largeTSmallT	correct	congruent	0.49219	no	T	T
416.6640625	n/a	106666	responseSmallT	correct	n/a	0.49219	no	n/a	n/a
417.7304688	n/a	106939	largeHSmallT	correct	incongruent	0.56641	no	H	T
418.296875	n/a	107084	responseSmallT	correct	n/a	0.56641	no	n/a	n/a
419.3710938	n/a	107359	largeHSmallH	correct	congruent	0.48438	no	H	H
419.8554688	n/a	107483	responseSmallH	correct	n/a	0.48438	no	n/a	n/a
420.9296875	n/a	107758	largeHSmallT	correct	incongruent	0.45312	no	H	T
421.3828125	n/a	107874	responseSmallT	correct	n/a	0.45312	no	n/a	n/a
422.4492188	n/a	108147	largeHSmallT	correct	incongruent	0.44922	no	H	T
422.8984375	n/a	108262	responseSmallT	correct	n/a	0.44922	no	n/a	n/a
423.9726562	n/a	108537	largeHSmallT	correct	incongruent	0.43359	no	H	T
424.40625	n/a	108648	responseSmallT	correct	n/a	0.43359	no	n/a	n/a
425.4765625	n/a	108922	largeTSmallH	correct	incongruent	0.44922	no	T	H
425.9257812	n/a	109037	responseSmallH	correct	n/a	0.44922	no	n/a	n/a
426.9960938	n/a	109311	largeTSmallH	correct	incongruent	0.46875	no	T	H
427.4648438	n/a	109431	responseSmallH	correct	n/a	0.46875	no	n/a	n/a
428.5429688	n/a	109707	largeTSmallT	correct	congruent	0.47656	no	T	T
429.0195312	n/a	109829	responseSmallT	correct	n/a	0.47656	no	n/a	n/a
430.0898438	n/a	110103	largeTSmallH	correct	incongruent	0.38281	no	T	H
430.4726562	n/a	110201	responseSmallH	correct	n/a	0.38281	no	n/a	n/a
431.5429688	n/a	110475	largeHSmallH	correct	congruent	0.45312	no	H	H
431.9960938	n/a	110591	responseSmallH	correct	n/a	0.45312	no	n/a	n/a
433.0625	n/a	110864	largeTSmallT	correct	congruent	0.47656	no	T	T
433.5390625	n/a	110986	responseSmallT	correct	n/a	0.47656	no	n/a	n/a
434.609375	n/a	111260	largeHSmallT	error	incongruent	0.51172	no	H	T
435.1210938	n/a	111391	responseSmallH	error	n/a	0.51172	no	n/a	n/a
436.1835938	n/a	111663	largeTSmallT	correct	congruent	0.54297	no	T	T
436.7265625	n/a	111802	responseSmallT	correct	n/a	0.54297	no	n/a	n/a
437.796875	n/a	112076	largeHSmallH	correct	congruent	0.41016	no	H	H
438.2070312	n/a	112181	responseSmallH	correct	n/a	0.41016	no	n/a	n/a
439.2773438	n/a	112455	largeTSmallT	correct	congruent	0.42969	no	T	T
439.7070312	n/a	112565	responseSmallT	correct	n/a	0.42969	no	n/a	n/a
440.7695312	n/a	112837	largeTSmallT	correct	congruent	0.46094	no	T	T
441.2304688	n/a	112955	responseSmallT	correct	n/a	0.46094	no	n/a	n/a
442.3046875	n/a	113230	largeHSmallH	correct	congruent	0.48438	no	H	H
442.7890625	n/a	113354	responseSmallH	correct	n/a	0.48438	no	n/a	n/a
443.8632812	n/a	113629	largeHSmallT	correct	incongruent	0.40234	no	H	T
444.265625	n/a	113732	responseSmallT	correct	n/a	0.40234	no	n/a	n/a
445.34375	n/a	114008	largeHSmallT	correct	incongruent	0.46875	no	H	T
445.8125	n/a	114128	responseSmallT	correct	n/a	0.46875	no	n/a	n/a
446.890625	n/a	114404	largeHSmallH	correct	congruent	0.53125	no	H	H
447.421875	n/a	114540	responseSmallH	correct	n/a	0.53125	no	n/a	n/a
448.4921875	n/a	114814	largeTSmallH	correct	incongruent	0.44922	no	T	H
448.9414062	n/a	114929	responseSmallH	correct	n/a	0.44922	no	n/a	n/a
450.0117188	n/a	115203	largeTSmallH	correct	incongruent	0.41016	no	T	H
450.421875	n/a	115308	responseSmallH	correct	n/a	0.41016	no	n/a	n/a
451.4882812	n/a	115581	largeHSmallH	correct	congruent	0.46484	no	H	H
451.953125	n/a	115700	responseSmallH	correct	n/a	0.46484	no	n/a	n/a
453.0234375	n/a	115974	largeHSmallH	correct	congruent	0.48438	no	H	H
453.5078125	n/a	116098	responseSmallH	correct	n/a	0.48438	no	n/a	n/a
454.5820312	n/a	116373	largeHSmallH	correct	congruent	0.44922	no	H	H
455.03125	n/a	116488	responseSmallH	correct	n/a	0.44922	no	n/a	n/a
456.1015625	n/a	116762	largeHSmallH	correct	congruent	0.41797	no	H	H
456.5195312	n/a	116869	responseSmallH	correct	n/a	0.41797	no	n/a	n/a
457.5820312	n/a	117141	largeTSmallH	correct	incongruent	0.37891	no	T	H
457.9609375	n/a	117238	responseSmallH	correct	n/a	0.37891	no	n/a	n/a
459.0234375	n/a	117510	largeTSmallH	correct	incongruent	0.38672	no	T	H
459.4101562	n/a	117609	responseSmallH	correct	n/a	0.38672	no	n/a	n/a
460.4765625	n/a	117882	largeTSmallH	correct	incongruent	0.36328	no	T	H
460.8398438	n/a	117975	responseSmallH	correct	n/a	0.36328	no	n/a	n/a
461.9023438	n/a	118247	largeTSmallT	correct	congruent	0.40234	no	T	T
462.3046875	n/a	118350	responseSmallT	correct	n/a	0.40234	no	n/a	n/a
463.3710938	n/a	118623	largeTSmallH	correct	incongruent	0.54688	no	T	H
463.9179688	n/a	118763	responseSmallH	correct	n/a	0.54688	no	n/a	n/a
464.984375	n/a	119036	largeTSmallT	correct	congruent	0.43359	no	T	T
465.4179688	n/a	119147	responseSmallT	correct	n/a	0.43359	no	n/a	n/a
466.4882812	n/a	119421	largeTSmallH	correct	incongruent	0.49219	no	T	H
466.9804688	n/a	119547	responseSmallH	correct	n/a	0.49219	no	n/a	n/a
468.0507812	n/a	119821	largeHSmallH	correct	congruent	0.46094	no	H	H
468.5117188	n/a	119939	responseSmallH	correct	n/a	0.46094	no	n/a	n/a
469.5820312	n/a	120213	largeTSmallT	correct	congruent	0.44922	no	T	T
470.03125	n/a	120328	responseSmallT	correct	n/a	0.44922	no	n/a	n/a
471.1015625	n/a	120602	largeHSmallT	correct	incongruent	0.5	no	H	T
471.6015625	n/a	120730	responseSmallT	correct	n/a	0.5	no	n/a	n/a
472.6757812	n/a	121005	largeTSmallH	correct	incongruent	0.47266	no	T	H
473.1484375	n/a	121126	responseSmallH	correct	n/a	0.47266	no	n/a	n/a
474.2226562	n/a	121401	largeTSmallT	correct	congruent	0.39453	no	T	T
474.6171875	n/a	121502	responseSmallT	correct	n/a	0.39453	no	n/a	n/a
475.6914062	n/a	121777	largeTSmallH	correct	incongruent	0.375	no	T	H
476.0664062	n/a	121873	responseSmallH	correct	n/a	0.375	no	n/a	n/a
477.1289062	n/a	122145	largeTSmallT	correct	congruent	0.35938	no	T	T
477.4882812	n/a	122237	responseSmallT	correct	n/a	0.35938	no	n/a	n/a
478.5546875	n/a	122510	largeHSmallT	correct	incongruent	0.5	no	H	T
479.0546875	n/a	122638	responseSmallT	correct	n/a	0.5	no	n/a	n/a
480.1289062	n/a	122913	largeTSmallH	correct	incongruent	0.38281	no	T	H
480.5117188	n/a	123011	responseSmallH	correct	n/a	0.38281	no	n/a	n/a
481.5820312	n/a	123285	largeTSmallT	correct	congruent	0.39062	no	T	T
481.9726562	n/a	123385	responseSmallT	correct	n/a	0.39062	no	n/a	n/a
483.0507812	n/a	123661	largeTSmallH	correct	incongruent	0.40625	no	T	H
483.4570312	n/a	123765	responseSmallH	correct	n/a	0.40625	no	n/a	n/a
484.53125	n/a	124040	largeHSmallT	correct	incongruent	0.47266	no	H	T
485.0039062	n/a	124161	responseSmallT	correct	n/a	0.47266	no	n/a	n/a
486.0742188	n/a	124435	largeTSmallH	correct	incongruent	0.36719	no	T	H
486.4414062	n/a	124529	responseSmallH	correct	n/a	0.36719	no	n/a	n/a
487.5039062	n/a	124801	largeTSmallH	error	incongruent	0.37109	no	T	H
487.875	n/a	124896	responseSmallT	error	n/a	0.37109	no	n/a	n/a
488.9414062	n/a	125169	largeTSmallT	correct	congruent	0.39844	no	T	T
489.3398438	n/a	125271	responseSmallT	correct	n/a	0.39844	no	n/a	n/a
490.4101562	n/a	125545	largeHSmallT	correct	incongruent	0.51953	no	H	T
490.9296875	n/a	125678	responseSmallT	correct	n/a	0.51953	no	n/a	n/a
492.0078125	n/a	125954	largeTSmallT	correct	congruent	0.46875	no	T	T
492.4765625	n/a	126074	responseSmallT	correct	n/a	0.46875	no	n/a	n/a
493.5429688	n/a	126347	largeHSmallT	error	incongruent	0.42969	no	H	T
493.9726562	n/a	126457	responseSmallH	error	n/a	0.42969	no	n/a	n/a
495.0507812	n/a	126733	largeHSmallT	correct	incongruent	0.5	no	H	T
495.5507812	n/a	126861	responseSmallT	correct	n/a	0.5	no	n/a	n/a
496.6210938	n/a	127135	largeTSmallT	correct	congruent	0.46094	no	T	T
497.0820312	n/a	127253	responseSmallT	correct	n/a	0.46094	no	n/a	n/a
498.140625	n/a	127524	largeTSmallH	correct	incongruent	0.44531	no	T	H
498.5859375	n/a	127638	responseSmallH	correct	n/a	0.44531	no	n/a	n/a
499.6640625	n/a	127914	largeHSmallH	error	congruent	0.42578	no	H	H
500.0898438	n/a	128023	responseSmallT	error	n/a	0.42578	no	n/a	n/a
501.15625	n/a	128296	largeHSmallH	correct	congruent	0.46094	no	H	H
501.6171875	n/a	128414	responseSmallH	correct	n/a	0.46094	no	n/a	n/a
502.6875	n/a	128688	largeTSmallT	correct	congruent	0.44141	no	T	T
503.1289062	n/a	128801	responseSmallT	correct	n/a	0.44141	no	n/a	n/a
504.1953125	n/a	129074	largeHSmallH	correct	congruent	0.38672	no	H	H
504.5820312	n/a	129173	responseSmallH	correct	n/a	0.38672	no	n/a	n/a
505.6484375	n/a	129446	largeTSmallH	correct	incongruent	0.46094	no	T	H
506.109375	n/a	129564	responseSmallH	correct	n/a	0.46094	no	n/a	n/a
507.1835938	n/a	129839	largeTSmallT	correct	congruent	0.51172	no	T	T
507.6953125	n/a	129970	responseSmallT	correct	n/a	0.51172	no	n/a	n/a
508.7695312	n/a	130245	largeHSmallT	correct	incongruent	0.44141	no	H	T
509.2109375	n/a	130358	responseSmallT	correct	n/a	0.44141	no	n/a	n/a
510.2890625	n/a	130634	largeHSmallH	correct	congruent	0.46484	no	H	H
510.7539062	n/a	130753	responseSmallH	correct	n/a	0.46484	no	n/a	n/a
511.8359375	n/a	131030	largeHSmallH	correct	congruent	0.52344	no	H	H
512.359375	n/a	131164	responseSmallH	correct	n/a	0.52344	no	n/a	n/a
513.4335938	n/a	131439	largeHSmallT	correct	incongruent	0.44922	no	H	T
513.8828125	n/a	131554	responseSmallT	correct	n/a	0.44922	no	n/a	n/a
514.9414062	n/a	131825	largeHSmallH	correct	congruent	0.67578	no	H	H
515.6171875	n/a	131998	responseSmallH	correct	n/a	0.67578	no	n/a	n/a
516.6757812	n/a	132269	largeHSmallH	correct	congruent	0.48438	no	H	H
517.1601562	n/a	132393	responseSmallH	correct	n/a	0.48438	no	n/a	n/a
518.2226562	n/a	132665	largeTSmallH	correct	incongruent	0.42578	no	T	H
518.6484375	n/a	132774	responseSmallH	correct	n/a	0.42578	no	n/a	n/a
519.7304688	n/a	133051	largeTSmallH	correct	incongruent	0.36328	no	T	H
520.09375	n/a	133144	responseSmallH	correct	n/a	0.36328	no	n/a	n/a
521.15625	n/a	133416	largeHSmallH	correct	congruent	0.39062	no	H	H
521.546875	n/a	133516	responseSmallH	correct	n/a	0.39062	no	n/a	n/a
522.609375	n/a	133788	largeHSmallT	correct	incongruent	0.45312	no	H	T
523.0625	n/a	133904	responseSmallT	correct	n/a	0.45312	no	n/a	n/a
524.140625	n/a	134180	largeHSmallH	correct	congruent	0.44141	no	H	H
524.5820312	n/a	134293	responseSmallH	correct	n/a	0.44141	no	n/a	n/a
525.6484375	n/a	134566	largeHSmallT	correct	incongruent	0.54297	no	H	T
526.1914062	n/a	134705	responseSmallT	correct	n/a	0.54297	no	n/a	n/a
527.2617188	n/a	134979	largeTSmallH	correct	incongruent	0.41016	no	T	H
527.671875	n/a	135084	responseSmallH	correct	n/a	0.41016	no	n/a	n/a
528.7421875	n/a	135358	largeHSmallH	correct	congruent	0.50391	no	H	H
529.2460938	n/a	135487	responseSmallH	correct	n/a	0.50391	no	n/a	n/a
530.3164062	n/a	135761	largeTSmallH	correct	incongruent	0.48047	no	T	H
530.796875	n/a	135884	responseSmallH	correct	n/a	0.48047	no	n/a	n/a
531.875	n/a	136160	largeHSmallH	correct	congruent	0.60938	no	H	H
532.484375	n/a	136316	responseSmallH	correct	n/a	0.60938	no	n/a	n/a
533.5546875	n/a	136590	largeHSmallH	correct	congruent	0.35547	no	H	H
533.9101562	n/a	136681	responseSmallH	correct	n/a	0.35547	no	n/a	n/a
534.9804688	n/a	136955	largeTSmallH	correct	incongruent	0.4375	no	T	H
535.4179688	n/a	137067	responseSmallH	correct	n/a	0.4375	no	n/a	n/a
536.4882812	n/a	137341	largeTSmallT	correct	congruent	0.53516	no	T	T
537.0234375	n/a	137478	responseSmallT	correct	n/a	0.53516	no	n/a	n/a
538.1015625	n/a	137754	largeHSmallH	correct	congruent	0.47266	no	H	H
538.5742188	n/a	137875	responseSmallH	correct	n/a	0.47266	no	n/a	n/a
539.6484375	n/a	138150	largeTSmallH	correct	incongruent	0.39844	no	T	H
540.046875	n/a	138252	responseSmallH	correct	n/a	0.39844	no	n/a	n/a
541.1289062	n/a	138529	largeHSmallH	correct	congruent	0.42188	no	H	H
541.5507812	n/a	138637	responseSmallH	correct	n/a	0.42188	no	n/a	n/a
542.6210938	n/a	138911	largeTSmallT	correct	congruent	0.46484	no	T	T
543.0859375	n/a	139030	responseSmallT	correct	n/a	0.46484	no	n/a	n/a
544.15625	n/a	139304	largeTSmallT	correct	congruent	0.45312	no	T	T
544.609375	n/a	139420	responseSmallT	correct	n/a	0.45312	no	n/a	n/a
545.6757812	n/a	139693	largeHSmallT	correct	incongruent	0.62109	no	H	T
546.296875	n/a	139852	responseSmallT	correct	n/a	0.62109	no	n/a	n/a
547.3671875	n/a	140126	largeHSmallT	correct	incongruent	0.40625	no	H	T
547.7734375	n/a	140230	responseSmallT	correct	n/a	0.40625	no	n/a	n/a
548.8476562	n/a	140505	largeHSmallH	correct	congruent	0.44531	no	H	H
549.2929688	n/a	140619	responseSmallH	correct	n/a	0.44531	no	n/a	n/a
550.3671875	n/a	140894	largeHSmallH	correct	congruent	0.39453	no	H	H
550.7617188	n/a	140995	responseSmallH	correct	n/a	0.39453	no	n/a	n/a
551.8359375	n/a	141270	largeTSmallH	correct	incongruent	0.41406	no	T	H
552.25	n/a	141376	responseSmallH	correct	n/a	0.41406	no	n/a	n/a
553.328125	n/a	141652	largeHSmallT	error	incongruent	0.35938	no	H	T
553.6875	n/a	141744	responseSmallH	error	n/a	0.35938	no	n/a	n/a
554.765625	n/a	142020	largeHSmallT	correct	incongruent	0.53125	no	H	T
555.296875	n/a	142156	responseSmallT	correct	n/a	0.53125	no	n/a	n/a
556.3671875	n/a	142430	largeTSmallT	correct	congruent	0.50781	no	T	T
556.875	n/a	142560	responseSmallT	correct	n/a	0.50781	no	n/a	n/a
557.9414062	n/a	142833	largeHSmallH	correct	congruent	0.41016	no	H	H
558.3515625	n/a	142938	responseSmallH	correct	n/a	0.41016	no	n/a	n/a
559.421875	n/a	143212	largeHSmallT	correct	incongruent	0.42188	no	H	T
559.84375	n/a	143320	responseSmallT	correct	n/a	0.42188	no	n/a	n/a
560.9257812	n/a	143597	largeTSmallT	correct	congruent	0.46094	no	T	T
561.3867188	n/a	143715	responseSmallT	correct	n/a	0.46094	no	n/a	n/a
562.4453125	n/a	143986	largeHSmallT	correct	incongruent	0.41406	no	H	T
562.859375	n/a	144092	responseSmallT	correct	n/a	0.41406	no	n/a	n/a
563.9414062	n/a	144369	largeTSmallH	correct	incongruent	0.44141	no	T	H
564.3828125	n/a	144482	responseSmallH	correct	n/a	0.44141	no	n/a	n/a
565.4492188	n/a	144755	largeTSmallH	correct	incongruent	0.39844	no	T	H
565.8476562	n/a	144857	responseSmallH	correct	n/a	0.39844	no	n/a	n/a
566.9140625	n/a	145130	largeTSmallH	correct	incongruent	0.46875	no	T	H
567.3828125	n/a	145250	responseSmallH	correct	n/a	0.46875	no	n/a	n/a
568.4609375	n/a	145526	largeHSmallT	correct	incongruent	0.42188	no	H	T
568.8828125	n/a	145634	responseSmallT	correct	n/a	0.42188	no	n/a	n/a
569.953125	n/a	145908	largeHSmallT	correct	incongruent	0.53125	no	H	T
570.484375	n/a	146044	responseSmallT	correct	n/a	0.53125	no	n/a	n/a
571.5390625	n/a	146314	largeTSmallT	correct	congruent	0.48828	no	T	T
572.0273438	n/a	146439	responseSmallT	correct	n/a	0.48828	no	n/a	n/a
573.1015625	n/a	146714	largeTSmallH	error	incongruent	0.37891	no	T	H
573.4804688	n/a	146811	responseSmallT	error	n/a	0.37891	no	n/a	n/a
574.5546875	n/a	147086	largeTSmallT	correct	congruent	0.38281	no	T	T
574.9375	n/a	147184	responseSmallT	correct	n/a	0.38281	no	n/a	n/a
576.0078125	n/a	147458	largeTSmallH	correct	incongruent	0.39844	no	T	H
576.40625	n/a	147560	responseSmallH	correct	n/a	0.39844	no	n/a	n/a
577.4726562	n/a	147833	largeTSmallH	correct	incongruent	0.58203	no	T	H
578.0546875	n/a	147982	responseSmallH	correct	n/a	0.58203	no	n/a	n/a
579.125	n/a	148256	largeTSmallH	correct	incongruent	0.48828	no	T	H
579.6132812	n/a	148381	responseSmallH	correct	n/a	0.48828	no	n/a	n/a
580.6875	n/a	148656	largeTSmallT	error	congruent	0.41016	no	T	T
581.0976562	n/a	148761	responseSmallH	error	n/a	0.41016	no	n/a	n/a
582.1679688	n/a	149035	largeTSmallH	correct	incongruent	0.35156	no	T	H
582.5195312	n/a	149125	responseSmallH	correct	n/a	0.35156	no	n/a	n/a
583.59375	n/a	149400	largeHSmallT	correct	incongruent	0.375	no	H	T
583.96875	n/a	149496	responseSmallT	correct	n/a	0.375	no	n/a	n/a
585.046875	n/a	149772	largeHSmallH	correct	congruent	0.38281	no	H	H
585.4296875	n/a	149870	responseSmallH	correct	n/a	0.38281	no	n/a	n/a
586.4882812	n/a	150141	largeHSmallT	correct	incongruent	0.38281	no	H	T
586.8710938	n/a	150239	responseSmallT	correct	n/a	0.38281	no	n/a	n/a
587.9414062	n/a	150513	largeHSmallH	correct	congruent	0.35156	no	H	H
588.2929688	n/a	150603	responseSmallH	correct	n/a	0.35156	no	n/a	n/a
589.3671875	n/a	150878	largeHSmallT	correct	incongruent	0.35938	no	H	T
589.7265625	n/a	150970	responseSmallT	correct	n/a	0.35938	no	n/a	n/a
590.7929688	n/a	151243	largeTSmallH	correct	incongruent	0.39453	no	T	H
591.1875	n/a	151344	responseSmallH	correct	n/a	0.39453	no	n/a	n/a
592.2617188	n/a	151619	largeHSmallH	correct	congruent	0.40625	no	H	H
592.6679688	n/a	151723	responseSmallH	correct	n/a	0.40625	no	n/a	n/a
593.7382812	n/a	151997	largeTSmallH	correct	incongruent	0.35938	no	T	H
594.0976562	n/a	152089	responseSmallH	correct	n/a	0.35938	no	n/a	n/a
595.1679688	n/a	152363	largeTSmallT	correct	congruent	0.50781	no	T	T
595.6757812	n/a	152493	responseSmallT	correct	n/a	0.50781	no	n/a	n/a
596.7382812	n/a	152765	largeHSmallT	correct	incongruent	0.43359	no	H	T
597.171875	n/a	152876	responseSmallT	correct	n/a	0.43359	no	n/a	n/a
598.234375	n/a	153148	largeTSmallT	correct	congruent	0.44922	no	T	T
598.6835938	n/a	153263	responseSmallT	correct	n/a	0.44922	no	n/a	n/a
599.7539062	n/a	153537	largeTSmallT	correct	congruent	0.58203	no	T	T
600.3359375	n/a	153686	responseSmallT	correct	n/a	0.58203	no	n/a	n/a
601.40625	n/a	153960	largeHSmallT	error	incongruent	0.55859	no	H	T
601.9648438	n/a	154103	responseSmallH	error	n/a	0.55859	no	n/a	n/a
603.046875	n/a	154380	largeHSmallT	correct	incongruent	0.4375	no	H	T
603.484375	n/a	154492	responseSmallT	correct	n/a	0.4375	no	n/a	n/a
604.5546875	n/a	154766	largeTSmallT	correct	congruent	0.34375	no	T	T
604.8984375	n/a	154854	responseSmallT	correct	n/a	0.34375	no	n/a	n/a
605.9804688	n/a	155131	largeHSmallT	correct	incongruent	0.61328	no	H	T
606.59375	n/a	155288	responseSmallT	correct	n/a	0.61328	no	n/a	n/a
607.6601562	n/a	155561	largeHSmallT	correct	incongruent	0.39844	no	H	T
608.0585938	n/a	155663	responseSmallT	correct	n/a	0.39844	no	n/a	n/a
609.125	n/a	155936	largeHSmallH	correct	congruent	0.48047	no	H	H
609.6054688	n/a	156059	responseSmallH	correct	n/a	0.48047	no	n/a	n/a
610.671875	n/a	156332	largeHSmallH	correct	congruent	0.51562	no	H	H
611.1875	n/a	156464	responseSmallH	correct	n/a	0.51562	no	n/a	n/a
612.2578125	n/a	156738	largeTSmallT	correct	congruent	0.44531	no	T	T
612.703125	n/a	156852	responseSmallT	correct	n/a	0.44531	no	n/a	n/a
613.78125	n/a	157128	largeHSmallT	correct	incongruent	0.40234	no	H	T
614.1835938	n/a	157231	responseSmallT	correct	n/a	0.40234	no	n/a	n/a
615.2578125	n/a	157506	largeTSmallT	correct	congruent	0.38672	no	T	T
615.6445312	n/a	157605	responseSmallT	correct	n/a	0.38672	no	n/a	n/a
616.7265625	n/a	157882	largeHSmallT	correct	incongruent	0.48438	no	H	T
617.2109375	n/a	158006	responseSmallT	correct	n/a	0.48438	no	n/a	n/a
618.2851562	n/a	158281	largeTSmallT	correct	congruent	0.36328	no	T	T
618.6484375	n/a	158374	responseSmallT	correct	n/a	0.36328	no	n/a	n/a
619.7109375	n/a	158646	largeTSmallH	correct	incongruent	0.55859	no	T	H
620.2695312	n/a	158789	responseSmallH	correct	n/a	0.55859	no	n/a	n/a
621.3398438	n/a	159063	largeHSmallH	correct	congruent	0.55078	no	H	H
621.890625	n/a	159204	responseSmallH	correct	n/a	0.55078	no	n/a	n/a
622.9648438	n/a	159479	largeHSmallT	correct	incongruent	0.37891	no	H	T
623.34375	n/a	159576	responseSmallT	correct	n/a	0.37891	no	n/a	n/a
624.4179688	n/a	159851	largeTSmallH	correct	incongruent	0.41016	no	T	H
624.828125	n/a	159956	responseSmallH	correct	n/a	0.41016	no	n/a	n/a
625.8984375	n/a	160230	largeTSmallT	correct	congruent	0.32812	no	T	T
626.2265625	n/a	160314	responseSmallT	correct	n/a	0.32812	no	n/a	n/a
627.3007812	n/a	160589	largeHSmallT	correct	incongruent	0.44922	no	H	T
627.75	n/a	160704	responseSmallT	correct	n/a	0.44922	no	n/a	n/a
628.8320312	n/a	160981	largeTSmallH	correct	incongruent	0.46484	no	T	H
629.296875	n/a	161100	responseSmallH	correct	n/a	0.46484	no	n/a	n/a
630.3515625	n/a	161370	largeTSmallT	correct	congruent	0.41016	no	T	T
630.7617188	n/a	161475	responseSmallT	correct	n/a	0.41016	no	n/a	n/a
631.8320312	n/a	161749	largeHSmallT	correct	incongruent	0.47656	no	H	T
632.3085938	n/a	161871	responseSmallT	correct	n/a	0.47656	no	n/a	n/a
633.3789062	n/a	162145	largeHSmallT	correct	incongruent	0.5	no	H	T
633.8789062	n/a	162273	responseSmallT	correct	n/a	0.5	no	n/a	n/a
634.9375	n/a	162544	largeTSmallT	correct	congruent	0.375	no	T	T
635.3125	n/a	162640	responseSmallT	correct	n/a	0.375	no	n/a	n/a
636.3789062	n/a	162913	largeHSmallH	error	congruent	0.375	no	H	H
636.7539062	n/a	163009	responseSmallT	error	n/a	0.375	no	n/a	n/a
637.8320312	n/a	163285	largeHSmallT	correct	incongruent	0.41016	no	H	T
638.2421875	n/a	163390	responseSmallT	correct	n/a	0.41016	no	n/a	n/a
642.765625	n/a	164548	largeHSmallH	correct	congruent	0.44141	no	H	H
643.2070312	n/a	164661	responseLargeH	correct	n/a	0.44141	no	n/a	n/a
644.2734375	n/a	164934	largeHSmallH	correct	congruent	0.42188	no	H	H
644.6953125	n/a	165042	responseLargeH	correct	n/a	0.42188	no	n/a	n/a
645.7773438	n/a	165319	largeTSmallH	correct	incongruent	0.39062	no	T	H
646.1679688	n/a	165419	responseLargeT	correct	n/a	0.39062	no	n/a	n/a
647.2304688	n/a	165691	largeHSmallT	error	incongruent	0.48438	no	H	T
647.7148438	n/a	165815	responseLargeT	error	n/a	0.48438	no	n/a	n/a
648.7773438	n/a	166087	largeTSmallT	correct	congruent	0.49219	no	T	T
649.2695312	n/a	166213	responseLargeT	correct	n/a	0.49219	no	n/a	n/a
650.3398438	n/a	166487	largeHSmallT	correct	incongruent	0.41797	no	H	T
650.7578125	n/a	166594	responseLargeH	correct	n/a	0.41797	no	n/a	n/a
651.8320312	n/a	166869	largeTSmallH	correct	incongruent	0.4375	no	T	H
652.2695312	n/a	166981	responseLargeT	correct	n/a	0.4375	no	n/a	n/a
653.3398438	n/a	167255	largeTSmallT	correct	congruent	0.45312	no	T	T
653.7929688	n/a	167371	responseLargeT	correct	n/a	0.45312	no	n/a	n/a
654.8710938	n/a	167647	largeTSmallH	correct	incongruent	0.5	no	T	H
655.3710938	n/a	167775	responseLargeT	correct	n/a	0.5	no	n/a	n/a
656.4453125	n/a	168050	largeTSmallT	correct	congruent	0.38672	no	T	T
656.8320312	n/a	168149	responseLargeT	correct	n/a	0.38672	no	n/a	n/a
657.9101562	n/a	168425	largeHSmallH	correct	congruent	0.45703	no	H	H
658.3671875	n/a	168542	responseLargeH	correct	n/a	0.45703	no	n/a	n/a
659.4296875	n/a	168814	largeTSmallH	correct	incongruent	0.37891	no	T	H
659.8085938	n/a	168911	responseLargeT	correct	n/a	0.37891	no	n/a	n/a
660.8867188	n/a	169187	largeHSmallH	correct	congruent	0.35156	no	H	H
661.2382812	n/a	169277	responseLargeH	correct	n/a	0.35156	no	n/a	n/a
662.3125	n/a	169552	largeHSmallH	correct	congruent	0.50391	no	H	H
662.8164062	n/a	169681	responseLargeH	correct	n/a	0.50391	no	n/a	n/a
663.8867188	n/a	169955	largeTSmallH	correct	incongruent	0.39844	no	T	H
664.2851562	n/a	170057	responseLargeT	correct	n/a	0.39844	no	n/a	n/a
665.3515625	n/a	170330	largeHSmallT	correct	incongruent	0.39062	no	H	T
665.7421875	n/a	170430	responseLargeH	correct	n/a	0.39062	no	n/a	n/a
666.8164062	n/a	170705	largeHSmallH	correct	congruent	0.43359	no	H	H
667.25	n/a	170816	responseLargeH	correct	n/a	0.43359	no	n/a	n/a
668.3242188	n/a	171091	largeTSmallT	correct	congruent	0.39844	no	T	T
668.7226562	n/a	171193	responseLargeT	correct	n/a	0.39844	no	n/a	n/a
669.7929688	n/a	171467	largeTSmallT	correct	congruent	0.42969	no	T	T
670.2226562	n/a	171577	responseLargeT	correct	n/a	0.42969	no	n/a	n/a
671.296875	n/a	171852	largeTSmallH	correct	incongruent	0.44141	no	T	H
671.7382812	n/a	171965	responseLargeT	correct	n/a	0.44141	no	n/a	n/a
672.8046875	n/a	172238	largeTSmallH	correct	incongruent	0.45703	no	T	H
673.2617188	n/a	172355	responseLargeT	correct	n/a	0.45703	no	n/a	n/a
674.3359375	n/a	172630	largeHSmallH	correct	congruent	0.35938	no	H	H
674.6953125	n/a	172722	responseLargeH	correct	n/a	0.35938	no	n/a	n/a
675.78125	n/a	173000	largeHSmallH	error	congruent	0.35938	no	H	H
676.140625	n/a	173092	responseLargeT	error	n/a	0.35938	no	n/a	n/a
677.203125	n/a	173364	largeHSmallH	correct	congruent	0.45703	no	H	H
677.6601562	n/a	173481	responseLargeH	correct	n/a	0.45703	no	n/a	n/a
678.7382812	n/a	173757	largeHSmallH	correct	congruent	0.42578	no	H	H
679.1640625	n/a	173866	responseLargeH	correct	n/a	0.42578	no	n/a	n/a
680.2304688	n/a	174139	largeTSmallH	error	incongruent	0.41797	no	T	H
680.6484375	n/a	174246	responseLargeH	error	n/a	0.41797	no	n/a	n/a
681.7109375	n/a	174518	largeHSmallT	correct	incongruent	0.41797	no	H	T
682.1289062	n/a	174625	responseLargeH	correct	n/a	0.41797	no	n/a	n/a
683.1914062	n/a	174897	largeHSmallH	correct	congruent	0.5	no	H	H
683.6914062	n/a	175025	responseLargeH	correct	n/a	0.5	no	n/a	n/a
684.75	n/a	175296	largeHSmallH	correct	congruent	0.41797	no	H	H
685.1679688	n/a	175403	responseLargeH	correct	n/a	0.41797	no	n/a	n/a
686.2421875	n/a	175678	largeHSmallT	correct	incongruent	0.42578	no	H	T
686.6679688	n/a	175787	responseLargeH	correct	n/a	0.42578	no	n/a	n/a
687.7382812	n/a	176061	largeTSmallH	correct	incongruent	0.50391	no	T	H
688.2421875	n/a	176190	responseLargeT	correct	n/a	0.50391	no	n/a	n/a
689.3125	n/a	176464	largeHSmallT	correct	incongruent	0.36328	no	H	T
689.6757812	n/a	176557	responseLargeH	correct	n/a	0.36328	no	n/a	n/a
690.75	n/a	176832	largeTSmallT	correct	congruent	0.60156	no	T	T
691.3515625	n/a	176986	responseLargeT	correct	n/a	0.60156	no	n/a	n/a
692.4296875	n/a	177262	largeTSmallH	correct	incongruent	0.63672	no	T	H
693.0664062	n/a	177425	responseLargeT	correct	n/a	0.63672	no	n/a	n/a
694.1367188	n/a	177699	largeTSmallH	correct	incongruent	0.44141	no	T	H
694.578125	n/a	177812	responseLargeT	correct	n/a	0.44141	no	n/a	n/a
695.6445312	n/a	178085	largeHSmallH	correct	congruent	0.53516	no	H	H
696.1796875	n/a	178222	responseLargeH	correct	n/a	0.53516	no	n/a	n/a
697.2578125	n/a	178498	largeHSmallH	correct	congruent	0.48438	no	H	H
697.7421875	n/a	178622	responseLargeH	correct	n/a	0.48438	no	n/a	n/a
698.8164062	n/a	178897	largeTSmallT	correct	congruent	0.44141	no	T	T
699.2578125	n/a	179010	responseLargeT	correct	n/a	0.44141	no	n/a	n/a
700.3242188	n/a	179283	largeTSmallH	correct	incongruent	0.375	no	T	H
700.6992188	n/a	179379	responseLargeT	correct	n/a	0.375	no	n/a	n/a
701.7773438	n/a	179655	largeTSmallH	correct	incongruent	0.59766	no	T	H
702.375	n/a	179808	responseLargeT	correct	n/a	0.59766	no	n/a	n/a
703.4453125	n/a	180082	largeHSmallH	correct	congruent	0.44922	no	H	H
703.8945312	n/a	180197	responseLargeH	correct	n/a	0.44922	no	n/a	n/a
704.9765625	n/a	180474	largeHSmallH	correct	congruent	0.49609	no	H	H
705.4726562	n/a	180601	responseLargeH	correct	n/a	0.49609	no	n/a	n/a
706.5507812	n/a	180877	largeHSmallH	correct	congruent	0.48047	no	H	H
707.03125	n/a	181000	responseLargeH	correct	n/a	0.48047	no	n/a	n/a
708.109375	n/a	181276	largeTSmallH	error	incongruent	0.36328	no	T	H
708.4726562	n/a	181369	responseLargeH	error	n/a	0.36328	no	n/a	n/a
709.5507812	n/a	181645	largeTSmallT	correct	congruent	0.46875	no	T	T
710.0195312	n/a	181765	responseLargeT	correct	n/a	0.46875	no	n/a	n/a
711.0820312	n/a	182037	largeTSmallH	correct	incongruent	0.64844	no	T	H
711.7304688	n/a	182203	responseLargeT	correct	n/a	0.64844	no	n/a	n/a
712.8046875	n/a	182478	largeHSmallH	correct	congruent	0.45312	no	H	H
713.2578125	n/a	182594	responseLargeH	correct	n/a	0.45312	no	n/a	n/a
714.3359375	n/a	182870	largeTSmallT	correct	congruent	0.48828	no	T	T
714.8242188	n/a	182995	responseLargeT	correct	n/a	0.48828	no	n/a	n/a
715.8984375	n/a	183270	largeHSmallH	correct	congruent	0.35547	no	H	H
716.2539062	n/a	183361	responseLargeH	correct	n/a	0.35547	no	n/a	n/a
717.3359375	n/a	183638	largeTSmallH	correct	incongruent	0.36719	no	T	H
717.703125	n/a	183732	responseLargeT	correct	n/a	0.36719	no	n/a	n/a
718.7773438	n/a	184007	largeTSmallT	correct	congruent	0.44141	no	T	T
719.21875	n/a	184120	responseLargeT	correct	n/a	0.44141	no	n/a	n/a
720.296875	n/a	184396	largeHSmallT	correct	incongruent	0.43359	no	H	T
720.7304688	n/a	184507	responseLargeH	correct	n/a	0.43359	no	n/a	n/a
721.8046875	n/a	184782	largeTSmallH	correct	incongruent	0.46484	no	T	H
722.2695312	n/a	184901	responseLargeT	correct	n/a	0.46484	no	n/a	n/a
723.3359375	n/a	185174	largeHSmallH	correct	congruent	0.38281	no	H	H
723.71875	n/a	185272	responseLargeH	correct	n/a	0.38281	no	n/a	n/a
724.7890625	n/a	185546	largeHSmallH	error	congruent	0.32422	no	H	H
725.1132812	n/a	185629	responseLargeT	error	n/a	0.32422	no	n/a	n/a
726.1914062	n/a	185905	largeHSmallT	correct	incongruent	0.48828	no	H	T
726.6796875	n/a	186030	responseLargeH	correct	n/a	0.48828	no	n/a	n/a
727.75	n/a	186304	largeTSmallH	correct	incongruent	0.39844	no	T	H
728.1484375	n/a	186406	responseLargeT	correct	n/a	0.39844	no	n/a	n/a
729.2148438	n/a	186679	largeTSmallH	correct	incongruent	0.49219	no	T	H
729.7070312	n/a	186805	responseLargeT	correct	n/a	0.49219	no	n/a	n/a
730.7773438	n/a	187079	largeHSmallH	correct	congruent	0.42188	no	H	H
731.1992188	n/a	187187	responseLargeH	correct	n/a	0.42188	no	n/a	n/a
732.2695312	n/a	187461	largeTSmallH	correct	incongruent	0.42578	no	T	H
732.6953125	n/a	187570	responseLargeT	correct	n/a	0.42578	no	n/a	n/a
733.7773438	n/a	187847	largeHSmallT	correct	incongruent	0.39844	no	H	T
734.1757812	n/a	187949	responseLargeH	correct	n/a	0.39844	no	n/a	n/a
735.2578125	n/a	188226	largeTSmallH	correct	incongruent	0.43359	no	T	H
735.6914062	n/a	188337	responseLargeT	correct	n/a	0.43359	no	n/a	n/a
736.7617188	n/a	188611	largeHSmallH	correct	congruent	0.33984	no	H	H
737.1015625	n/a	188698	responseLargeH	correct	n/a	0.33984	no	n/a	n/a
738.1757812	n/a	188973	largeTSmallH	correct	incongruent	0.37109	no	T	H
738.546875	n/a	189068	responseLargeT	correct	n/a	0.37109	no	n/a	n/a
739.6171875	n/a	189342	largeHSmallT	correct	incongruent	0.32812	no	H	T
739.9453125	n/a	189426	responseLargeH	correct	n/a	0.32812	no	n/a	n/a
741.0039062	n/a	189697	largeHSmallH	error	congruent	0.34375	no	H	H
741.3476562	n/a	189785	responseLargeT	error	n/a	0.34375	no	n/a	n/a
742.4179688	n/a	190059	largeHSmallH	correct	congruent	0.4375	no	H	H
742.8554688	n/a	190171	responseLargeH	correct	n/a	0.4375	no	n/a	n/a
743.921875	n/a	190444	largeTSmallT	correct	congruent	0.45312	no	T	T
744.375	n/a	190560	responseLargeT	correct	n/a	0.45312	no	n/a	n/a
745.4414062	n/a	190833	largeHSmallH	correct	congruent	0.33984	no	H	H
745.78125	n/a	190920	responseLargeH	correct	n/a	0.33984	no	n/a	n/a
746.84375	n/a	191192	largeTSmallH	correct	incongruent	0.42969	no	T	H
747.2734375	n/a	191302	responseLargeT	correct	n/a	0.42969	no	n/a	n/a
748.3476562	n/a	191577	largeTSmallT	correct	congruent	0.42578	no	T	T
748.7734375	n/a	191686	responseLargeT	correct	n/a	0.42578	no	n/a	n/a
749.84375	n/a	191960	largeHSmallH	correct	congruent	0.44141	no	H	H
750.2851562	n/a	192073	responseLargeH	correct	n/a	0.44141	no	n/a	n/a
751.3476562	n/a	192345	largeHSmallH	correct	congruent	0.42188	no	H	H
751.7695312	n/a	192453	responseLargeH	correct	n/a	0.42188	no	n/a	n/a
752.828125	n/a	192724	largeTSmallT	correct	congruent	0.41406	no	T	T
753.2421875	n/a	192830	responseLargeT	correct	n/a	0.41406	no	n/a	n/a
754.3242188	n/a	193107	largeHSmallH	correct	congruent	0.42188	no	H	H
754.7460938	n/a	193215	responseLargeH	correct	n/a	0.42188	no	n/a	n/a
755.8164062	n/a	193489	largeTSmallT	correct	congruent	0.4375	no	T	T
756.2539062	n/a	193601	responseLargeT	correct	n/a	0.4375	no	n/a	n/a
757.3203125	n/a	193874	largeTSmallH	correct	incongruent	0.46875	no	T	H
757.7890625	n/a	193994	responseLargeT	correct	n/a	0.46875	no	n/a	n/a
758.8554688	n/a	194267	largeTSmallH	correct	incongruent	0.51172	no	T	H
759.3671875	n/a	194398	responseLargeT	correct	n/a	0.51172	no	n/a	n/a
760.4296875	n/a	194670	largeHSmallH	correct	congruent	0.39062	no	H	H
760.8203125	n/a	194770	responseLargeH	correct	n/a	0.39062	no	n/a	n/a
761.8945312	n/a	195045	largeTSmallT	correct	congruent	0.39844	no	T	T
762.2929688	n/a	195147	responseLargeT	correct	n/a	0.39844	no	n/a	n/a
763.3632812	n/a	195421	largeTSmallT	correct	congruent	0.46484	no	T	T
763.828125	n/a	195540	responseLargeT	correct	n/a	0.46484	no	n/a	n/a
764.8945312	n/a	195813	largeTSmallT	correct	congruent	0.45312	no	T	T
765.3476562	n/a	195929	responseLargeT	correct	n/a	0.45312	no	n/a	n/a
766.4140625	n/a	196202	largeTSmallT	correct	congruent	0.41797	no	T	T
766.8320312	n/a	196309	responseLargeT	correct	n/a	0.41797	no	n/a	n/a
767.9101562	n/a	196585	largeHSmallT	correct	incongruent	0.40625	no	H	T
768.3164062	n/a	196689	responseLargeH	correct	n/a	0.40625	no	n/a	n/a
769.390625	n/a	196964	largeHSmallH	correct	congruent	0.44141	no	H	H
769.8320312	n/a	197077	responseLargeH	correct	n/a	0.44141	no	n/a	n/a
770.8945312	n/a	197349	largeTSmallT	correct	congruent	0.37891	no	T	T
771.2734375	n/a	197446	responseLargeT	correct	n/a	0.37891	no	n/a	n/a
772.3476562	n/a	197721	largeTSmallT	correct	congruent	0.49219	no	T	T
772.8398438	n/a	197847	responseLargeT	correct	n/a	0.49219	no	n/a	n/a
773.9101562	n/a	198121	largeHSmallH	correct	congruent	0.375	no	H	H
774.2851562	n/a	198217	responseLargeH	correct	n/a	0.375	no	n/a	n/a
775.3632812	n/a	198493	largeTSmallT	correct	congruent	0.32031	no	T	T
775.6835938	n/a	198575	responseLargeT	correct	n/a	0.32031	no	n/a	n/a
776.75	n/a	198848	largeHSmallT	correct	incongruent	0.35156	no	H	T
777.1015625	n/a	198938	responseLargeH	correct	n/a	0.35156	no	n/a	n/a
778.1757812	n/a	199213	largeHSmallT	error	incongruent	0.33594	no	H	T
778.5117188	n/a	199299	responseLargeT	error	n/a	0.33594	no	n/a	n/a
779.5898438	n/a	199575	largeTSmallH	correct	incongruent	0.30859	no	T	H
779.8984375	n/a	199654	responseLargeT	correct	n/a	0.30859	no	n/a	n/a
780.9609375	n/a	199926	largeHSmallT	correct	incongruent	0.32422	no	H	T
781.2851562	n/a	200009	responseLargeH	correct	n/a	0.32422	no	n/a	n/a
782.3476562	n/a	200281	largeHSmallT	correct	incongruent	0.47656	no	H	T
782.8242188	n/a	200403	responseLargeH	correct	n/a	0.47656	no	n/a	n/a
783.8945312	n/a	200677	largeTSmallH	error	incongruent	0.31641	no	T	H
784.2109375	n/a	200758	responseLargeH	error	n/a	0.31641	no	n/a	n/a
785.28125	n/a	201032	largeHSmallT	correct	incongruent	0.39453	no	H	T
785.6757812	n/a	201133	responseLargeH	correct	n/a	0.39453	no	n/a	n/a
786.75	n/a	201408	largeHSmallT	correct	incongruent	0.46875	no	H	T
787.21875	n/a	201528	responseLargeH	correct	n/a	0.46875	no	n/a	n/a
788.2929688	n/a	201803	largeHSmallT	correct	incongruent	0.47656	no	H	T
788.7695312	n/a	201925	responseLargeH	correct	n/a	0.47656	no	n/a	n/a
789.8398438	n/a	202199	largeHSmallT	correct	incongruent	0.36328	no	H	T
790.203125	n/a	202292	responseLargeH	correct	n/a	0.36328	no	n/a	n/a
791.2695312	n/a	202565	largeHSmallH	correct	congruent	0.41406	no	H	H
791.6835938	n/a	202671	responseLargeH	correct	n/a	0.41406	no	n/a	n/a
792.7617188	n/a	202947	largeTSmallH	error	incongruent	0.33594	no	T	H
793.0976562	n/a	203033	responseLargeH	error	n/a	0.33594	no	n/a	n/a
794.1757812	n/a	203309	largeHSmallT	correct	incongruent	0.35547	no	H	T
794.53125	n/a	203400	responseLargeH	correct	n/a	0.35547	no	n/a	n/a
795.6132812	n/a	203677	largeTSmallH	correct	incongruent	0.53906	no	T	H
796.1523438	n/a	203815	responseLargeT	correct	n/a	0.53906	no	n/a	n/a
797.2148438	n/a	204087	largeTSmallT	correct	congruent	0.50781	no	T	T
797.7226562	n/a	204217	responseLargeT	correct	n/a	0.50781	no	n/a	n/a
798.7890625	n/a	204490	largeHSmallH	correct	congruent	0.42969	no	H	H
799.21875	n/a	204600	responseLargeH	correct	n/a	0.42969	no	n/a	n/a
800.2929688	n/a	204875	largeHSmallH	correct	congruent	0.44922	no	H	H
800.7421875	n/a	204990	responseLargeH	correct	n/a	0.44922	no	n/a	n/a
801.8125	n/a	205264	largeTSmallT	correct	congruent	0.42188	no	T	T
802.234375	n/a	205372	responseLargeT	correct	n/a	0.42188	no	n/a	n/a
803.2929688	n/a	205643	largeTSmallT	correct	congruent	0.47266	no	T	T
803.765625	n/a	205764	responseLargeT	correct	n/a	0.47266	no	n/a	n/a
804.828125	n/a	206036	largeHSmallH	correct	congruent	0.36328	no	H	H
805.1914062	n/a	206129	responseLargeH	correct	n/a	0.36328	no	n/a	n/a
806.2695312	n/a	206405	largeHSmallT	correct	incongruent	0.43359	no	H	T
806.703125	n/a	206516	responseLargeH	correct	n/a	0.43359	no	n/a	n/a
807.7734375	n/a	206790	largeTSmallT	correct	congruent	0.34766	no	T	T
808.1210938	n/a	206879	responseLargeT	correct	n/a	0.34766	no	n/a	n/a
809.1992188	n/a	207155	largeHSmallT	correct	incongruent	0.33984	no	H	T
809.5390625	n/a	207242	responseLargeH	correct	n/a	0.33984	no	n/a	n/a
810.6132812	n/a	207517	largeTSmallH	correct	incongruent	0.42188	no	T	H
811.0351562	n/a	207625	responseLargeT	correct	n/a	0.42188	no	n/a	n/a
812.09375	n/a	207896	largeHSmallT	correct	incongruent	0.33594	no	H	T
812.4296875	n/a	207982	responseLargeH	correct	n/a	0.33594	no	n/a	n/a
813.5078125	n/a	208258	largeTSmallH	error	incongruent	0.45312	no	T	H
813.9609375	n/a	208374	responseLargeH	error	n/a	0.45312	no	n/a	n/a
815.0273438	n/a	208647	largeTSmallH	correct	incongruent	0.40625	no	T	H
815.4335938	n/a	208751	responseLargeT	correct	n/a	0.40625	no	n/a	n/a
816.5195312	n/a	209029	largeHSmallT	correct	incongruent	0.35547	no	H	T
816.875	n/a	209120	responseLargeH	correct	n/a	0.35547	no	n/a	n/a
817.9453125	n/a	209394	largeTSmallH	correct	incongruent	0.34766	no	T	H
818.2929688	n/a	209483	responseLargeT	correct	n/a	0.34766	no	n/a	n/a
819.375	n/a	209760	largeHSmallT	correct	incongruent	0.33984	no	H	T
819.7148438	n/a	209847	responseLargeH	correct	n/a	0.33984	no	n/a	n/a
820.7890625	n/a	210122	largeHSmallT	error	incongruent	0.28906	no	H	T
821.078125	n/a	210196	responseLargeT	error	n/a	0.28906	no	n/a	n/a
822.1484375	n/a	210470	largeHSmallT	error	incongruent	0.30469	no	H	T
822.453125	n/a	210548	responseLargeT	error	n/a	0.30469	no	n/a	n/a
823.5195312	n/a	210821	largeHSmallH	error	congruent	0.33984	no	H	H
823.859375	n/a	210908	responseLargeT	error	n/a	0.33984	no	n/a	n/a
824.9335938	n/a	211183	largeHSmallH	correct	congruent	1.7031	yes	H	H
826.6367188	n/a	211619	responseLargeH	correct	n/a	1.7031	yes	n/a	n/a
827.71875	n/a	211896	largeTSmallH	correct	incongruent	0.38672	no	T	H
828.1054688	n/a	211995	responseLargeT	correct	n/a	0.38672	no	n/a	n/a
829.1875	n/a	212272	largeTSmallH	correct	incongruent	0.46094	no	T	H
829.6484375	n/a	212390	responseLargeT	correct	n/a	0.46094	no	n/a	n/a
830.734375	n/a	212668	largeHSmallH	correct	congruent	0.38672	no	H	H
831.1210938	n/a	212767	responseLargeH	correct	n/a	0.38672	no	n/a	n/a
832.1875	n/a	213040	largeTSmallT	correct	congruent	0.47266	no	T	T
832.6601562	n/a	213161	responseLargeT	correct	n/a	0.47266	no	n/a	n/a
833.734375	n/a	213436	largeTSmallT	correct	congruent	0.44531	no	T	T
834.1796875	n/a	213550	responseLargeT	correct	n/a	0.44531	no	n/a	n/a
835.2539062	n/a	213825	largeHSmallT	correct	incongruent	0.45312	no	H	T
835.7070312	n/a	213941	responseLargeH	correct	n/a	0.45312	no	n/a	n/a
836.7734375	n/a	214214	largeTSmallT	error	congruent	0.47656	no	T	T
837.25	n/a	214336	responseLargeH	error	n/a	0.47656	no	n/a	n/a
838.3203125	n/a	214610	largeTSmallT	correct	congruent	0.44531	no	T	T
838.765625	n/a	214724	responseLargeT	correct	n/a	0.44531	no	n/a	n/a
839.8398438	n/a	214999	largeTSmallT	correct	congruent	0.55859	no	T	T
840.3984375	n/a	215142	responseLargeT	correct	n/a	0.55859	no	n/a	n/a
841.4804688	n/a	215419	largeHSmallT	correct	incongruent	0.48438	no	H	T
841.9648438	n/a	215543	responseLargeH	correct	n/a	0.48438	no	n/a	n/a
843.0390625	n/a	215818	largeHSmallT	error	incongruent	0.34766	no	H	T
843.3867188	n/a	215907	responseLargeT	error	n/a	0.34766	no	n/a	n/a
844.453125	n/a	216180	largeHSmallT	correct	incongruent	0.52344	no	H	T
844.9765625	n/a	216314	responseLargeH	correct	n/a	0.52344	no	n/a	n/a
846.0390625	n/a	216586	largeHSmallH	correct	congruent	0.50391	no	H	H
846.5429688	n/a	216715	responseLargeH	correct	n/a	0.50391	no	n/a	n/a
847.6132812	n/a	216989	largeTSmallT	correct	congruent	0.52734	no	T	T
848.140625	n/a	217124	responseLargeT	correct	n/a	0.52734	no	n/a	n/a
849.2148438	n/a	217399	largeTSmallT	correct	congruent	0.48828	no	T	T
849.703125	n/a	217524	responseLargeT	correct	n/a	0.48828	no	n/a	n/a
850.7734375	n/a	217798	largeHSmallT	correct	incongruent	0.53906	no	H	T
851.3125	n/a	217936	responseLargeH	correct	n/a	0.53906	no	n/a	n/a
852.375	n/a	218208	largeHSmallH	correct	congruent	0.44531	no	H	H
852.8203125	n/a	218322	responseLargeH	correct	n/a	0.44531	no	n/a	n/a
853.8945312	n/a	218597	largeTSmallT	correct	congruent	0.5	no	T	T
854.3945312	n/a	218725	responseLargeT	correct	n/a	0.5	no	n/a	n/a
855.4648438	n/a	218999	largeTSmallT	correct	congruent	0.47266	no	T	T
855.9375	n/a	219120	responseLargeT	correct	n/a	0.47266	no	n/a	n/a
857.0117188	n/a	219395	largeTSmallH	correct	incongruent	0.44531	no	T	H
857.4570312	n/a	219509	responseLargeT	correct	n/a	0.44531	no	n/a	n/a
858.5195312	n/a	219781	largeTSmallH	correct	incongruent	0.4375	no	T	H
858.9570312	n/a	219893	responseLargeT	correct	n/a	0.4375	no	n/a	n/a
860.0273438	n/a	220167	largeHSmallT	correct	incongruent	0.40234	no	H	T
860.4296875	n/a	220270	responseLargeH	correct	n/a	0.40234	no	n/a	n/a
861.5078125	n/a	220546	largeTSmallT	correct	congruent	0.37109	no	T	T
861.8789062	n/a	220641	responseLargeT	correct	n/a	0.37109	no	n/a	n/a
862.9609375	n/a	220918	largeHSmallT	correct	incongruent	0.41406	no	H	T
863.375	n/a	221024	responseLargeH	correct	n/a	0.41406	no	n/a	n/a
864.4414062	n/a	221297	largeHSmallT	correct	incongruent	0.46484	no	H	T
864.90625	n/a	221416	responseLargeH	correct	n/a	0.46484	no	n/a	n/a
865.984375	n/a	221692	largeHSmallT	correct	incongruent	0.5	no	H	T
866.484375	n/a	221820	responseLargeH	correct	n/a	0.5	no	n/a	n/a
867.5585938	n/a	222095	largeTSmallH	correct	incongruent	0.37109	no	T	H
867.9296875	n/a	222190	responseLargeT	correct	n/a	0.37109	no	n/a	n/a
869.0117188	n/a	222467	largeTSmallT	correct	congruent	0.43359	no	T	T
869.4453125	n/a	222578	responseLargeT	correct	n/a	0.43359	no	n/a	n/a
870.5195312	n/a	222853	largeHSmallT	correct	incongruent	0.39062	no	H	T
870.9101562	n/a	222953	responseLargeH	correct	n/a	0.39062	no	n/a	n/a
871.9726562	n/a	223225	largeTSmallH	correct	incongruent	0.42969	no	T	H
872.4023438	n/a	223335	responseLargeT	correct	n/a	0.42969	no	n/a	n/a
873.4648438	n/a	223607	largeTSmallT	correct	congruent	0.42188	no	T	T
873.8867188	n/a	223715	responseLargeT	correct	n/a	0.42188	no	n/a	n/a
874.9609375	n/a	223990	largeTSmallH	correct	incongruent	0.37891	no	T	H
875.3398438	n/a	224087	responseLargeT	correct	n/a	0.37891	no	n/a	n/a
876.4140625	n/a	224362	largeHSmallH	correct	congruent	0.41797	no	H	H
876.8320312	n/a	224469	responseLargeH	correct	n/a	0.41797	no	n/a	n/a
877.90625	n/a	224744	largeTSmallT	correct	congruent	0.36719	no	T	T
878.2734375	n/a	224838	responseLargeT	correct	n/a	0.36719	no	n/a	n/a
879.3476562	n/a	225113	largeHSmallT	correct	incongruent	0.36719	no	H	T
879.7148438	n/a	225207	responseLargeH	correct	n/a	0.36719	no	n/a	n/a
880.7851562	n/a	225481	largeHSmallT	error	incongruent	0.36328	no	H	T
881.1484375	n/a	225574	responseLargeT	error	n/a	0.36328	no	n/a	n/a
882.2265625	n/a	225850	largeHSmallH	correct	congruent	0.49219	no	H	H
882.71875	n/a	225976	responseLargeH	correct	n/a	0.49219	no	n/a	n/a
883.8007812	n/a	226253	largeTSmallT	correct	congruent	0.35156	no	T	T
884.1523438	n/a	226343	responseLargeT	correct	n/a	0.35156	no	n/a	n/a
885.2382812	n/a	226621	largeTSmallT	correct	congruent	0.50781	no	T	T
885.7460938	n/a	226751	responseLargeT	correct	n/a	0.50781	no	n/a	n/a
886.8242188	n/a	227027	largeTSmallH	correct	incongruent	0.43359	no	T	H
887.2578125	n/a	227138	responseLargeT	correct	n/a	0.43359	no	n/a	n/a
888.3320312	n/a	227413	largeHSmallT	correct	incongruent	0.44922	no	H	T
888.78125	n/a	227528	responseLargeH	correct	n/a	0.44922	no	n/a	n/a
889.8515625	n/a	227802	largeHSmallH	correct	congruent	0.69922	no	H	H
890.5507812	n/a	227981	responseLargeH	correct	n/a	0.69922	no	n/a	n/a
891.625	n/a	228256	largeHSmallT	correct	incongruent	0.43359	no	H	T
892.0585938	n/a	228367	responseLargeH	correct	n/a	0.43359	no	n/a	n/a
893.1171875	n/a	228638	largeHSmallT	correct	incongruent	0.46484	no	H	T
893.5820312	n/a	228757	responseLargeH	correct	n/a	0.46484	no	n/a	n/a
894.6523438	n/a	229031	largeTSmallH	correct	incongruent	0.45312	no	T	H
895.1054688	n/a	229147	responseLargeT	correct	n/a	0.45312	no	n/a	n/a
896.171875	n/a	229420	largeTSmallH	correct	incongruent	0.49609	no	T	H
896.6679688	n/a	229547	responseLargeT	correct	n/a	0.49609	no	n/a	n/a
897.7460938	n/a	229823	largeHSmallT	correct	incongruent	0.47656	no	H	T
898.2226562	n/a	229945	responseLargeH	correct	n/a	0.47656	no	n/a	n/a
899.2929688	n/a	230219	largeTSmallT	correct	congruent	0.39453	no	T	T
899.6875	n/a	230320	responseLargeT	correct	n/a	0.39453	no	n/a	n/a
900.7578125	n/a	230594	largeHSmallT	correct	incongruent	0.57031	no	H	T
901.328125	n/a	230740	responseLargeH	correct	n/a	0.57031	no	n/a	n/a
902.3984375	n/a	231014	largeHSmallT	correct	incongruent	0.41016	no	H	T
902.8085938	n/a	231119	responseLargeH	correct	n/a	0.41016	no	n/a	n/a
903.8789062	n/a	231393	largeTSmallT	correct	congruent	0.49609	no	T	T
904.375	n/a	231520	responseLargeT	correct	n/a	0.49609	no	n/a	n/a
905.453125	n/a	231796	largeHSmallH	correct	congruent	0.42188	no	H	H
905.875	n/a	231904	responseLargeH	correct	n/a	0.42188	no	n/a	n/a
906.9453125	n/a	232178	largeTSmallT	correct	congruent	0.41406	no	T	T
907.359375	n/a	232284	responseLargeT	correct	n/a	0.41406	no	n/a	n/a
908.4257812	n/a	232557	largeTSmallH	correct	incongruent	0.47266	no	T	H
908.8984375	n/a	232678	responseLargeT	correct	n/a	0.47266	no	n/a	n/a
909.9726562	n/a	232953	largeHSmallH	correct	congruent	0.39844	no	H	H
910.3710938	n/a	233055	responseLargeH	correct	n/a	0.39844	no	n/a	n/a
911.4375	n/a	233328	largeHSmallT	correct	incongruent	0.46875	no	H	T
911.90625	n/a	233448	responseLargeH	correct	n/a	0.46875	no	n/a	n/a
912.984375	n/a	233724	largeTSmallT	correct	congruent	0.42969	no	T	T
913.4140625	n/a	233834	responseLargeT	correct	n/a	0.42969	no	n/a	n/a
914.4765625	n/a	234106	largeHSmallT	correct	incongruent	0.39062	no	H	T
914.8671875	n/a	234206	responseLargeH	correct	n/a	0.39062	no	n/a	n/a
915.9296875	n/a	234478	largeHSmallH	correct	congruent	0.50781	no	H	H
916.4375	n/a	234608	responseLargeH	correct	n/a	0.50781	no	n/a	n/a
917.5039062	n/a	234881	largeHSmallH	correct	congruent	0.48047	no	H	H
917.984375	n/a	235004	responseLargeH	correct	n/a	0.48047	no	n/a	n/a
919.0507812	n/a	235277	largeTSmallT	correct	congruent	0.42578	no	T	T
919.4765625	n/a	235386	responseLargeT	correct	n/a	0.42578	no	n/a	n/a
920.5429688	n/a	235659	largeHSmallT	correct	incongruent	0.43359	no	H	T
920.9765625	n/a	235770	responseLargeH	correct	n/a	0.43359	no	n/a	n/a
922.0507812	n/a	236045	largeTSmallH	correct	incongruent	0.39062	no	T	H
922.4414062	n/a	236145	responseLargeT	correct	n/a	0.39062	no	n/a	n/a
923.5195312	n/a	236421	largeTSmallH	correct	incongruent	0.45312	no	T	H
923.9726562	n/a	236537	responseLargeT	correct	n/a	0.45312	no	n/a	n/a
925.0390625	n/a	236810	largeHSmallH	correct	congruent	0.41016	no	H	H
925.4492188	n/a	236915	responseLargeH	correct	n/a	0.41016	no	n/a	n/a
926.53125	n/a	237192	largeHSmallT	correct	incongruent	0.42578	no	H	T
926.9570312	n/a	237301	responseLargeH	correct	n/a	0.42578	no	n/a	n/a
928.0234375	n/a	237574	largeTSmallT	correct	congruent	0.44922	no	T	T
928.4726562	n/a	237689	responseLargeT	correct	n/a	0.44922	no	n/a	n/a
929.53125	n/a	237960	largeTSmallT	correct	congruent	0.45703	no	T	T
929.9882812	n/a	238077	responseLargeT	correct	n/a	0.45703	no	n/a	n/a
931.0664062	n/a	238353	largeTSmallH	correct	incongruent	0.48438	no	T	H
931.5507812	n/a	238477	responseLargeT	correct	n/a	0.48438	no	n/a	n/a
932.625	n/a	238752	largeHSmallT	correct	incongruent	0.50781	no	H	T
933.1328125	n/a	238882	responseLargeH	correct	n/a	0.50781	no	n/a	n/a
934.1992188	n/a	239155	largeHSmallH	correct	congruent	0.44531	no	H	H
934.6445312	n/a	239269	responseLargeH	correct	n/a	0.44531	no	n/a	n/a
935.71875	n/a	239544	largeTSmallT	correct	congruent	0.47266	no	T	T
936.1914062	n/a	239665	responseLargeT	correct	n/a	0.47266	no	n/a	n/a
937.2617188	n/a	239939	largeTSmallH	correct	incongruent	0.47656	no	T	H
937.7382812	n/a	240061	responseLargeT	correct	n/a	0.47656	no	n/a	n/a
938.796875	n/a	240332	largeTSmallT	correct	congruent	0.42578	no	T	T
939.2226562	n/a	240441	responseLargeT	correct	n/a	0.42578	no	n/a	n/a
940.3046875	n/a	240718	largeTSmallH	correct	incongruent	0.45312	no	T	H
940.7578125	n/a	240834	responseLargeT	correct	n/a	0.45312	no	n/a	n/a
941.8242188	n/a	241107	largeTSmallT	correct	congruent	0.44531	no	T	T
942.2695312	n/a	241221	responseLargeT	correct	n/a	0.44531	no	n/a	n/a
943.34375	n/a	241496	largeTSmallH	correct	incongruent	0.41406	no	T	H
943.7578125	n/a	241602	responseLargeT	correct	n/a	0.41406	no	n/a	n/a
947.9296875	n/a	242670	largeHSmallT	correct	incongruent	0.55859	no	H	T
948.4882812	n/a	242813	responseSmallT	correct	n/a	0.55859	no	n/a	n/a
949.5703125	n/a	243090	largeHSmallT	correct	incongruent	0.51172	no	H	T
950.0820312	n/a	243221	responseSmallT	correct	n/a	0.51172	no	n/a	n/a
951.15625	n/a	243496	largeHSmallH	correct	congruent	0.39453	no	H	H
951.5507812	n/a	243597	responseSmallH	correct	n/a	0.39453	no	n/a	n/a
952.625	n/a	243872	largeTSmallT	correct	congruent	0.36719	no	T	T
952.9921875	n/a	243966	responseSmallT	correct	n/a	0.36719	no	n/a	n/a
954.0625	n/a	244240	largeTSmallT	correct	congruent	0.49219	no	T	T
954.5546875	n/a	244366	responseSmallT	correct	n/a	0.49219	no	n/a	n/a
955.625	n/a	244640	largeTSmallT	correct	congruent	0.46484	no	T	T
956.0898438	n/a	244759	responseSmallT	correct	n/a	0.46484	no	n/a	n/a
957.171875	n/a	245036	largeTSmallH	correct	incongruent	0.42188	no	T	H
957.59375	n/a	245144	responseSmallH	correct	n/a	0.42188	no	n/a	n/a
958.6640625	n/a	245418	largeHSmallH	correct	congruent	0.46875	no	H	H
959.1328125	n/a	245538	responseSmallH	correct	n/a	0.46875	no	n/a	n/a
960.2109375	n/a	245814	largeHSmallH	correct	congruent	0.41016	no	H	H
960.6210938	n/a	245919	responseSmallH	correct	n/a	0.41016	no	n/a	n/a
961.6914062	n/a	246193	largeHSmallH	correct	congruent	0.40234	no	H	H
962.09375	n/a	246296	responseSmallH	correct	n/a	0.40234	no	n/a	n/a
963.171875	n/a	246572	largeTSmallT	correct	congruent	0.46094	no	T	T
963.6328125	n/a	246690	responseSmallT	correct	n/a	0.46094	no	n/a	n/a
964.703125	n/a	246964	largeTSmallH	correct	incongruent	0.47656	no	T	H
965.1796875	n/a	247086	responseSmallH	correct	n/a	0.47656	no	n/a	n/a
966.25	n/a	247360	largeTSmallT	correct	congruent	0.39844	no	T	T
966.6484375	n/a	247462	responseSmallT	correct	n/a	0.39844	no	n/a	n/a
967.7304688	n/a	247739	largeTSmallH	correct	incongruent	0.35156	no	T	H
968.0820312	n/a	247829	responseSmallH	correct	n/a	0.35156	no	n/a	n/a
969.15625	n/a	248104	largeTSmallH	error	incongruent	0.33984	no	T	H
969.4960938	n/a	248191	responseSmallT	error	n/a	0.33984	no	n/a	n/a
970.5703125	n/a	248466	largeTSmallT	correct	congruent	0.375	no	T	T
970.9453125	n/a	248562	responseSmallT	correct	n/a	0.375	no	n/a	n/a
972.0117188	n/a	248835	largeHSmallT	correct	incongruent	0.52734	no	H	T
972.5390625	n/a	248970	responseSmallT	correct	n/a	0.52734	no	n/a	n/a
973.609375	n/a	249244	largeHSmallT	correct	incongruent	0.45312	no	H	T
974.0625	n/a	249360	responseSmallT	correct	n/a	0.45312	no	n/a	n/a
975.1289062	n/a	249633	largeTSmallH	correct	incongruent	0.59375	no	T	H
975.7226562	n/a	249785	responseSmallH	correct	n/a	0.59375	no	n/a	n/a
976.78125	n/a	250056	largeHSmallT	correct	incongruent	0.40234	no	H	T
977.1835938	n/a	250159	responseSmallT	correct	n/a	0.40234	no	n/a	n/a
978.25	n/a	250432	largeHSmallT	error	incongruent	0.38281	no	H	T
978.6328125	n/a	250530	responseSmallH	error	n/a	0.38281	no	n/a	n/a
979.703125	n/a	250804	largeHSmallT	correct	incongruent	0.54297	no	H	T
980.2460938	n/a	250943	responseSmallT	correct	n/a	0.54297	no	n/a	n/a
981.3164062	n/a	251217	largeHSmallT	correct	incongruent	0.53516	no	H	T
981.8515625	n/a	251354	responseSmallT	correct	n/a	0.53516	no	n/a	n/a
982.9179688	n/a	251627	largeHSmallH	correct	congruent	0.61328	no	H	H
983.53125	n/a	251784	responseSmallH	correct	n/a	0.61328	no	n/a	n/a
984.609375	n/a	252060	largeTSmallT	correct	congruent	0.43359	no	T	T
985.0429688	n/a	252171	responseSmallT	correct	n/a	0.43359	no	n/a	n/a
986.1171875	n/a	252446	largeTSmallH	correct	incongruent	0.41406	no	T	H
986.53125	n/a	252552	responseSmallH	correct	n/a	0.41406	no	n/a	n/a
987.5976562	n/a	252825	largeHSmallT	correct	incongruent	0.36328	no	H	T
987.9609375	n/a	252918	responseSmallT	correct	n/a	0.36328	no	n/a	n/a
989.0351562	n/a	253193	largeTSmallT	correct	congruent	0.44531	no	T	T
989.4804688	n/a	253307	responseSmallT	correct	n/a	0.44531	no	n/a	n/a
990.5429688	n/a	253579	largeHSmallH	correct	congruent	0.39844	no	H	H
990.9414062	n/a	253681	responseSmallH	correct	n/a	0.39844	no	n/a	n/a
992.0234375	n/a	253958	largeHSmallT	error	incongruent	0.45312	no	H	T
992.4765625	n/a	254074	responseSmallH	error	n/a	0.45312	no	n/a	n/a
993.5429688	n/a	254347	largeHSmallT	correct	incongruent	0.50391	no	H	T
994.046875	n/a	254476	responseSmallT	correct	n/a	0.50391	no	n/a	n/a
995.1171875	n/a	254750	largeHSmallH	correct	congruent	0.39453	no	H	H
995.5117188	n/a	254851	responseSmallH	correct	n/a	0.39453	no	n/a	n/a
996.5820312	n/a	255125	largeHSmallT	correct	incongruent	0.44141	no	H	T
997.0234375	n/a	255238	responseSmallT	correct	n/a	0.44141	no	n/a	n/a
998.1015625	n/a	255514	largeHSmallH	correct	congruent	0.43359	no	H	H
998.5351562	n/a	255625	responseSmallH	correct	n/a	0.43359	no	n/a	n/a
999.609375	n/a	255900	largeTSmallT	correct	congruent	0.39453	no	T	T
1000.003906	n/a	256001	responseSmallT	correct	n/a	0.39453	no	n/a	n/a
1001.074219	n/a	256275	largeTSmallH	correct	incongruent	0.40234	no	T	H
1001.476562	n/a	256378	responseSmallH	correct	n/a	0.40234	no	n/a	n/a
1002.542969	n/a	256651	largeHSmallT	correct	incongruent	0.41406	no	H	T
1002.957031	n/a	256757	responseSmallT	correct	n/a	0.41406	no	n/a	n/a
1004.023438	n/a	257030	largeTSmallH	correct	incongruent	0.39844	no	T	H
1004.421875	n/a	257132	responseSmallH	correct	n/a	0.39844	no	n/a	n/a
1005.488281	n/a	257405	largeTSmallH	correct	incongruent	0.59766	no	T	H
1006.085938	n/a	257558	responseSmallH	correct	n/a	0.59766	no	n/a	n/a
1007.15625	n/a	257832	largeTSmallT	correct	congruent	0.36719	no	T	T
1007.523438	n/a	257926	responseSmallT	correct	n/a	0.36719	no	n/a	n/a
1008.597656	n/a	258201	largeTSmallT	correct	congruent	0.48047	no	T	T
1009.078125	n/a	258324	responseSmallT	correct	n/a	0.48047	no	n/a	n/a
1010.15625	n/a	258600	largeTSmallH	correct	incongruent	0.42578	no	T	H
1010.582031	n/a	258709	responseSmallH	correct	n/a	0.42578	no	n/a	n/a
1011.648438	n/a	258982	largeHSmallT	correct	incongruent	0.46094	no	H	T
1012.109375	n/a	259100	responseSmallT	correct	n/a	0.46094	no	n/a	n/a
1013.183594	n/a	259375	largeTSmallT	error	congruent	0.39062	no	T	T
1013.574219	n/a	259475	responseSmallH	error	n/a	0.39062	no	n/a	n/a
1014.648438	n/a	259750	largeHSmallT	correct	incongruent	0.50391	no	H	T
1015.152344	n/a	259879	responseSmallT	correct	n/a	0.50391	no	n/a	n/a
1016.222656	n/a	260153	largeTSmallH	correct	incongruent	0.46875	no	T	H
1016.691406	n/a	260273	responseSmallH	correct	n/a	0.46875	no	n/a	n/a
1017.753906	n/a	260545	largeTSmallH	correct	incongruent	0.46875	no	T	H
1018.222656	n/a	260665	responseSmallH	correct	n/a	0.46875	no	n/a	n/a
1019.300781	n/a	260941	largeHSmallH	correct	congruent	0.45703	no	H	H
1019.757812	n/a	261058	responseSmallH	correct	n/a	0.45703	no	n/a	n/a
1020.820312	n/a	261330	largeTSmallH	correct	incongruent	0.38672	no	T	H
1021.207031	n/a	261429	responseSmallH	correct	n/a	0.38672	no	n/a	n/a
1022.273438	n/a	261702	largeHSmallT	correct	incongruent	0.46094	no	H	T
1022.734375	n/a	261820	responseSmallT	correct	n/a	0.46094	no	n/a	n/a
1023.808594	n/a	262095	largeTSmallT	correct	congruent	0.45703	no	T	T
1024.265625	n/a	262212	responseSmallT	correct	n/a	0.45703	no	n/a	n/a
1025.34375	n/a	262488	largeHSmallT	correct	incongruent	0.47266	no	H	T
1025.816406	n/a	262609	responseSmallT	correct	n/a	0.47266	no	n/a	n/a
1026.875	n/a	262880	largeTSmallH	correct	incongruent	0.44531	no	T	H
1027.320312	n/a	262994	responseSmallH	correct	n/a	0.44531	no	n/a	n/a
1028.394531	n/a	263269	largeTSmallT	correct	congruent	0.55859	no	T	T
1028.953125	n/a	263412	responseSmallT	correct	n/a	0.55859	no	n/a	n/a
1030.007812	n/a	263682	largeTSmallT	correct	congruent	0.45312	no	T	T
1030.460938	n/a	263798	responseSmallT	correct	n/a	0.45312	no	n/a	n/a
1031.527344	n/a	264071	largeTSmallT	correct	congruent	0.50781	no	T	T
1032.035156	n/a	264201	responseSmallT	correct	n/a	0.50781	no	n/a	n/a
1033.101562	n/a	264474	largeTSmallH	correct	incongruent	0.42188	no	T	H
1033.523438	n/a	264582	responseSmallH	correct	n/a	0.42188	no	n/a	n/a
1034.59375	n/a	264856	largeTSmallT	correct	congruent	0.43359	no	T	T
1035.027344	n/a	264967	responseSmallT	correct	n/a	0.43359	no	n/a	n/a
1036.101562	n/a	265242	largeHSmallT	correct	incongruent	0.46484	no	H	T
1036.566406	n/a	265361	responseSmallT	correct	n/a	0.46484	no	n/a	n/a
1037.648438	n/a	265638	largeHSmallT	correct	incongruent	0.52734	no	H	T
1038.175781	n/a	265773	responseSmallT	correct	n/a	0.52734	no	n/a	n/a
1039.25	n/a	266048	largeHSmallT	correct	incongruent	0.42969	no	H	T
1039.679688	n/a	266158	responseSmallT	correct	n/a	0.42969	no	n/a	n/a
1040.753906	n/a	266433	largeTSmallT	correct	congruent	0.42969	no	T	T
1041.183594	n/a	266543	responseSmallT	correct	n/a	0.42969	no	n/a	n/a
1042.261719	n/a	266819	largeHSmallT	correct	incongruent	0.48438	no	H	T
1042.746094	n/a	266943	responseSmallT	correct	n/a	0.48438	no	n/a	n/a
1043.820312	n/a	267218	largeTSmallT	correct	congruent	0.42969	no	T	T
1044.25	n/a	267328	responseSmallT	correct	n/a	0.42969	no	n/a	n/a
1045.316406	n/a	267601	largeHSmallT	correct	incongruent	0.38672	no	H	T
1045.703125	n/a	267700	responseSmallT	correct	n/a	0.38672	no	n/a	n/a
1046.769531	n/a	267973	largeHSmallH	correct	congruent	0.43359	no	H	H
1047.203125	n/a	268084	responseSmallH	correct	n/a	0.43359	no	n/a	n/a
1048.273438	n/a	268358	largeTSmallH	correct	incongruent	0.49219	no	T	H
1048.765625	n/a	268484	responseSmallH	correct	n/a	0.49219	no	n/a	n/a
1049.835938	n/a	268758	largeTSmallT	correct	congruent	0.44531	no	T	T
1050.28125	n/a	268872	responseSmallT	correct	n/a	0.44531	no	n/a	n/a
1051.355469	n/a	269147	largeTSmallT	correct	congruent	0.45703	no	T	T
1051.8125	n/a	269264	responseSmallT	correct	n/a	0.45703	no	n/a	n/a
1052.886719	n/a	269539	largeHSmallT	correct	incongruent	0.49219	no	H	T
1053.378906	n/a	269665	responseSmallT	correct	n/a	0.49219	no	n/a	n/a
1054.449219	n/a	269939	largeTSmallT	error	congruent	0.45703	no	T	T
1054.90625	n/a	270056	responseSmallH	error	n/a	0.45703	no	n/a	n/a
1055.980469	n/a	270331	largeTSmallH	correct	incongruent	0.39844	no	T	H
1056.378906	n/a	270433	responseSmallH	correct	n/a	0.39844	no	n/a	n/a
1057.460938	n/a	270710	largeHSmallT	correct	incongruent	0.38281	no	H	T
1057.84375	n/a	270808	responseSmallT	correct	n/a	0.38281	no	n/a	n/a
1058.925781	n/a	271085	largeHSmallT	correct	incongruent	0.47266	no	H	T
1059.398438	n/a	271206	responseSmallT	correct	n/a	0.47266	no	n/a	n/a
1060.460938	n/a	271478	largeHSmallH	correct	congruent	0.50391	no	H	H
1060.964844	n/a	271607	responseSmallH	correct	n/a	0.50391	no	n/a	n/a
1062.019531	n/a	271877	largeTSmallT	correct	congruent	0.40625	no	T	T
1062.425781	n/a	271981	responseSmallT	correct	n/a	0.40625	no	n/a	n/a
1063.5	n/a	272256	largeTSmallH	correct	incongruent	0.44922	no	T	H
1063.949219	n/a	272371	responseSmallH	correct	n/a	0.44922	no	n/a	n/a
1065.019531	n/a	272645	largeTSmallT	correct	congruent	0.4375	no	T	T
1065.457031	n/a	272757	responseSmallT	correct	n/a	0.4375	no	n/a	n/a
1066.527344	n/a	273031	largeHSmallH	correct	congruent	0.41406	no	H	H
1066.941406	n/a	273137	responseSmallH	correct	n/a	0.41406	no	n/a	n/a
1068.019531	n/a	273413	largeTSmallH	correct	incongruent	0.56641	no	T	H
1068.585938	n/a	273558	responseSmallH	correct	n/a	0.56641	no	n/a	n/a
1069.660156	n/a	273833	largeTSmallT	correct	congruent	0.45703	no	T	T
1070.117188	n/a	273950	responseSmallT	correct	n/a	0.45703	no	n/a	n/a
1071.179688	n/a	274222	largeHSmallH	correct	congruent	0.38281	no	H	H
1071.5625	n/a	274320	responseSmallH	correct	n/a	0.38281	no	n/a	n/a
1072.632812	n/a	274594	largeTSmallH	correct	incongruent	1.0234	no	T	H
1073.65625	n/a	274856	responseSmallH	correct	n/a	1.0234	no	n/a	n/a
1074.726562	n/a	275130	largeHSmallH	error	congruent	0.47266	no	H	H
1075.199219	n/a	275251	responseSmallT	error	n/a	0.47266	no	n/a	n/a
1076.273438	n/a	275526	largeTSmallH	correct	incongruent	0.43359	no	T	H
1076.707031	n/a	275637	responseSmallH	correct	n/a	0.43359	no	n/a	n/a
1077.78125	n/a	275912	largeHSmallH	correct	congruent	0.39844	no	H	H
1078.179688	n/a	276014	responseSmallH	correct	n/a	0.39844	no	n/a	n/a
1079.246094	n/a	276287	largeTSmallT	correct	congruent	0.44141	no	T	T
1079.6875	n/a	276400	responseSmallT	correct	n/a	0.44141	no	n/a	n/a
1080.765625	n/a	276676	largeHSmallT	error	incongruent	0.39062	no	H	T
1081.15625	n/a	276776	responseSmallH	error	n/a	0.39062	no	n/a	n/a
1082.234375	n/a	277052	largeHSmallH	correct	congruent	0.42578	no	H	H
1082.660156	n/a	277161	responseSmallH	correct	n/a	0.42578	no	n/a	n/a
1083.726562	n/a	277434	largeHSmallT	error	incongruent	0.46094	no	H	T
1084.1875	n/a	277552	responseSmallH	error	n/a	0.46094	no	n/a	n/a
1085.261719	n/a	277827	largeHSmallH	correct	congruent	0.41406	no	H	H
1085.675781	n/a	277933	responseSmallH	correct	n/a	0.41406	no	n/a	n/a
1086.742188	n/a	278206	largeHSmallT	correct	incongruent	0.39453	no	H	T
1087.136719	n/a	278307	responseSmallT	correct	n/a	0.39453	no	n/a	n/a
1088.207031	n/a	278581	largeHSmallT	correct	incongruent	0.42188	no	H	T
1088.628906	n/a	278689	responseSmallT	correct	n/a	0.42188	no	n/a	n/a
1089.699219	n/a	278963	largeTSmallT	correct	congruent	0.48047	no	T	T
1090.179688	n/a	279086	responseSmallT	correct	n/a	0.48047	no	n/a	n/a
1091.246094	n/a	279359	largeHSmallH	correct	congruent	0.47656	no	H	H
1091.722656	n/a	279481	responseSmallH	correct	n/a	0.47656	no	n/a	n/a
1092.792969	n/a	279755	largeHSmallH	correct	congruent	0.51172	no	H	H
1093.304688	n/a	279886	responseSmallH	correct	n/a	0.51172	no	n/a	n/a
1094.378906	n/a	280161	largeHSmallT	correct	incongruent	0.50391	no	H	T
1094.882812	n/a	280290	responseSmallT	correct	n/a	0.50391	no	n/a	n/a
1095.953125	n/a	280564	largeTSmallH	correct	incongruent	0.53906	no	T	H
1096.492188	n/a	280702	responseSmallH	correct	n/a	0.53906	no	n/a	n/a
1097.566406	n/a	280977	largeHSmallT	correct	incongruent	0.47656	no	H	T
1098.042969	n/a	281099	responseSmallT	correct	n/a	0.47656	no	n/a	n/a
1099.113281	n/a	281373	largeHSmallH	correct	congruent	0.375	no	H	H
1099.488281	n/a	281469	responseSmallH	correct	n/a	0.375	no	n/a	n/a
1100.554688	n/a	281742	largeTSmallH	correct	incongruent	0.49609	no	T	H
1101.050781	n/a	281869	responseSmallH	correct	n/a	0.49609	no	n/a	n/a
1102.113281	n/a	282141	largeTSmallH	correct	incongruent	0.42969	no	T	H
1102.542969	n/a	282251	responseSmallH	correct	n/a	0.42969	no	n/a	n/a
1103.621094	n/a	282527	largeHSmallH	correct	congruent	0.49609	no	H	H
1104.117188	n/a	282654	responseSmallH	correct	n/a	0.49609	no	n/a	n/a
1105.191406	n/a	282929	largeHSmallH	correct	congruent	0.41016	no	H	H
1105.601562	n/a	283034	responseSmallH	correct	n/a	0.41016	no	n/a	n/a
1106.671875	n/a	283308	largeHSmallH	correct	congruent	0.39062	no	H	H
1107.0625	n/a	283408	responseSmallH	correct	n/a	0.39062	no	n/a	n/a
1108.140625	n/a	283684	largeHSmallH	correct	congruent	0.39062	no	H	H
1108.53125	n/a	283784	responseSmallH	correct	n/a	0.39062	no	n/a	n/a
1109.605469	n/a	284059	largeTSmallT	correct	congruent	0.39844	no	T	T
1110.003906	n/a	284161	responseSmallT	correct	n/a	0.39844	no	n/a	n/a
1111.074219	n/a	284435	largeTSmallH	correct	incongruent	0.39844	no	T	H
1111.472656	n/a	284537	responseSmallH	correct	n/a	0.39844	no	n/a	n/a
1112.539062	n/a	284810	largeHSmallH	correct	congruent	0.40625	no	H	H
1112.945312	n/a	284914	responseSmallH	correct	n/a	0.40625	no	n/a	n/a
1114.019531	n/a	285189	largeTSmallH	correct	incongruent	0.39844	no	T	H
1114.417969	n/a	285291	responseSmallH	correct	n/a	0.39844	no	n/a	n/a
1115.484375	n/a	285564	largeHSmallH	correct	congruent	0.39453	no	H	H
1115.878906	n/a	285665	responseSmallH	correct	n/a	0.39453	no	n/a	n/a
1116.953125	n/a	285940	largeHSmallH	correct	congruent	0.36328	no	H	H
1117.316406	n/a	286033	responseSmallH	correct	n/a	0.36328	no	n/a	n/a
1118.394531	n/a	286309	largeHSmallT	correct	incongruent	0.55469	no	H	T
1118.949219	n/a	286451	responseSmallT	correct	n/a	0.55469	no	n/a	n/a
1120.03125	n/a	286728	largeTSmallH	correct	incongruent	0.47656	no	T	H
1120.507812	n/a	286850	responseSmallH	correct	n/a	0.47656	no	n/a	n/a
1121.578125	n/a	287124	largeHSmallH	correct	congruent	0.4375	no	H	H
1122.015625	n/a	287236	responseSmallH	correct	n/a	0.4375	no	n/a	n/a
1123.085938	n/a	287510	largeHSmallH	correct	congruent	0.46094	no	H	H
1123.546875	n/a	287628	responseSmallH	correct	n/a	0.46094	no	n/a	n/a
1124.621094	n/a	287903	largeTSmallT	correct	congruent	0.44922	no	T	T
1125.070312	n/a	288018	responseSmallT	correct	n/a	0.44922	no	n/a	n/a
1126.140625	n/a	288292	largeTSmallH	correct	incongruent	0.44922	no	T	H
1126.589844	n/a	288407	responseSmallH	correct	n/a	0.44922	no	n/a	n/a
1127.660156	n/a	288681	largeHSmallH	correct	congruent	0.43359	no	H	H
1128.09375	n/a	288792	responseSmallH	correct	n/a	0.43359	no	n/a	n/a
1129.164062	n/a	289066	largeTSmallH	correct	incongruent	0.39453	no	T	H
1129.558594	n/a	289167	responseSmallH	correct	n/a	0.39453	no	n/a	n/a
1130.632812	n/a	289442	largeTSmallH	correct	incongruent	0.35938	no	T	H
1130.992188	n/a	289534	responseSmallH	correct	n/a	0.35938	no	n/a	n/a
1132.058594	n/a	289807	largeTSmallH	correct	incongruent	0.40625	no	T	H
1132.464844	n/a	289911	responseSmallH	correct	n/a	0.40625	no	n/a	n/a
1133.539062	n/a	290186	largeTSmallT	error	congruent	0.36328	no	T	T
1133.902344	n/a	290279	responseSmallH	error	n/a	0.36328	no	n/a	n/a
1134.980469	n/a	290555	largeTSmallH	correct	incongruent	0.41797	no	T	H
1135.398438	n/a	290662	responseSmallH	correct	n/a	0.41797	no	n/a	n/a
1136.472656	n/a	290937	largeTSmallH	correct	incongruent	0.44922	no	T	H
1136.921875	n/a	291052	responseSmallH	correct	n/a	0.44922	no	n/a	n/a
1138.003906	n/a	291329	largeHSmallH	correct	congruent	0.41797	no	H	H
1138.421875	n/a	291436	responseSmallH	correct	n/a	0.41797	no	n/a	n/a
1139.5	n/a	291712	largeTSmallH	correct	incongruent	0.44531	no	T	H
1139.945312	n/a	291826	responseSmallH	correct	n/a	0.44531	no	n/a	n/a
1141.003906	n/a	292097	largeTSmallH	correct	incongruent	0.42969	no	T	H
1141.433594	n/a	292207	responseSmallH	correct	n/a	0.42969	no	n/a	n/a
1142.511719	n/a	292483	largeHSmallT	correct	incongruent	0.58594	no	H	T
1143.097656	n/a	292633	responseSmallT	correct	n/a	0.58594	no	n/a	n/a
1144.164062	n/a	292906	largeHSmallT	error	incongruent	0.40234	no	H	T
1144.566406	n/a	293009	responseSmallH	error	n/a	0.40234	no	n/a	n/a
