onset	duration	sample	value	stimulus	response_type	response_time
49.9609375	n/a	12790	C	nontarget	n/a	n/a
51.60546875	n/a	13211	C	nontarget	n/a	n/a
53.19140625	n/a	13617	D	nontarget	n/a	n/a
54.76953125	n/a	14021	A	nontarget	n/a	n/a
56.34375	n/a	14424	C	target	miss	n/a
57.91796875	n/a	14827	B	nontarget	miss	n/a
59.4921875	n/a	15230	B	nontarget	n/a	n/a
61.05078125	n/a	15629	D	nontarget	false_alarm	1066.4062
62.1171875	n/a	15902	rt	n/a	false_alarm	1066.4062
62.61328125	n/a	16029	B	target	hit	1328.125
63.94140625	n/a	16369	rt	n/a	hit	1328.125
64.19921875	n/a	16435	D	nontarget	n/a	n/a
65.76953125	n/a	16837	A	nontarget	n/a	n/a
67.34375	n/a	17240	C	nontarget	n/a	n/a
68.91796875	n/a	17643	D	target	miss	n/a
70.4921875	n/a	18046	C	nontarget	miss	n/a
72.0625	n/a	18448	D	nontarget	n/a	n/a
73.625	n/a	18848	C	nontarget	n/a	n/a
75.18359375	n/a	19247	C	target	hit	257.8125
75.44140625	n/a	19313	rt	n/a	hit	257.8125
76.7421875	n/a	19646	A	nontarget	n/a	n/a
78.3046875	n/a	20046	C	target	miss	n/a
79.86328125	n/a	20445	A	nontarget	miss	n/a
81.421875	n/a	20844	B	nontarget	n/a	n/a
82.984375	n/a	21244	B	nontarget	n/a	n/a
84.54296875	n/a	21643	C	nontarget	n/a	n/a
86.10546875	n/a	22043	B	target	miss	n/a
87.6640625	n/a	22442	D	nontarget	miss	n/a
89.22265625	n/a	22841	C	target	miss	n/a
90.78515625	n/a	23241	C	nontarget	miss	n/a
92.35546875	n/a	23643	D	target	hit	1117.1875
93.47265625	n/a	23929	rt	n/a	hit	1117.1875
93.91796875	n/a	24043	A	nontarget	n/a	n/a
95.4765625	n/a	24442	D	nontarget	n/a	n/a
97.03515625	n/a	24841	C	nontarget	n/a	n/a
98.59765625	n/a	25241	A	target	miss	n/a
100.15625	n/a	25640	D	target	miss	n/a
101.7148438	n/a	26039	D	nontarget	miss	n/a
103.2773438	n/a	26439	B	nontarget	n/a	n/a
104.8359375	n/a	26838	A	nontarget	n/a	n/a
106.3945312	n/a	27237	C	nontarget	n/a	n/a
107.9570312	n/a	27637	C	nontarget	n/a	n/a
109.515625	n/a	28036	C	nontarget	n/a	n/a
111.078125	n/a	28436	A	nontarget	false_alarm	1238.2812
112.3164062	n/a	28753	rt	n/a	false_alarm	1238.2812
112.6367188	n/a	28835	B	nontarget	n/a	n/a
114.2109375	n/a	29238	A	nontarget	n/a	n/a
115.78125	n/a	29640	D	nontarget	n/a	n/a
117.3554688	n/a	30043	B	target	late_hit	1652.3438
118.9296875	n/a	30446	D	nontarget	late_hit	n/a
119.0078125	n/a	30466	rt	n/a	n/a	78.125
120.5039062	n/a	30849	A	nontarget	false_alarm	945.3125
121.4492188	n/a	31091	rt	n/a	false_alarm	945.3125
122.0625	n/a	31248	A	nontarget	n/a	n/a
123.6210938	n/a	31647	C	nontarget	n/a	n/a
125.1835938	n/a	32047	B	nontarget	n/a	n/a
126.7421875	n/a	32446	C	nontarget	n/a	n/a
128.3007812	n/a	32845	B	nontarget	n/a	n/a
129.8632812	n/a	33245	A	nontarget	n/a	n/a
131.421875	n/a	33644	B	nontarget	n/a	n/a
132.984375	n/a	34044	A	nontarget	n/a	n/a
134.5546875	n/a	34446	A	target	miss	n/a
136.1171875	n/a	34846	A	nontarget	miss	n/a
137.6757812	n/a	35245	A	target	miss	n/a
139.234375	n/a	35644	C	nontarget	miss	n/a
140.796875	n/a	36044	D	nontarget	n/a	n/a
142.3554688	n/a	36443	D	nontarget	n/a	n/a
143.9140625	n/a	36842	C	target	miss	n/a
145.4765625	n/a	37242	D	target	miss	n/a
147.0351562	n/a	37641	B	nontarget	miss	n/a
148.59375	n/a	38040	B	nontarget	n/a	n/a
150.15625	n/a	38440	C	nontarget	n/a	n/a
151.7148438	n/a	38839	B	target	hit	1101.5625
152.8164062	n/a	39121	rt	n/a	hit	1101.5625
153.2734375	n/a	39238	A	nontarget	n/a	n/a
154.8359375	n/a	39638	D	nontarget	n/a	n/a
156.4101562	n/a	40041	A	nontarget	n/a	n/a
157.96875	n/a	40440	C	nontarget	n/a	n/a
159.5429688	n/a	40843	D	target	miss	n/a
161.1171875	n/a	41246	D	nontarget	miss	n/a
162.6875	n/a	41648	B	nontarget	n/a	n/a
164.2617188	n/a	42051	B	nontarget	n/a	n/a
165.8203125	n/a	42450	D	target	miss	n/a
167.3828125	n/a	42850	D	nontarget	miss	n/a
168.9414062	n/a	43249	C	nontarget	n/a	n/a
170.5	n/a	43648	C	nontarget	n/a	n/a
172.0742188	n/a	44051	D	target	late_hit	1625
173.6328125	n/a	44450	B	nontarget	late_hit	n/a
173.6992188	n/a	44467	rt	n/a	n/a	66.4062
175.1953125	n/a	44850	C	target	miss	n/a
176.7539062	n/a	45249	B	nontarget	miss	n/a
178.3164062	n/a	45649	B	target	miss	n/a
179.875	n/a	46048	D	nontarget	miss	n/a
181.4335938	n/a	46447	D	nontarget	n/a	n/a
182.9960938	n/a	46847	B	target	hit	1089.8438
184.0859375	n/a	47126	rt	n/a	hit	1089.8438
184.5546875	n/a	47246	D	target	hit	1074.2188
185.6289062	n/a	47521	rt	n/a	hit	1074.2188
186.1132812	n/a	47645	B	nontarget	n/a	n/a
187.6757812	n/a	48045	B	target	miss	n/a
189.234375	n/a	48444	D	target	hit	1003.9062
190.2382812	n/a	48701	rt	n/a	hit	1003.9062
190.7929688	n/a	48843	B	target	hit	1507.8125
192.3007812	n/a	49229	rt	n/a	hit	1507.8125
192.375	n/a	49248	C	nontarget	n/a	n/a
193.9414062	n/a	49649	C	nontarget	n/a	n/a
195.515625	n/a	50052	A	nontarget	n/a	n/a
197.0859375	n/a	50454	C	target	hit	1164.0625
198.25	n/a	50752	rt	n/a	hit	1164.0625
198.6601562	n/a	50857	D	nontarget	n/a	n/a
200.234375	n/a	51260	A	target	hit	1074.2188
201.3085938	n/a	51535	rt	n/a	hit	1074.2188
201.7929688	n/a	51659	C	target	miss	n/a
203.3554688	n/a	52059	C	nontarget	miss	n/a
204.9140625	n/a	52458	A	target	hit	1253.9062
206.1679688	n/a	52779	rt	n/a	hit	1253.9062
206.4726562	n/a	52857	D	nontarget	n/a	n/a
208.0351562	n/a	53257	C	target	hit	1039.0625
209.0742188	n/a	53523	rt	n/a	hit	1039.0625
209.59375	n/a	53656	C	nontarget	n/a	n/a
211.15625	n/a	54056	C	nontarget	n/a	n/a
212.7148438	n/a	54455	D	nontarget	n/a	n/a
214.2734375	n/a	54854	B	nontarget	n/a	n/a
215.8359375	n/a	55254	B	nontarget	n/a	n/a
217.3945312	n/a	55653	D	target	hit	1226.5625
218.6210938	n/a	55967	rt	n/a	hit	1226.5625
218.953125	n/a	56052	D	nontarget	n/a	n/a
220.515625	n/a	56452	B	target	hit	1082.0312
221.5976562	n/a	56729	rt	n/a	hit	1082.0312
222.0742188	n/a	56851	A	nontarget	n/a	n/a
223.6328125	n/a	57250	B	nontarget	n/a	n/a
225.1953125	n/a	57650	D	nontarget	n/a	n/a
226.7539062	n/a	58049	A	target	late_hit	1636.7188
228.3125	n/a	58448	A	nontarget	late_hit	n/a
228.390625	n/a	58468	rt	n/a	n/a	78.125
229.875	n/a	58848	C	nontarget	n/a	n/a
231.4335938	n/a	59247	B	nontarget	n/a	n/a
232.9921875	n/a	59646	D	nontarget	n/a	n/a
234.5546875	n/a	60046	D	nontarget	n/a	n/a
236.1132812	n/a	60445	C	nontarget	n/a	n/a
237.671875	n/a	60844	C	nontarget	n/a	n/a
239.234375	n/a	61244	C	nontarget	n/a	n/a
240.7929688	n/a	61643	C	target	hit	828.125
241.6210938	n/a	61855	rt	n/a	hit	828.125
242.3515625	n/a	62042	A	nontarget	n/a	n/a
243.9140625	n/a	62442	D	nontarget	n/a	n/a
245.4726562	n/a	62841	B	nontarget	n/a	n/a
247.0351562	n/a	63241	A	target	miss	n/a
248.59375	n/a	63640	D	target	miss	n/a
250.1523438	n/a	64039	B	target	miss	n/a
251.7148438	n/a	64439	B	nontarget	miss	n/a
253.2734375	n/a	64838	D	target	hit	839.8438
254.1132812	n/a	65053	rt	n/a	hit	839.8438
254.8320312	n/a	65237	A	nontarget	n/a	n/a
256.3945312	n/a	65637	A	nontarget	n/a	n/a
257.953125	n/a	66036	B	nontarget	n/a	n/a
259.5117188	n/a	66435	A	target	miss	n/a
261.0742188	n/a	66835	B	nontarget	miss	n/a
262.6328125	n/a	67234	C	nontarget	n/a	n/a
264.1914062	n/a	67633	B	nontarget	false_alarm	1007.8125
265.1992188	n/a	67891	rt	n/a	false_alarm	1007.8125
265.7539062	n/a	68033	D	nontarget	n/a	n/a
267.3125	n/a	68432	D	nontarget	n/a	n/a
268.8710938	n/a	68831	A	nontarget	n/a	n/a
270.4335938	n/a	69231	A	nontarget	n/a	n/a
271.9921875	n/a	69630	A	nontarget	n/a	n/a
273.5546875	n/a	70030	D	nontarget	false_alarm	902.3438
274.4570312	n/a	70261	rt	n/a	false_alarm	902.3438
275.1132812	n/a	70429	B	nontarget	n/a	n/a
276.671875	n/a	70828	D	nontarget	n/a	n/a
278.234375	n/a	71228	B	nontarget	n/a	n/a
279.7929688	n/a	71627	D	nontarget	n/a	n/a
281.3515625	n/a	72026	D	target	hit	878.9062
282.2304688	n/a	72251	rt	n/a	hit	878.9062
282.9140625	n/a	72426	D	nontarget	n/a	n/a
284.4726562	n/a	72825	C	nontarget	n/a	n/a
286.03125	n/a	73224	D	target	miss	n/a
287.59375	n/a	73624	C	nontarget	miss	n/a
289.1523438	n/a	74023	A	nontarget	n/a	n/a
290.7109375	n/a	74422	D	target	miss	n/a
292.2734375	n/a	74822	B	nontarget	false_alarm	234.375
292.5078125	n/a	74882	rt	n/a	false_alarm	234.375
293.8320312	n/a	75221	A	target	miss	n/a
295.390625	n/a	75620	A	nontarget	miss	n/a
296.953125	n/a	76020	A	nontarget	n/a	n/a
298.5117188	n/a	76419	D	nontarget	n/a	n/a
300.0703125	n/a	76818	B	nontarget	n/a	n/a
301.6328125	n/a	77218	D	nontarget	n/a	n/a
303.1914062	n/a	77617	A	nontarget	n/a	n/a
304.7539062	n/a	78017	B	target	hit	1171.875
305.9257812	n/a	78317	rt	n/a	hit	1171.875
306.3125	n/a	78416	D	target	miss	n/a
307.8710938	n/a	78815	A	target	miss	n/a
309.4453125	n/a	79218	C	nontarget	miss	n/a
311.0195312	n/a	79621	B	nontarget	n/a	n/a
312.5898438	n/a	80023	C	nontarget	false_alarm	1355.4688
313.9453125	n/a	80370	rt	n/a	false_alarm	1355.4688
314.1640625	n/a	80426	C	target	miss	n/a
315.7382812	n/a	80829	B	target	miss	n/a
317.3125	n/a	81232	B	nontarget	miss	n/a
318.8710938	n/a	81631	D	nontarget	n/a	n/a
320.4335938	n/a	82031	A	nontarget	n/a	n/a
321.9921875	n/a	82430	B	target	hit	1070.3125
323.0625	n/a	82704	rt	n/a	hit	1070.3125
323.5507812	n/a	82829	D	target	hit	1156.25
324.7070312	n/a	83125	rt	n/a	hit	1156.25
325.109375	n/a	83228	C	nontarget	n/a	n/a
326.671875	n/a	83628	D	nontarget	n/a	n/a
328.2304688	n/a	84027	C	nontarget	n/a	n/a
329.7929688	n/a	84427	D	nontarget	n/a	n/a
331.3515625	n/a	84826	C	nontarget	false_alarm	894.5312
332.2460938	n/a	85055	rt	n/a	false_alarm	894.5312
332.9101562	n/a	85225	A	nontarget	n/a	n/a
334.4726562	n/a	85625	A	nontarget	n/a	n/a
336.03125	n/a	86024	B	nontarget	n/a	n/a
337.5898438	n/a	86423	B	nontarget	n/a	n/a
339.1523438	n/a	86823	A	target	hit	984.375
340.1367188	n/a	87075	rt	n/a	hit	984.375
340.7109375	n/a	87222	C	nontarget	n/a	n/a
342.2695312	n/a	87621	A	nontarget	n/a	n/a
343.8320312	n/a	88021	B	nontarget	n/a	n/a
345.390625	n/a	88420	B	nontarget	n/a	n/a
346.953125	n/a	88820	B	nontarget	n/a	n/a
348.5117188	n/a	89219	A	nontarget	n/a	n/a
350.0703125	n/a	89618	C	nontarget	n/a	n/a
351.6289062	n/a	90017	B	target	hit	1214.8438
352.84375	n/a	90328	rt	n/a	hit	1214.8438
353.1914062	n/a	90417	D	nontarget	n/a	n/a
354.75	n/a	90816	B	nontarget	n/a	n/a
356.3125	n/a	91216	C	nontarget	n/a	n/a
357.8710938	n/a	91615	C	nontarget	n/a	n/a
359.4296875	n/a	92014	B	target	miss	n/a
360.9921875	n/a	92414	D	nontarget	miss	n/a
362.5507812	n/a	92813	A	nontarget	n/a	n/a
364.109375	n/a	93212	A	nontarget	n/a	n/a
365.671875	n/a	93612	C	nontarget	n/a	n/a
367.2304688	n/a	94011	A	target	miss	n/a
368.7890625	n/a	94410	A	target	miss	n/a
370.3515625	n/a	94810	C	target	hit	187.5
370.5390625	n/a	94858	rt	n/a	hit	187.5
371.9257812	n/a	95213	A	target	hit	70.3125
371.9960938	n/a	95231	rt	n/a	hit	70.3125
373.4960938	n/a	95615	B	nontarget	n/a	n/a
375.0703125	n/a	96018	B	nontarget	n/a	n/a
376.6445312	n/a	96421	D	nontarget	n/a	n/a
378.21875	n/a	96824	A	nontarget	n/a	n/a
379.7890625	n/a	97226	A	nontarget	n/a	n/a
381.3515625	n/a	97626	A	nontarget	n/a	n/a
382.9101562	n/a	98025	B	nontarget	n/a	n/a
384.46875	n/a	98424	D	nontarget	false_alarm	832.0312
385.3007812	n/a	98637	rt	n/a	false_alarm	832.0312
386.03125	n/a	98824	D	nontarget	n/a	n/a
387.5898438	n/a	99223	D	nontarget	n/a	n/a
389.1484375	n/a	99622	A	nontarget	n/a	n/a
390.7109375	n/a	100022	A	nontarget	n/a	n/a
392.2695312	n/a	100421	D	target	hit	738.2812
393.0078125	n/a	100610	rt	n/a	hit	738.2812
393.828125	n/a	100820	C	nontarget	n/a	n/a
395.390625	n/a	101220	C	nontarget	n/a	n/a
396.9492188	n/a	101619	C	nontarget	n/a	n/a
398.5117188	n/a	102019	C	target	hit	878.9062
399.390625	n/a	102244	rt	n/a	hit	878.9062
400.0703125	n/a	102418	C	target	hit	1378.9062
401.4492188	n/a	102771	rt	n/a	hit	1378.9062
401.6289062	n/a	102817	D	nontarget	n/a	n/a
403.1914062	n/a	103217	D	nontarget	n/a	n/a
404.75	n/a	103616	D	nontarget	n/a	n/a
406.3085938	n/a	104015	C	nontarget	n/a	n/a
407.8710938	n/a	104415	B	nontarget	n/a	n/a
409.4296875	n/a	104814	C	nontarget	n/a	n/a
410.9882812	n/a	105213	D	nontarget	false_alarm	1250
412.2382812	n/a	105533	rt	n/a	false_alarm	1250
412.5507812	n/a	105613	B	target	hit	1457.0312
414.0078125	n/a	105986	rt	n/a	hit	1457.0312
414.109375	n/a	106012	C	target	miss	n/a
415.6835938	n/a	106415	B	nontarget	miss	n/a
417.2578125	n/a	106818	B	target	miss	n/a
418.828125	n/a	107220	D	nontarget	miss	n/a
420.4023438	n/a	107623	D	nontarget	n/a	n/a
421.9765625	n/a	108026	C	nontarget	n/a	n/a
423.5507812	n/a	108429	D	target	hit	1078.125
424.6289062	n/a	108705	rt	n/a	hit	1078.125
425.109375	n/a	108828	B	nontarget	n/a	n/a
426.6679688	n/a	109227	D	nontarget	n/a	n/a
428.2304688	n/a	109627	C	nontarget	false_alarm	878.9062
429.109375	n/a	109852	rt	n/a	false_alarm	878.9062
429.7890625	n/a	110026	A	nontarget	n/a	n/a
431.3476562	n/a	110425	A	nontarget	n/a	n/a
432.9101562	n/a	110825	D	nontarget	n/a	n/a
434.46875	n/a	111224	D	nontarget	n/a	n/a
436.0273438	n/a	111623	B	nontarget	n/a	n/a
437.5898438	n/a	112023	A	nontarget	n/a	n/a
439.1484375	n/a	112422	A	nontarget	n/a	n/a
440.7070312	n/a	112821	A	nontarget	n/a	n/a
442.2695312	n/a	113221	A	target	hit	519.5312
442.7890625	n/a	113354	rt	n/a	hit	519.5312
443.828125	n/a	113620	B	nontarget	n/a	n/a
445.390625	n/a	114020	C	nontarget	n/a	n/a
446.9492188	n/a	114419	A	target	hit	640.625
447.5898438	n/a	114583	rt	n/a	hit	640.625
448.5078125	n/a	114818	B	target	miss	n/a
450.0703125	n/a	115218	C	target	hit	417.9688
450.4882812	n/a	115325	rt	n/a	hit	417.9688
451.6289062	n/a	115617	C	nontarget	n/a	n/a
453.1875	n/a	116016	D	nontarget	n/a	n/a
454.75	n/a	116416	C	target	miss	n/a
456.3085938	n/a	116815	B	nontarget	miss	n/a
457.8671875	n/a	117214	D	target	miss	n/a
459.4296875	n/a	117614	C	target	miss	n/a
460.9882812	n/a	118013	A	nontarget	miss	n/a
462.5507812	n/a	118413	D	target	miss	n/a
464.109375	n/a	118812	A	nontarget	miss	n/a
465.6679688	n/a	119211	C	nontarget	n/a	n/a
467.2265625	n/a	119610	A	nontarget	false_alarm	1257.8125
468.484375	n/a	119932	rt	n/a	false_alarm	1257.8125
468.7890625	n/a	120010	D	nontarget	false_alarm	1265.625
470.0546875	n/a	120334	rt	n/a	false_alarm	1265.625
470.3476562	n/a	120409	C	target	miss	n/a
471.9101562	n/a	120809	D	nontarget	miss	n/a
473.46875	n/a	121208	D	target	miss	n/a
475.0273438	n/a	121607	D	nontarget	miss	n/a
476.5898438	n/a	122007	A	nontarget	n/a	n/a
478.1484375	n/a	122406	C	nontarget	n/a	n/a
479.7070312	n/a	122805	A	nontarget	n/a	n/a
481.2695312	n/a	123205	C	nontarget	n/a	n/a
482.828125	n/a	123604	C	target	miss	n/a
484.3867188	n/a	124003	B	nontarget	miss	n/a
485.9492188	n/a	124403	D	nontarget	n/a	n/a
