onset	duration	sample	value	response_type	congruence	response_time	response_out_of_range	largeletter	smallletter
50.5	n/a	12928	largeHSmallH	correct	congruent	0.98047	no	H	H
51.48046875	n/a	13179	responseLargeH	correct	n/a	0.98047	no	n/a	n/a
52.5546875	n/a	13454	largeHSmallH	correct	congruent	0.59375	no	H	H
53.1484375	n/a	13606	responseLargeH	correct	n/a	0.59375	no	n/a	n/a
54.20703125	n/a	13877	largeTSmallT	correct	congruent	0.75	no	T	T
54.95703125	n/a	14069	responseLargeT	correct	n/a	0.75	no	n/a	n/a
56.01953125	n/a	14341	largeHSmallT	correct	incongruent	0.6875	no	H	T
56.70703125	n/a	14517	responseLargeH	correct	n/a	0.6875	no	n/a	n/a
57.765625	n/a	14788	largeTSmallH	correct	incongruent	0.93359	no	T	H
58.69921875	n/a	15027	responseLargeT	correct	n/a	0.93359	no	n/a	n/a
59.765625	n/a	15300	largeHSmallT	correct	incongruent	0.71875	no	H	T
60.484375	n/a	15484	responseLargeH	correct	n/a	0.71875	no	n/a	n/a
61.5390625	n/a	15754	largeHSmallH	correct	congruent	0.74219	no	H	H
62.28125	n/a	15944	responseLargeH	correct	n/a	0.74219	no	n/a	n/a
63.3515625	n/a	16218	largeHSmallT	correct	incongruent	0.71875	no	H	T
64.0703125	n/a	16402	responseLargeH	correct	n/a	0.71875	no	n/a	n/a
65.15234375	n/a	16679	largeHSmallH	correct	congruent	0.57031	no	H	H
65.72265625	n/a	16825	responseLargeH	correct	n/a	0.57031	no	n/a	n/a
66.78125	n/a	17096	largeTSmallH	correct	incongruent	0.50781	no	T	H
67.2890625	n/a	17226	responseLargeT	correct	n/a	0.50781	no	n/a	n/a
68.3671875	n/a	17502	largeHSmallH	correct	congruent	0.51953	no	H	H
68.88671875	n/a	17635	responseLargeH	correct	n/a	0.51953	no	n/a	n/a
69.953125	n/a	17908	largeHSmallT	correct	incongruent	0.58203	no	H	T
70.53515625	n/a	18057	responseLargeH	correct	n/a	0.58203	no	n/a	n/a
71.60546875	n/a	18331	largeHSmallH	correct	congruent	0.47656	no	H	H
72.08203125	n/a	18453	responseLargeH	correct	n/a	0.47656	no	n/a	n/a
73.15234375	n/a	18727	largeTSmallH	correct	incongruent	0.41797	no	T	H
73.5703125	n/a	18834	responseLargeT	correct	n/a	0.41797	no	n/a	n/a
74.6328125	n/a	19106	largeHSmallT	correct	incongruent	0.61719	no	H	T
75.25	n/a	19264	responseLargeH	correct	n/a	0.61719	no	n/a	n/a
76.3125	n/a	19536	largeHSmallH	correct	congruent	0.43359	no	H	H
76.74609375	n/a	19647	responseLargeH	correct	n/a	0.43359	no	n/a	n/a
77.8203125	n/a	19922	largeTSmallT	correct	congruent	0.49609	no	T	T
78.31640625	n/a	20049	responseLargeT	correct	n/a	0.49609	no	n/a	n/a
79.390625	n/a	20324	largeHSmallT	correct	incongruent	0.45312	no	H	T
79.84375	n/a	20440	responseLargeH	correct	n/a	0.45312	no	n/a	n/a
80.8984375	n/a	20710	largeHSmallT	correct	incongruent	0.45703	no	H	T
81.35546875	n/a	20827	responseLargeH	correct	n/a	0.45703	no	n/a	n/a
82.41796875	n/a	21099	largeHSmallH	correct	congruent	0.41406	no	H	H
82.83203125	n/a	21205	responseLargeH	correct	n/a	0.41406	no	n/a	n/a
83.8984375	n/a	21478	largeHSmallH	correct	congruent	0.39453	no	H	H
84.29296875	n/a	21579	responseLargeH	correct	n/a	0.39453	no	n/a	n/a
85.3671875	n/a	21854	largeTSmallH	correct	incongruent	0.37109	no	T	H
85.73828125	n/a	21949	responseLargeT	correct	n/a	0.37109	no	n/a	n/a
86.8046875	n/a	22222	largeHSmallT	error	incongruent	0.32812	no	H	T
87.1328125	n/a	22306	responseLargeT	error	n/a	0.32812	no	n/a	n/a
88.20703125	n/a	22581	largeTSmallH	correct	incongruent	0.89844	no	T	H
89.10546875	n/a	22811	responseLargeT	correct	n/a	0.89844	no	n/a	n/a
90.1640625	n/a	23082	largeTSmallH	correct	incongruent	0.47266	no	T	H
90.63671875	n/a	23203	responseLargeT	correct	n/a	0.47266	no	n/a	n/a
91.69921875	n/a	23475	largeHSmallT	correct	incongruent	0.43359	no	H	T
92.1328125	n/a	23586	responseLargeH	correct	n/a	0.43359	no	n/a	n/a
93.19140625	n/a	23857	largeTSmallH	correct	incongruent	0.48047	no	T	H
93.671875	n/a	23980	responseLargeT	correct	n/a	0.48047	no	n/a	n/a
94.73828125	n/a	24253	largeTSmallT	correct	congruent	0.44922	no	T	T
95.1875	n/a	24368	responseLargeT	correct	n/a	0.44922	no	n/a	n/a
96.2578125	n/a	24642	largeTSmallH	correct	incongruent	0.60547	no	T	H
96.86328125	n/a	24797	responseLargeT	correct	n/a	0.60547	no	n/a	n/a
97.92578125	n/a	25069	largeHSmallH	correct	congruent	0.53906	no	H	H
98.46484375	n/a	25207	responseLargeH	correct	n/a	0.53906	no	n/a	n/a
99.5234375	n/a	25478	largeTSmallH	correct	incongruent	0.55859	no	T	H
100.0820312	n/a	25621	responseLargeT	correct	n/a	0.55859	no	n/a	n/a
101.1523438	n/a	25895	largeHSmallH	correct	congruent	0.48828	no	H	H
101.640625	n/a	26020	responseLargeH	correct	n/a	0.48828	no	n/a	n/a
102.7109375	n/a	26294	largeHSmallH	correct	congruent	0.53516	no	H	H
103.2460938	n/a	26431	responseLargeH	correct	n/a	0.53516	no	n/a	n/a
104.3242188	n/a	26707	largeTSmallT	correct	congruent	0.55469	no	T	T
104.8789062	n/a	26849	responseLargeT	correct	n/a	0.55469	no	n/a	n/a
105.9375	n/a	27120	largeTSmallT	correct	congruent	0.41406	no	T	T
106.3515625	n/a	27226	responseLargeT	correct	n/a	0.41406	no	n/a	n/a
107.4179688	n/a	27499	largeHSmallT	correct	incongruent	0.4375	no	H	T
107.8554688	n/a	27611	responseLargeH	correct	n/a	0.4375	no	n/a	n/a
108.9257812	n/a	27885	largeTSmallH	correct	incongruent	0.41406	no	T	H
109.3398438	n/a	27991	responseLargeT	correct	n/a	0.41406	no	n/a	n/a
110.40625	n/a	28264	largeTSmallH	correct	incongruent	0.39844	no	T	H
110.8046875	n/a	28366	responseLargeT	correct	n/a	0.39844	no	n/a	n/a
111.8710938	n/a	28639	largeHSmallT	correct	incongruent	0.45703	no	H	T
112.328125	n/a	28756	responseLargeH	correct	n/a	0.45703	no	n/a	n/a
113.390625	n/a	29028	largeTSmallH	correct	incongruent	0.43359	no	T	H
113.8242188	n/a	29139	responseLargeT	correct	n/a	0.43359	no	n/a	n/a
114.8984375	n/a	29414	largeTSmallT	correct	congruent	0.36719	no	T	T
115.265625	n/a	29508	responseLargeT	correct	n/a	0.36719	no	n/a	n/a
116.3398438	n/a	29783	largeHSmallT	correct	incongruent	0.36719	no	H	T
116.7070312	n/a	29877	responseLargeH	correct	n/a	0.36719	no	n/a	n/a
117.7773438	n/a	30151	largeTSmallT	correct	congruent	0.39844	no	T	T
118.1757812	n/a	30253	responseLargeT	correct	n/a	0.39844	no	n/a	n/a
119.2460938	n/a	30527	largeHSmallH	correct	congruent	0.38281	no	H	H
119.6289062	n/a	30625	responseLargeH	correct	n/a	0.38281	no	n/a	n/a
120.6992188	n/a	30899	largeTSmallH	correct	incongruent	0.48828	no	T	H
121.1875	n/a	31024	responseLargeT	correct	n/a	0.48828	no	n/a	n/a
122.2578125	n/a	31298	largeTSmallT	correct	congruent	0.34766	no	T	T
122.6054688	n/a	31387	responseLargeT	correct	n/a	0.34766	no	n/a	n/a
123.6835938	n/a	31663	largeHSmallH	correct	congruent	0.39453	no	H	H
124.078125	n/a	31764	responseLargeH	correct	n/a	0.39453	no	n/a	n/a
125.1367188	n/a	32035	largeTSmallT	correct	congruent	0.4375	no	T	T
125.5742188	n/a	32147	responseLargeT	correct	n/a	0.4375	no	n/a	n/a
126.6445312	n/a	32421	largeHSmallT	correct	incongruent	0.44141	no	H	T
127.0859375	n/a	32534	responseLargeH	correct	n/a	0.44141	no	n/a	n/a
128.1523438	n/a	32807	largeTSmallT	correct	congruent	0.46484	no	T	T
128.6171875	n/a	32926	responseLargeT	correct	n/a	0.46484	no	n/a	n/a
129.6835938	n/a	33199	largeTSmallH	correct	incongruent	0.46094	no	T	H
130.1445312	n/a	33317	responseLargeT	correct	n/a	0.46094	no	n/a	n/a
131.21875	n/a	33592	largeHSmallT	correct	incongruent	0.51953	no	H	T
131.7382812	n/a	33725	responseLargeH	correct	n/a	0.51953	no	n/a	n/a
132.8046875	n/a	33998	largeTSmallH	correct	incongruent	0.44141	no	T	H
133.2460938	n/a	34111	responseLargeT	correct	n/a	0.44141	no	n/a	n/a
134.3125	n/a	34384	largeTSmallH	correct	incongruent	0.33203	no	T	H
134.6445312	n/a	34469	responseLargeT	correct	n/a	0.33203	no	n/a	n/a
135.7109375	n/a	34742	largeTSmallH	correct	incongruent	0.34766	no	T	H
136.0585938	n/a	34831	responseLargeT	correct	n/a	0.34766	no	n/a	n/a
137.125	n/a	35104	largeTSmallT	correct	congruent	0.35547	no	T	T
137.4804688	n/a	35195	responseLargeT	correct	n/a	0.35547	no	n/a	n/a
138.5507812	n/a	35469	largeTSmallH	correct	incongruent	0.38281	no	T	H
138.9335938	n/a	35567	responseLargeT	correct	n/a	0.38281	no	n/a	n/a
139.9921875	n/a	35838	largeHSmallT	correct	incongruent	0.47656	no	H	T
140.46875	n/a	35960	responseLargeH	correct	n/a	0.47656	no	n/a	n/a
141.5390625	n/a	36234	largeTSmallT	correct	congruent	0.47656	no	T	T
142.015625	n/a	36356	responseLargeT	correct	n/a	0.47656	no	n/a	n/a
143.0859375	n/a	36630	largeTSmallT	correct	congruent	0.40234	no	T	T
143.4882812	n/a	36733	responseLargeT	correct	n/a	0.40234	no	n/a	n/a
144.5507812	n/a	37005	largeHSmallT	correct	incongruent	0.44922	no	H	T
145	n/a	37120	responseLargeH	correct	n/a	0.44922	no	n/a	n/a
146.0703125	n/a	37394	largeTSmallT	correct	congruent	0.44531	no	T	T
146.515625	n/a	37508	responseLargeT	correct	n/a	0.44531	no	n/a	n/a
147.578125	n/a	37780	largeHSmallH	correct	congruent	0.42578	no	H	H
148.0039062	n/a	37889	responseLargeH	correct	n/a	0.42578	no	n/a	n/a
149.0703125	n/a	38162	largeHSmallH	correct	congruent	0.42578	no	H	H
149.4960938	n/a	38271	responseLargeH	correct	n/a	0.42578	no	n/a	n/a
150.5507812	n/a	38541	largeHSmallT	correct	incongruent	0.52734	no	H	T
151.078125	n/a	38676	responseLargeH	correct	n/a	0.52734	no	n/a	n/a
152.1523438	n/a	38951	largeTSmallH	correct	incongruent	0.48047	no	T	H
152.6328125	n/a	39074	responseLargeT	correct	n/a	0.48047	no	n/a	n/a
153.6953125	n/a	39346	largeHSmallT	error	incongruent	0.35938	no	H	T
154.0546875	n/a	39438	responseLargeT	error	n/a	0.35938	no	n/a	n/a
155.125	n/a	39712	largeTSmallT	correct	congruent	0.61328	no	T	T
155.7382812	n/a	39869	responseLargeT	correct	n/a	0.61328	no	n/a	n/a
156.8164062	n/a	40145	largeTSmallT	correct	congruent	0.61328	no	T	T
157.4296875	n/a	40302	responseLargeT	correct	n/a	0.61328	no	n/a	n/a
158.4960938	n/a	40575	largeHSmallH	correct	congruent	0.46484	no	H	H
158.9609375	n/a	40694	responseLargeH	correct	n/a	0.46484	no	n/a	n/a
160.03125	n/a	40968	largeTSmallT	correct	congruent	0.52344	no	T	T
160.5546875	n/a	41102	responseLargeT	correct	n/a	0.52344	no	n/a	n/a
161.6171875	n/a	41374	largeTSmallT	correct	congruent	0.38672	no	T	T
162.0039062	n/a	41473	responseLargeT	correct	n/a	0.38672	no	n/a	n/a
163.0703125	n/a	41746	largeHSmallT	correct	incongruent	0.39453	no	H	T
163.4648438	n/a	41847	responseLargeH	correct	n/a	0.39453	no	n/a	n/a
164.5351562	n/a	42121	largeHSmallH	correct	congruent	0.48438	no	H	H
165.0195312	n/a	42245	responseLargeH	correct	n/a	0.48438	no	n/a	n/a
166.0976562	n/a	42521	largeHSmallT	correct	incongruent	0.46484	no	H	T
166.5625	n/a	42640	responseLargeH	correct	n/a	0.46484	no	n/a	n/a
167.6171875	n/a	42910	largeTSmallH	correct	incongruent	0.42969	no	T	H
168.046875	n/a	43020	responseLargeT	correct	n/a	0.42969	no	n/a	n/a
169.109375	n/a	43292	largeHSmallH	correct	congruent	0.44922	no	H	H
169.5585938	n/a	43407	responseLargeH	correct	n/a	0.44922	no	n/a	n/a
170.6289062	n/a	43681	largeHSmallT	correct	incongruent	0.44922	no	H	T
171.078125	n/a	43796	responseLargeH	correct	n/a	0.44922	no	n/a	n/a
172.1484375	n/a	44070	largeTSmallT	correct	congruent	0.50781	no	T	T
172.65625	n/a	44200	responseLargeT	correct	n/a	0.50781	no	n/a	n/a
173.7226562	n/a	44473	largeHSmallH	correct	congruent	0.42578	no	H	H
174.1484375	n/a	44582	responseLargeH	correct	n/a	0.42578	no	n/a	n/a
175.2148438	n/a	44855	largeTSmallH	correct	incongruent	0.44922	no	T	H
175.6640625	n/a	44970	responseLargeT	correct	n/a	0.44922	no	n/a	n/a
176.7382812	n/a	45245	largeHSmallH	correct	congruent	0.375	no	H	H
177.1132812	n/a	45341	responseLargeH	correct	n/a	0.375	no	n/a	n/a
178.1914062	n/a	45617	largeHSmallT	correct	incongruent	0.53516	no	H	T
178.7265625	n/a	45754	responseLargeH	correct	n/a	0.53516	no	n/a	n/a
179.7890625	n/a	46026	largeHSmallH	correct	congruent	0.52734	no	H	H
180.3164062	n/a	46161	responseLargeH	correct	n/a	0.52734	no	n/a	n/a
181.390625	n/a	46436	largeTSmallT	correct	congruent	0.46484	no	T	T
181.8554688	n/a	46555	responseLargeT	correct	n/a	0.46484	no	n/a	n/a
182.921875	n/a	46828	largeTSmallT	correct	congruent	0.41797	no	T	T
183.3398438	n/a	46935	responseLargeT	correct	n/a	0.41797	no	n/a	n/a
184.4179688	n/a	47211	largeHSmallT	correct	incongruent	0.41406	no	H	T
184.8320312	n/a	47317	responseLargeH	correct	n/a	0.41406	no	n/a	n/a
185.8945312	n/a	47589	largeTSmallT	correct	congruent	0.45703	no	T	T
186.3515625	n/a	47706	responseLargeT	correct	n/a	0.45703	no	n/a	n/a
187.4179688	n/a	47979	largeHSmallT	correct	incongruent	0.39844	no	H	T
187.8164062	n/a	48081	responseLargeH	correct	n/a	0.39844	no	n/a	n/a
188.8828125	n/a	48354	largeTSmallT	correct	congruent	0.49609	no	T	T
189.3789062	n/a	48481	responseLargeT	correct	n/a	0.49609	no	n/a	n/a
190.4414062	n/a	48753	largeHSmallH	correct	congruent	0.41797	no	H	H
190.859375	n/a	48860	responseLargeH	correct	n/a	0.41797	no	n/a	n/a
191.9375	n/a	49136	largeTSmallH	correct	incongruent	0.5	no	T	H
192.4375	n/a	49264	responseLargeT	correct	n/a	0.5	no	n/a	n/a
193.5078125	n/a	49538	largeTSmallT	correct	congruent	0.46875	no	T	T
193.9765625	n/a	49658	responseLargeT	correct	n/a	0.46875	no	n/a	n/a
195.0429688	n/a	49931	largeTSmallT	correct	congruent	0.42188	no	T	T
195.4648438	n/a	50039	responseLargeT	correct	n/a	0.42188	no	n/a	n/a
196.5351562	n/a	50313	largeTSmallH	correct	incongruent	0.41406	no	T	H
196.9492188	n/a	50419	responseLargeT	correct	n/a	0.41406	no	n/a	n/a
198.015625	n/a	50692	largeTSmallH	correct	incongruent	0.40625	no	T	H
198.421875	n/a	50796	responseLargeT	correct	n/a	0.40625	no	n/a	n/a
199.4960938	n/a	51071	largeTSmallH	correct	incongruent	0.39844	no	T	H
199.8945312	n/a	51173	responseLargeT	correct	n/a	0.39844	no	n/a	n/a
200.9609375	n/a	51446	largeHSmallT	correct	incongruent	0.42188	no	H	T
201.3828125	n/a	51554	responseLargeH	correct	n/a	0.42188	no	n/a	n/a
202.4414062	n/a	51825	largeHSmallH	correct	congruent	0.34766	no	H	H
202.7890625	n/a	51914	responseLargeH	correct	n/a	0.34766	no	n/a	n/a
203.8554688	n/a	52187	largeHSmallH	correct	congruent	0.35938	no	H	H
204.2148438	n/a	52279	responseLargeH	correct	n/a	0.35938	no	n/a	n/a
216.3632812	n/a	55389	largeTSmallH	correct	incongruent	0.65234	no	T	H
217.015625	n/a	55556	responseSmallH	correct	n/a	0.65234	no	n/a	n/a
218.09375	n/a	55832	largeHSmallT	correct	incongruent	0.69922	no	H	T
218.7929688	n/a	56011	responseSmallT	correct	n/a	0.69922	no	n/a	n/a
219.8554688	n/a	56283	largeHSmallT	correct	incongruent	0.44922	no	H	T
220.3046875	n/a	56398	responseSmallT	correct	n/a	0.44922	no	n/a	n/a
221.3632812	n/a	56669	largeHSmallT	correct	incongruent	0.375	no	H	T
221.7382812	n/a	56765	responseSmallT	correct	n/a	0.375	no	n/a	n/a
222.8007812	n/a	57037	largeTSmallT	correct	congruent	0.42188	no	T	T
223.2226562	n/a	57145	responseSmallT	correct	n/a	0.42188	no	n/a	n/a
224.28125	n/a	57416	largeHSmallT	correct	incongruent	0.41406	no	H	T
224.6953125	n/a	57522	responseSmallT	correct	n/a	0.41406	no	n/a	n/a
225.7617188	n/a	57795	largeHSmallT	correct	incongruent	0.42188	no	H	T
226.1835938	n/a	57903	responseSmallT	correct	n/a	0.42188	no	n/a	n/a
227.2421875	n/a	58174	largeTSmallT	correct	congruent	0.54297	no	T	T
227.7851562	n/a	58313	responseSmallT	correct	n/a	0.54297	no	n/a	n/a
228.8554688	n/a	58587	largeHSmallH	correct	congruent	0.41406	no	H	H
229.2695312	n/a	58693	responseSmallH	correct	n/a	0.41406	no	n/a	n/a
230.3359375	n/a	58966	largeHSmallT	correct	incongruent	0.67578	no	H	T
231.0117188	n/a	59139	responseSmallT	correct	n/a	0.67578	no	n/a	n/a
232.0820312	n/a	59413	largeHSmallH	correct	congruent	0.54297	no	H	H
232.625	n/a	59552	responseSmallH	correct	n/a	0.54297	no	n/a	n/a
233.6953125	n/a	59826	largeHSmallH	correct	congruent	0.39062	no	H	H
234.0859375	n/a	59926	responseSmallH	correct	n/a	0.39062	no	n/a	n/a
235.1601562	n/a	60201	largeTSmallH	correct	incongruent	0.57422	no	T	H
235.734375	n/a	60348	responseSmallH	correct	n/a	0.57422	no	n/a	n/a
236.7890625	n/a	60618	largeHSmallT	correct	incongruent	0.51562	no	H	T
237.3046875	n/a	60750	responseSmallT	correct	n/a	0.51562	no	n/a	n/a
238.375	n/a	61024	largeTSmallH	correct	incongruent	0.49609	no	T	H
238.8710938	n/a	61151	responseSmallH	correct	n/a	0.49609	no	n/a	n/a
239.9492188	n/a	61427	largeHSmallH	correct	congruent	0.65625	no	H	H
240.6054688	n/a	61595	responseSmallH	correct	n/a	0.65625	no	n/a	n/a
241.6835938	n/a	61871	largeHSmallT	correct	incongruent	0.69531	no	H	T
242.3789062	n/a	62049	responseSmallT	correct	n/a	0.69531	no	n/a	n/a
243.4414062	n/a	62321	largeHSmallH	correct	congruent	0.44141	no	H	H
243.8828125	n/a	62434	responseSmallH	correct	n/a	0.44141	no	n/a	n/a
244.9492188	n/a	62707	largeHSmallH	correct	congruent	0.37891	no	H	H
245.328125	n/a	62804	responseSmallH	correct	n/a	0.37891	no	n/a	n/a
246.3867188	n/a	63075	largeHSmallH	correct	congruent	0.40234	no	H	H
246.7890625	n/a	63178	responseSmallH	correct	n/a	0.40234	no	n/a	n/a
247.8554688	n/a	63451	largeTSmallT	correct	congruent	0.51562	no	T	T
248.3710938	n/a	63583	responseSmallT	correct	n/a	0.51562	no	n/a	n/a
249.4414062	n/a	63857	largeHSmallH	correct	congruent	0.47266	no	H	H
249.9140625	n/a	63978	responseSmallH	correct	n/a	0.47266	no	n/a	n/a
250.9765625	n/a	64250	largeHSmallH	correct	congruent	0.37109	no	H	H
251.3476562	n/a	64345	responseSmallH	correct	n/a	0.37109	no	n/a	n/a
252.4140625	n/a	64618	largeTSmallH	correct	incongruent	0.42188	no	T	H
252.8359375	n/a	64726	responseSmallH	correct	n/a	0.42188	no	n/a	n/a
253.90625	n/a	65000	largeHSmallH	correct	congruent	0.46875	no	H	H
254.375	n/a	65120	responseSmallH	correct	n/a	0.46875	no	n/a	n/a
255.4414062	n/a	65393	largeTSmallH	correct	incongruent	0.47656	no	T	H
255.9179688	n/a	65515	responseSmallH	correct	n/a	0.47656	no	n/a	n/a
256.9765625	n/a	65786	largeHSmallT	correct	incongruent	0.47656	no	H	T
257.453125	n/a	65908	responseSmallT	correct	n/a	0.47656	no	n/a	n/a
258.5195312	n/a	66181	largeHSmallH	correct	congruent	0.43359	no	H	H
258.953125	n/a	66292	responseSmallH	correct	n/a	0.43359	no	n/a	n/a
260.0273438	n/a	66567	largeTSmallT	correct	congruent	0.44922	no	T	T
260.4765625	n/a	66682	responseSmallT	correct	n/a	0.44922	no	n/a	n/a
261.546875	n/a	66956	largeTSmallH	correct	incongruent	0.40234	no	T	H
261.9492188	n/a	67059	responseSmallH	correct	n/a	0.40234	no	n/a	n/a
263.015625	n/a	67332	largeTSmallT	correct	congruent	0.35547	no	T	T
263.3710938	n/a	67423	responseSmallT	correct	n/a	0.35547	no	n/a	n/a
264.4414062	n/a	67697	largeTSmallH	correct	incongruent	0.46094	no	T	H
264.9023438	n/a	67815	responseSmallH	correct	n/a	0.46094	no	n/a	n/a
265.9609375	n/a	68086	largeTSmallH	correct	incongruent	0.37109	no	T	H
266.3320312	n/a	68181	responseSmallH	correct	n/a	0.37109	no	n/a	n/a
267.4023438	n/a	68455	largeTSmallT	correct	congruent	0.37891	no	T	T
267.78125	n/a	68552	responseSmallT	correct	n/a	0.37891	no	n/a	n/a
268.8554688	n/a	68827	largeHSmallT	correct	incongruent	0.50391	no	H	T
269.359375	n/a	68956	responseSmallT	correct	n/a	0.50391	no	n/a	n/a
270.4296875	n/a	69230	largeTSmallH	correct	incongruent	0.37891	no	T	H
270.8085938	n/a	69327	responseSmallH	correct	n/a	0.37891	no	n/a	n/a
271.8828125	n/a	69602	largeTSmallH	correct	incongruent	0.40234	no	T	H
272.2851562	n/a	69705	responseSmallH	correct	n/a	0.40234	no	n/a	n/a
273.359375	n/a	69980	largeHSmallT	correct	incongruent	0.42969	no	H	T
273.7890625	n/a	70090	responseSmallT	correct	n/a	0.42969	no	n/a	n/a
274.8554688	n/a	70363	largeHSmallH	error	congruent	0.33594	no	H	H
275.1914062	n/a	70449	responseSmallT	error	n/a	0.33594	no	n/a	n/a
276.2695312	n/a	70725	largeTSmallH	correct	incongruent	0.70312	no	T	H
276.9726562	n/a	70905	responseSmallH	correct	n/a	0.70312	no	n/a	n/a
278.0390625	n/a	71178	largeHSmallH	correct	congruent	0.42969	no	H	H
278.46875	n/a	71288	responseSmallH	correct	n/a	0.42969	no	n/a	n/a
279.5351562	n/a	71561	largeHSmallT	correct	incongruent	0.51953	no	H	T
280.0546875	n/a	71694	responseSmallT	correct	n/a	0.51953	no	n/a	n/a
281.1210938	n/a	71967	largeTSmallT	correct	congruent	0.45703	no	T	T
281.578125	n/a	72084	responseSmallT	correct	n/a	0.45703	no	n/a	n/a
282.640625	n/a	72356	largeTSmallT	correct	congruent	0.36719	no	T	T
283.0078125	n/a	72450	responseSmallT	correct	n/a	0.36719	no	n/a	n/a
284.0820312	n/a	72725	largeHSmallH	correct	congruent	0.42578	no	H	H
284.5078125	n/a	72834	responseSmallH	correct	n/a	0.42578	no	n/a	n/a
285.5742188	n/a	73107	largeTSmallH	correct	incongruent	0.37891	no	T	H
285.953125	n/a	73204	responseSmallH	correct	n/a	0.37891	no	n/a	n/a
287.0273438	n/a	73479	largeTSmallH	correct	incongruent	0.38281	no	T	H
287.4101562	n/a	73577	responseSmallH	correct	n/a	0.38281	no	n/a	n/a
288.4804688	n/a	73851	largeHSmallT	correct	incongruent	0.46875	no	H	T
288.9492188	n/a	73971	responseSmallT	correct	n/a	0.46875	no	n/a	n/a
290.0273438	n/a	74247	largeTSmallT	correct	congruent	0.41797	no	T	T
290.4453125	n/a	74354	responseSmallT	correct	n/a	0.41797	no	n/a	n/a
291.5195312	n/a	74629	largeTSmallT	correct	congruent	0.375	no	T	T
291.8945312	n/a	74725	responseSmallT	correct	n/a	0.375	no	n/a	n/a
292.9609375	n/a	74998	largeHSmallT	correct	incongruent	0.5	no	H	T
293.4609375	n/a	75126	responseSmallT	correct	n/a	0.5	no	n/a	n/a
294.5351562	n/a	75401	largeTSmallH	correct	incongruent	0.46875	no	T	H
295.0039062	n/a	75521	responseSmallH	correct	n/a	0.46875	no	n/a	n/a
296.0664062	n/a	75793	largeTSmallT	error	congruent	0.38672	no	T	T
296.453125	n/a	75892	responseSmallH	error	n/a	0.38672	no	n/a	n/a
297.5195312	n/a	76165	largeHSmallT	correct	incongruent	0.67578	no	H	T
298.1953125	n/a	76338	responseSmallT	correct	n/a	0.67578	no	n/a	n/a
299.2539062	n/a	76609	largeTSmallH	correct	incongruent	0.5	no	T	H
299.7539062	n/a	76737	responseSmallH	correct	n/a	0.5	no	n/a	n/a
300.8125	n/a	77008	largeHSmallT	correct	incongruent	0.47656	no	H	T
301.2890625	n/a	77130	responseSmallT	correct	n/a	0.47656	no	n/a	n/a
302.359375	n/a	77404	largeTSmallT	correct	congruent	0.44531	no	T	T
302.8046875	n/a	77518	responseSmallT	correct	n/a	0.44531	no	n/a	n/a
303.8789062	n/a	77793	largeTSmallT	correct	congruent	0.42188	no	T	T
304.3007812	n/a	77901	responseSmallT	correct	n/a	0.42188	no	n/a	n/a
305.375	n/a	78176	largeTSmallH	correct	incongruent	0.57031	no	T	H
305.9453125	n/a	78322	responseSmallH	correct	n/a	0.57031	no	n/a	n/a
307.015625	n/a	78596	largeHSmallT	correct	incongruent	0.47656	no	H	T
307.4921875	n/a	78718	responseSmallT	correct	n/a	0.47656	no	n/a	n/a
308.5585938	n/a	78991	largeTSmallH	correct	incongruent	0.42578	no	T	H
308.984375	n/a	79100	responseSmallH	correct	n/a	0.42578	no	n/a	n/a
310.0546875	n/a	79374	largeTSmallT	correct	congruent	0.45312	no	T	T
310.5078125	n/a	79490	responseSmallT	correct	n/a	0.45312	no	n/a	n/a
311.5859375	n/a	79766	largeTSmallT	correct	congruent	0.54688	no	T	T
312.1328125	n/a	79906	responseSmallT	correct	n/a	0.54688	no	n/a	n/a
313.1992188	n/a	80179	largeTSmallH	correct	incongruent	0.54688	no	T	H
313.7460938	n/a	80319	responseSmallH	correct	n/a	0.54688	no	n/a	n/a
314.8125	n/a	80592	largeTSmallT	correct	congruent	0.52344	no	T	T
315.3359375	n/a	80726	responseSmallT	correct	n/a	0.52344	no	n/a	n/a
316.3984375	n/a	80998	largeHSmallT	correct	incongruent	0.50391	no	H	T
316.9023438	n/a	81127	responseSmallT	correct	n/a	0.50391	no	n/a	n/a
317.9726562	n/a	81401	largeHSmallT	correct	incongruent	0.41797	no	H	T
318.390625	n/a	81508	responseSmallT	correct	n/a	0.41797	no	n/a	n/a
319.4648438	n/a	81783	largeHSmallH	correct	congruent	0.60547	no	H	H
320.0703125	n/a	81938	responseSmallH	correct	n/a	0.60547	no	n/a	n/a
321.1328125	n/a	82210	largeTSmallT	correct	congruent	0.73438	no	T	T
321.8671875	n/a	82398	responseSmallT	correct	n/a	0.73438	no	n/a	n/a
322.9335938	n/a	82671	largeTSmallT	correct	congruent	0.46094	no	T	T
323.3945312	n/a	82789	responseSmallT	correct	n/a	0.46094	no	n/a	n/a
324.4648438	n/a	83063	largeTSmallT	correct	congruent	0.42188	no	T	T
324.8867188	n/a	83171	responseSmallT	correct	n/a	0.42188	no	n/a	n/a
325.9453125	n/a	83442	largeHSmallH	correct	congruent	0.46484	no	H	H
326.4101562	n/a	83561	responseSmallH	correct	n/a	0.46484	no	n/a	n/a
327.4804688	n/a	83835	largeHSmallH	correct	congruent	0.51172	no	H	H
327.9921875	n/a	83966	responseSmallH	correct	n/a	0.51172	no	n/a	n/a
329.0546875	n/a	84238	largeTSmallH	correct	incongruent	0.49609	no	T	H
329.5507812	n/a	84365	responseSmallH	correct	n/a	0.49609	no	n/a	n/a
330.6132812	n/a	84637	largeHSmallT	correct	incongruent	0.48438	no	H	T
331.0976562	n/a	84761	responseSmallT	correct	n/a	0.48438	no	n/a	n/a
332.171875	n/a	85036	largeHSmallH	correct	congruent	0.40234	no	H	H
332.5742188	n/a	85139	responseSmallH	correct	n/a	0.40234	no	n/a	n/a
333.640625	n/a	85412	largeHSmallT	correct	incongruent	0.35156	no	H	T
333.9921875	n/a	85502	responseSmallT	correct	n/a	0.35156	no	n/a	n/a
335.0546875	n/a	85774	largeTSmallT	correct	congruent	0.51953	no	T	T
335.5742188	n/a	85907	responseSmallT	correct	n/a	0.51953	no	n/a	n/a
336.640625	n/a	86180	largeHSmallT	error	incongruent	0.59375	no	H	T
337.234375	n/a	86332	responseSmallH	error	n/a	0.59375	no	n/a	n/a
338.3046875	n/a	86606	largeHSmallT	correct	incongruent	0.58594	no	H	T
338.890625	n/a	86756	responseSmallT	correct	n/a	0.58594	no	n/a	n/a
339.9609375	n/a	87030	largeHSmallT	correct	incongruent	0.41797	no	H	T
340.3789062	n/a	87137	responseSmallT	correct	n/a	0.41797	no	n/a	n/a
341.4414062	n/a	87409	largeTSmallT	correct	congruent	0.49609	no	T	T
341.9375	n/a	87536	responseSmallT	correct	n/a	0.49609	no	n/a	n/a
343	n/a	87808	largeTSmallT	correct	congruent	0.50781	no	T	T
343.5078125	n/a	87938	responseSmallT	correct	n/a	0.50781	no	n/a	n/a
344.5742188	n/a	88211	largeHSmallH	correct	congruent	0.5625	no	H	H
345.1367188	n/a	88355	responseSmallH	correct	n/a	0.5625	no	n/a	n/a
346.1992188	n/a	88627	largeTSmallH	correct	incongruent	0.49219	no	T	H
346.6914062	n/a	88753	responseSmallH	correct	n/a	0.49219	no	n/a	n/a
347.7578125	n/a	89026	largeHSmallH	correct	congruent	0.43359	no	H	H
348.1914062	n/a	89137	responseSmallH	correct	n/a	0.43359	no	n/a	n/a
349.2539062	n/a	89409	largeTSmallT	correct	congruent	0.52344	no	T	T
349.7773438	n/a	89543	responseSmallT	correct	n/a	0.52344	no	n/a	n/a
350.8398438	n/a	89815	largeHSmallH	correct	congruent	0.43359	no	H	H
351.2734375	n/a	89926	responseSmallH	correct	n/a	0.43359	no	n/a	n/a
352.3476562	n/a	90201	largeTSmallH	correct	incongruent	0.53125	no	T	H
352.8789062	n/a	90337	responseSmallH	correct	n/a	0.53125	no	n/a	n/a
353.9453125	n/a	90610	largeTSmallT	correct	congruent	0.53125	no	T	T
354.4765625	n/a	90746	responseSmallT	correct	n/a	0.53125	no	n/a	n/a
355.546875	n/a	91020	largeTSmallH	correct	incongruent	0.8125	no	T	H
356.359375	n/a	91228	responseSmallH	correct	n/a	0.8125	no	n/a	n/a
357.4257812	n/a	91501	largeTSmallT	correct	congruent	0.51172	no	T	T
357.9375	n/a	91632	responseSmallT	correct	n/a	0.51172	no	n/a	n/a
359	n/a	91904	largeTSmallH	correct	incongruent	0.52344	no	T	H
359.5234375	n/a	92038	responseSmallH	correct	n/a	0.52344	no	n/a	n/a
360.5976562	n/a	92313	largeTSmallH	correct	incongruent	0.48438	no	T	H
361.0820312	n/a	92437	responseSmallH	correct	n/a	0.48438	no	n/a	n/a
362.1601562	n/a	92713	largeHSmallH	correct	congruent	0.45312	no	H	H
362.6132812	n/a	92829	responseSmallH	correct	n/a	0.45312	no	n/a	n/a
363.6796875	n/a	93102	largeHSmallH	correct	congruent	0.38281	no	H	H
364.0625	n/a	93200	responseSmallH	correct	n/a	0.38281	no	n/a	n/a
365.1328125	n/a	93474	largeHSmallH	correct	congruent	0.41797	no	H	H
365.5507812	n/a	93581	responseSmallH	correct	n/a	0.41797	no	n/a	n/a
366.625	n/a	93856	largeHSmallH	correct	congruent	0.34766	no	H	H
366.9726562	n/a	93945	responseSmallH	correct	n/a	0.34766	no	n/a	n/a
368.0390625	n/a	94218	largeTSmallH	error	incongruent	0.61719	no	T	H
368.65625	n/a	94376	responseSmallT	error	n/a	0.61719	no	n/a	n/a
369.71875	n/a	94648	largeHSmallT	correct	incongruent	0.64062	no	H	T
370.359375	n/a	94812	responseSmallT	correct	n/a	0.64062	no	n/a	n/a
378.890625	n/a	96996	largeHSmallH	correct	congruent	0.90234	no	H	H
379.7929688	n/a	97227	responseLargeH	correct	n/a	0.90234	no	n/a	n/a
380.8671875	n/a	97502	largeHSmallH	correct	congruent	0.47656	no	H	H
381.34375	n/a	97624	responseLargeH	correct	n/a	0.47656	no	n/a	n/a
382.3984375	n/a	97894	largeTSmallH	correct	incongruent	0.50781	no	T	H
382.90625	n/a	98024	responseLargeT	correct	n/a	0.50781	no	n/a	n/a
383.9726562	n/a	98297	largeHSmallT	correct	incongruent	0.80859	no	H	T
384.78125	n/a	98504	responseLargeH	correct	n/a	0.80859	no	n/a	n/a
385.8515625	n/a	98778	largeTSmallH	correct	incongruent	0.62109	no	T	H
386.4726562	n/a	98937	responseLargeT	correct	n/a	0.62109	no	n/a	n/a
387.546875	n/a	99212	largeTSmallT	correct	congruent	0.55859	no	T	T
388.1054688	n/a	99355	responseLargeT	correct	n/a	0.55859	no	n/a	n/a
389.171875	n/a	99628	largeTSmallH	correct	incongruent	0.46094	no	T	H
389.6328125	n/a	99746	responseLargeT	correct	n/a	0.46094	no	n/a	n/a
390.7070312	n/a	100021	largeTSmallH	correct	incongruent	0.40234	no	T	H
391.109375	n/a	100124	responseLargeT	correct	n/a	0.40234	no	n/a	n/a
392.171875	n/a	100396	largeTSmallT	correct	congruent	0.40234	no	T	T
392.5742188	n/a	100499	responseLargeT	correct	n/a	0.40234	no	n/a	n/a
393.6367188	n/a	100771	largeHSmallT	correct	incongruent	0.4375	no	H	T
394.0742188	n/a	100883	responseLargeH	correct	n/a	0.4375	no	n/a	n/a
395.1328125	n/a	101154	largeTSmallH	correct	incongruent	0.43359	no	T	H
395.5664062	n/a	101265	responseLargeT	correct	n/a	0.43359	no	n/a	n/a
396.6367188	n/a	101539	largeHSmallH	correct	congruent	0.38672	no	H	H
397.0234375	n/a	101638	responseLargeH	correct	n/a	0.38672	no	n/a	n/a
398.078125	n/a	101908	largeTSmallT	correct	congruent	0.44141	no	T	T
398.5195312	n/a	102021	responseLargeT	correct	n/a	0.44141	no	n/a	n/a
399.5859375	n/a	102294	largeTSmallT	correct	congruent	0.45703	no	T	T
400.0429688	n/a	102411	responseLargeT	correct	n/a	0.45703	no	n/a	n/a
401.1054688	n/a	102683	largeTSmallT	correct	congruent	0.41406	no	T	T
401.5195312	n/a	102789	responseLargeT	correct	n/a	0.41406	no	n/a	n/a
402.5976562	n/a	103065	largeHSmallH	correct	congruent	0.45703	no	H	H
403.0546875	n/a	103182	responseLargeH	correct	n/a	0.45703	no	n/a	n/a
404.1171875	n/a	103454	largeTSmallH	correct	incongruent	0.42969	no	T	H
404.546875	n/a	103564	responseLargeT	correct	n/a	0.42969	no	n/a	n/a
405.625	n/a	103840	largeHSmallT	correct	incongruent	0.46094	no	H	T
406.0859375	n/a	103958	responseLargeH	correct	n/a	0.46094	no	n/a	n/a
407.1445312	n/a	104229	largeHSmallH	correct	congruent	0.49609	no	H	H
407.640625	n/a	104356	responseLargeH	correct	n/a	0.49609	no	n/a	n/a
408.703125	n/a	104628	largeTSmallT	correct	congruent	0.69141	no	T	T
409.3945312	n/a	104805	responseLargeT	correct	n/a	0.69141	no	n/a	n/a
410.453125	n/a	105076	largeTSmallT	correct	congruent	0.39844	no	T	T
410.8515625	n/a	105178	responseLargeT	correct	n/a	0.39844	no	n/a	n/a
411.9179688	n/a	105451	largeTSmallT	correct	congruent	0.32812	no	T	T
412.2460938	n/a	105535	responseLargeT	correct	n/a	0.32812	no	n/a	n/a
413.3164062	n/a	105809	largeHSmallT	correct	incongruent	0.51953	no	H	T
413.8359375	n/a	105942	responseLargeH	correct	n/a	0.51953	no	n/a	n/a
414.90625	n/a	106216	largeTSmallT	correct	congruent	0.47656	no	T	T
415.3828125	n/a	106338	responseLargeT	correct	n/a	0.47656	no	n/a	n/a
416.4375	n/a	106608	largeHSmallH	correct	congruent	0.41406	no	H	H
416.8515625	n/a	106714	responseLargeH	correct	n/a	0.41406	no	n/a	n/a
417.9296875	n/a	106990	largeTSmallH	correct	incongruent	0.85156	no	T	H
418.78125	n/a	107208	responseLargeT	correct	n/a	0.85156	no	n/a	n/a
419.8515625	n/a	107482	largeTSmallT	correct	congruent	0.45312	no	T	T
420.3046875	n/a	107598	responseLargeT	correct	n/a	0.45312	no	n/a	n/a
421.3710938	n/a	107871	largeTSmallH	correct	incongruent	0.41016	no	T	H
421.78125	n/a	107976	responseLargeT	correct	n/a	0.41016	no	n/a	n/a
422.8359375	n/a	108246	largeTSmallT	correct	congruent	0.44922	no	T	T
423.2851562	n/a	108361	responseLargeT	correct	n/a	0.44922	no	n/a	n/a
424.359375	n/a	108636	largeTSmallT	correct	congruent	0.39844	no	T	T
424.7578125	n/a	108738	responseLargeT	correct	n/a	0.39844	no	n/a	n/a
425.8242188	n/a	109011	largeTSmallT	correct	congruent	0.41797	no	T	T
426.2421875	n/a	109118	responseLargeT	correct	n/a	0.41797	no	n/a	n/a
427.3164062	n/a	109393	largeHSmallH	correct	congruent	0.42969	no	H	H
427.7460938	n/a	109503	responseLargeH	correct	n/a	0.42969	no	n/a	n/a
428.8125	n/a	109776	largeTSmallT	correct	congruent	0.43359	no	T	T
429.2460938	n/a	109887	responseLargeT	correct	n/a	0.43359	no	n/a	n/a
430.3164062	n/a	110161	largeTSmallH	correct	incongruent	0.35156	no	T	H
430.6679688	n/a	110251	responseLargeT	correct	n/a	0.35156	no	n/a	n/a
431.7304688	n/a	110523	largeHSmallT	correct	incongruent	0.43359	no	H	T
432.1640625	n/a	110634	responseLargeH	correct	n/a	0.43359	no	n/a	n/a
433.2382812	n/a	110909	largeHSmallH	correct	congruent	0.46094	no	H	H
433.6992188	n/a	111027	responseLargeH	correct	n/a	0.46094	no	n/a	n/a
434.7578125	n/a	111298	largeHSmallH	correct	congruent	0.39453	no	H	H
435.1523438	n/a	111399	responseLargeH	correct	n/a	0.39453	no	n/a	n/a
436.2226562	n/a	111673	largeHSmallT	correct	incongruent	0.35156	no	H	T
436.5742188	n/a	111763	responseLargeH	correct	n/a	0.35156	no	n/a	n/a
437.6367188	n/a	112035	largeTSmallH	correct	incongruent	0.49219	no	T	H
438.1289062	n/a	112161	responseLargeT	correct	n/a	0.49219	no	n/a	n/a
439.2109375	n/a	112438	largeHSmallH	correct	congruent	0.41406	no	H	H
439.625	n/a	112544	responseLargeH	correct	n/a	0.41406	no	n/a	n/a
440.6914062	n/a	112817	largeHSmallT	correct	incongruent	0.44531	no	H	T
441.1367188	n/a	112931	responseLargeH	correct	n/a	0.44531	no	n/a	n/a
442.1992188	n/a	113203	largeTSmallT	correct	congruent	0.39062	no	T	T
442.5898438	n/a	113303	responseLargeT	correct	n/a	0.39062	no	n/a	n/a
443.6523438	n/a	113575	largeTSmallT	correct	congruent	0.39453	no	T	T
444.046875	n/a	113676	responseLargeT	correct	n/a	0.39453	no	n/a	n/a
445.1171875	n/a	113950	largeHSmallT	correct	incongruent	0.43359	no	H	T
445.5507812	n/a	114061	responseLargeH	correct	n/a	0.43359	no	n/a	n/a
446.609375	n/a	114332	largeTSmallT	correct	congruent	0.41797	no	T	T
447.0273438	n/a	114439	responseLargeT	correct	n/a	0.41797	no	n/a	n/a
448.0898438	n/a	114711	largeTSmallH	correct	incongruent	0.44141	no	T	H
448.53125	n/a	114824	responseLargeT	correct	n/a	0.44141	no	n/a	n/a
449.5976562	n/a	115097	largeTSmallH	correct	incongruent	0.43359	no	T	H
450.03125	n/a	115208	responseLargeT	correct	n/a	0.43359	no	n/a	n/a
451.0898438	n/a	115479	largeHSmallT	correct	incongruent	0.49219	no	H	T
451.5820312	n/a	115605	responseLargeH	correct	n/a	0.49219	no	n/a	n/a
452.6523438	n/a	115879	largeTSmallH	correct	incongruent	0.46094	no	T	H
453.1132812	n/a	115997	responseLargeT	correct	n/a	0.46094	no	n/a	n/a
454.1835938	n/a	116271	largeHSmallT	error	incongruent	0.54688	no	H	T
454.7304688	n/a	116411	responseLargeT	error	n/a	0.54688	no	n/a	n/a
455.8085938	n/a	116687	largeHSmallH	correct	congruent	0.67969	no	H	H
456.4882812	n/a	116861	responseLargeH	correct	n/a	0.67969	no	n/a	n/a
457.5429688	n/a	117131	largeHSmallT	correct	incongruent	0.46875	no	H	T
458.0117188	n/a	117251	responseLargeH	correct	n/a	0.46875	no	n/a	n/a
459.078125	n/a	117524	largeTSmallT	correct	congruent	0.45703	no	T	T
459.5351562	n/a	117641	responseLargeT	correct	n/a	0.45703	no	n/a	n/a
460.609375	n/a	117916	largeHSmallH	correct	congruent	0.40234	no	H	H
461.0117188	n/a	118019	responseLargeH	correct	n/a	0.40234	no	n/a	n/a
462.078125	n/a	118292	largeTSmallH	correct	incongruent	0.59375	no	T	H
462.671875	n/a	118444	responseLargeT	correct	n/a	0.59375	no	n/a	n/a
463.7421875	n/a	118718	largeHSmallT	correct	incongruent	0.46875	no	H	T
464.2109375	n/a	118838	responseLargeH	correct	n/a	0.46875	no	n/a	n/a
465.2773438	n/a	119111	largeHSmallT	correct	incongruent	0.43359	no	H	T
465.7109375	n/a	119222	responseLargeH	correct	n/a	0.43359	no	n/a	n/a
466.7851562	n/a	119497	largeTSmallT	correct	congruent	0.5	no	T	T
467.2851562	n/a	119625	responseLargeT	correct	n/a	0.5	no	n/a	n/a
468.34375	n/a	119896	largeHSmallH	correct	congruent	0.46094	no	H	H
468.8046875	n/a	120014	responseLargeH	correct	n/a	0.46094	no	n/a	n/a
469.875	n/a	120288	largeHSmallH	correct	congruent	0.51562	no	H	H
470.390625	n/a	120420	responseLargeH	correct	n/a	0.51562	no	n/a	n/a
471.4492188	n/a	120691	largeTSmallH	correct	incongruent	0.48828	no	T	H
471.9375	n/a	120816	responseLargeT	correct	n/a	0.48828	no	n/a	n/a
473.0117188	n/a	121091	largeTSmallH	correct	incongruent	0.66797	no	T	H
473.6796875	n/a	121262	responseLargeT	correct	n/a	0.66797	no	n/a	n/a
474.7421875	n/a	121534	largeHSmallH	correct	congruent	0.46484	no	H	H
475.2070312	n/a	121653	responseLargeH	correct	n/a	0.46484	no	n/a	n/a
476.2773438	n/a	121927	largeHSmallH	correct	congruent	0.44141	no	H	H
476.71875	n/a	122040	responseLargeH	correct	n/a	0.44141	no	n/a	n/a
477.78125	n/a	122312	largeTSmallH	correct	incongruent	0.57031	no	T	H
478.3515625	n/a	122458	responseLargeT	correct	n/a	0.57031	no	n/a	n/a
479.421875	n/a	122732	largeTSmallT	correct	congruent	0.48828	no	T	T
479.9101562	n/a	122857	responseLargeT	correct	n/a	0.48828	no	n/a	n/a
480.984375	n/a	123132	largeHSmallT	correct	incongruent	0.44531	no	H	T
481.4296875	n/a	123246	responseLargeH	correct	n/a	0.44531	no	n/a	n/a
482.4882812	n/a	123517	largeHSmallH	correct	congruent	0.44141	no	H	H
482.9296875	n/a	123630	responseLargeH	correct	n/a	0.44141	no	n/a	n/a
483.9960938	n/a	123903	largeHSmallH	correct	congruent	0.53516	no	H	H
484.53125	n/a	124040	responseLargeH	correct	n/a	0.53516	no	n/a	n/a
485.5976562	n/a	124313	largeHSmallT	correct	incongruent	0.45312	no	H	T
486.0507812	n/a	124429	responseLargeH	correct	n/a	0.45312	no	n/a	n/a
487.1171875	n/a	124702	largeTSmallH	correct	incongruent	0.51562	no	T	H
487.6328125	n/a	124834	responseLargeT	correct	n/a	0.51562	no	n/a	n/a
488.703125	n/a	125108	largeHSmallT	correct	incongruent	0.44141	no	H	T
489.1445312	n/a	125221	responseLargeH	correct	n/a	0.44141	no	n/a	n/a
490.2226562	n/a	125497	largeHSmallT	correct	incongruent	0.49219	no	H	T
490.7148438	n/a	125623	responseLargeH	correct	n/a	0.49219	no	n/a	n/a
491.78125	n/a	125896	largeTSmallT	correct	congruent	0.46875	no	T	T
492.25	n/a	126016	responseLargeT	correct	n/a	0.46875	no	n/a	n/a
493.3164062	n/a	126289	largeHSmallH	correct	congruent	0.47656	no	H	H
493.7929688	n/a	126411	responseLargeH	correct	n/a	0.47656	no	n/a	n/a
494.8632812	n/a	126685	largeHSmallT	error	incongruent	0.38281	no	H	T
495.2460938	n/a	126783	responseLargeT	error	n/a	0.38281	no	n/a	n/a
496.3164062	n/a	127057	largeTSmallT	correct	congruent	0.63281	no	T	T
496.9492188	n/a	127219	responseLargeT	correct	n/a	0.63281	no	n/a	n/a
498.0234375	n/a	127494	largeHSmallT	correct	incongruent	0.55859	no	H	T
498.5820312	n/a	127637	responseLargeH	correct	n/a	0.55859	no	n/a	n/a
499.6484375	n/a	127910	largeHSmallT	correct	incongruent	0.42578	no	H	T
500.0742188	n/a	128019	responseLargeH	correct	n/a	0.42578	no	n/a	n/a
501.1445312	n/a	128293	largeHSmallH	correct	congruent	0.49609	no	H	H
501.640625	n/a	128420	responseLargeH	correct	n/a	0.49609	no	n/a	n/a
502.7148438	n/a	128695	largeTSmallT	correct	congruent	0.51953	no	T	T
503.234375	n/a	128828	responseLargeT	correct	n/a	0.51953	no	n/a	n/a
504.3007812	n/a	129101	largeTSmallT	correct	congruent	0.40625	no	T	T
504.7070312	n/a	129205	responseLargeT	correct	n/a	0.40625	no	n/a	n/a
505.7695312	n/a	129477	largeHSmallT	correct	incongruent	0.41016	no	H	T
506.1796875	n/a	129582	responseLargeH	correct	n/a	0.41016	no	n/a	n/a
507.25	n/a	129856	largeTSmallH	correct	incongruent	0.46875	no	T	H
507.71875	n/a	129976	responseLargeT	correct	n/a	0.46875	no	n/a	n/a
508.78125	n/a	130248	largeHSmallT	correct	incongruent	0.41797	no	H	T
509.1992188	n/a	130355	responseLargeH	correct	n/a	0.41797	no	n/a	n/a
510.2617188	n/a	130627	largeHSmallT	correct	incongruent	0.45312	no	H	T
510.7148438	n/a	130743	responseLargeH	correct	n/a	0.45312	no	n/a	n/a
511.78125	n/a	131016	largeTSmallH	correct	incongruent	0.48438	no	T	H
512.265625	n/a	131140	responseLargeT	correct	n/a	0.48438	no	n/a	n/a
513.34375	n/a	131416	largeTSmallH	correct	incongruent	0.47656	no	T	H
513.8203125	n/a	131538	responseLargeT	correct	n/a	0.47656	no	n/a	n/a
514.9023438	n/a	131815	largeHSmallH	correct	congruent	0.38672	no	H	H
515.2890625	n/a	131914	responseLargeH	correct	n/a	0.38672	no	n/a	n/a
516.3671875	n/a	132190	largeTSmallT	correct	congruent	0.42969	no	T	T
516.796875	n/a	132300	responseLargeT	correct	n/a	0.42969	no	n/a	n/a
517.8632812	n/a	132573	largeTSmallH	correct	incongruent	0.44141	no	T	H
518.3046875	n/a	132686	responseLargeT	correct	n/a	0.44141	no	n/a	n/a
519.3710938	n/a	132959	largeHSmallH	correct	congruent	0.42578	no	H	H
519.796875	n/a	133068	responseLargeH	correct	n/a	0.42578	no	n/a	n/a
520.8476562	n/a	133337	largeTSmallH	correct	incongruent	0.55078	no	T	H
521.3984375	n/a	133478	responseLargeT	correct	n/a	0.55078	no	n/a	n/a
522.4609375	n/a	133750	largeTSmallH	error	incongruent	0.42578	no	T	H
522.8867188	n/a	133859	responseLargeH	error	n/a	0.42578	no	n/a	n/a
523.96875	n/a	134136	largeHSmallT	correct	incongruent	0.55859	no	H	T
524.5273438	n/a	134279	responseLargeH	correct	n/a	0.55859	no	n/a	n/a
525.59375	n/a	134552	largeHSmallH	correct	congruent	0.48828	no	H	H
526.0820312	n/a	134677	responseLargeH	correct	n/a	0.48828	no	n/a	n/a
527.140625	n/a	134948	largeTSmallH	correct	incongruent	0.46094	no	T	H
527.6015625	n/a	135066	responseLargeT	correct	n/a	0.46094	no	n/a	n/a
528.6757812	n/a	135341	largeHSmallH	correct	congruent	0.48438	no	H	H
529.1601562	n/a	135465	responseLargeH	correct	n/a	0.48438	no	n/a	n/a
530.234375	n/a	135740	largeHSmallH	correct	congruent	0.47266	no	H	H
530.7070312	n/a	135861	responseLargeH	correct	n/a	0.47266	no	n/a	n/a
531.78125	n/a	136136	largeHSmallT	correct	incongruent	0.48438	no	H	T
532.265625	n/a	136260	responseLargeH	correct	n/a	0.48438	no	n/a	n/a
537.3164062	n/a	137553	largeHSmallH	correct	congruent	0.76562	no	H	H
538.0820312	n/a	137749	responseSmallH	correct	n/a	0.76562	no	n/a	n/a
539.15625	n/a	138024	largeTSmallH	correct	incongruent	0.85547	no	T	H
540.0117188	n/a	138243	responseSmallH	correct	n/a	0.85547	no	n/a	n/a
541.0742188	n/a	138515	largeTSmallT	correct	congruent	0.48828	no	T	T
541.5625	n/a	138640	responseSmallT	correct	n/a	0.48828	no	n/a	n/a
542.6367188	n/a	138915	largeHSmallT	correct	incongruent	0.5	no	H	T
543.1367188	n/a	139043	responseSmallT	correct	n/a	0.5	no	n/a	n/a
544.2070312	n/a	139317	largeHSmallT	correct	incongruent	0.42969	no	H	T
544.6367188	n/a	139427	responseSmallT	correct	n/a	0.42969	no	n/a	n/a
545.703125	n/a	139700	largeHSmallT	correct	incongruent	0.41797	no	H	T
546.1210938	n/a	139807	responseSmallT	correct	n/a	0.41797	no	n/a	n/a
547.1835938	n/a	140079	largeHSmallT	correct	incongruent	0.40625	no	H	T
547.5898438	n/a	140183	responseSmallT	correct	n/a	0.40625	no	n/a	n/a
548.6601562	n/a	140457	largeTSmallT	correct	congruent	0.66016	no	T	T
549.3203125	n/a	140626	responseSmallT	correct	n/a	0.66016	no	n/a	n/a
550.3945312	n/a	140901	largeTSmallT	correct	congruent	0.44141	no	T	T
550.8359375	n/a	141014	responseSmallT	correct	n/a	0.44141	no	n/a	n/a
551.9023438	n/a	141287	largeTSmallH	correct	incongruent	0.45703	no	T	H
552.359375	n/a	141404	responseSmallH	correct	n/a	0.45703	no	n/a	n/a
553.4335938	n/a	141679	largeTSmallH	correct	incongruent	0.46094	no	T	H
553.8945312	n/a	141797	responseSmallH	correct	n/a	0.46094	no	n/a	n/a
554.953125	n/a	142068	largeTSmallH	correct	incongruent	0.39453	no	T	H
555.3476562	n/a	142169	responseSmallH	correct	n/a	0.39453	no	n/a	n/a
556.40625	n/a	142440	largeHSmallT	correct	incongruent	0.41016	no	H	T
556.8164062	n/a	142545	responseSmallT	correct	n/a	0.41016	no	n/a	n/a
557.8867188	n/a	142819	largeHSmallT	correct	incongruent	0.46484	no	H	T
558.3515625	n/a	142938	responseSmallT	correct	n/a	0.46484	no	n/a	n/a
559.421875	n/a	143212	largeTSmallH	correct	incongruent	0.52734	no	T	H
559.9492188	n/a	143347	responseSmallH	correct	n/a	0.52734	no	n/a	n/a
561.0195312	n/a	143621	largeTSmallT	correct	congruent	0.58984	no	T	T
561.609375	n/a	143772	responseSmallT	correct	n/a	0.58984	no	n/a	n/a
562.6757812	n/a	144045	largeHSmallT	correct	incongruent	0.58594	no	H	T
563.2617188	n/a	144195	responseSmallT	correct	n/a	0.58594	no	n/a	n/a
564.328125	n/a	144468	largeTSmallH	correct	incongruent	0.55078	no	T	H
564.8789062	n/a	144609	responseSmallH	correct	n/a	0.55078	no	n/a	n/a
565.9414062	n/a	144881	largeTSmallT	correct	congruent	0.64844	no	T	T
566.5898438	n/a	145047	responseSmallT	correct	n/a	0.64844	no	n/a	n/a
567.6601562	n/a	145321	largeHSmallH	correct	congruent	0.45703	no	H	H
568.1171875	n/a	145438	responseSmallH	correct	n/a	0.45703	no	n/a	n/a
569.1796875	n/a	145710	largeHSmallT	correct	incongruent	0.51172	no	H	T
569.6914062	n/a	145841	responseSmallT	correct	n/a	0.51172	no	n/a	n/a
570.7539062	n/a	146113	largeHSmallH	correct	congruent	0.60547	no	H	H
571.359375	n/a	146268	responseSmallH	correct	n/a	0.60547	no	n/a	n/a
572.4335938	n/a	146543	largeHSmallT	correct	incongruent	0.54688	no	H	T
572.9804688	n/a	146683	responseSmallT	correct	n/a	0.54688	no	n/a	n/a
574.046875	n/a	146956	largeHSmallT	correct	incongruent	0.54297	no	H	T
574.5898438	n/a	147095	responseSmallT	correct	n/a	0.54297	no	n/a	n/a
575.6601562	n/a	147369	largeHSmallH	correct	congruent	0.63672	no	H	H
576.296875	n/a	147532	responseSmallH	correct	n/a	0.63672	no	n/a	n/a
577.3554688	n/a	147803	largeTSmallT	correct	congruent	0.46094	no	T	T
577.8164062	n/a	147921	responseSmallT	correct	n/a	0.46094	no	n/a	n/a
578.8867188	n/a	148195	largeHSmallT	correct	incongruent	0.62109	no	H	T
579.5078125	n/a	148354	responseSmallT	correct	n/a	0.62109	no	n/a	n/a
580.5664062	n/a	148625	largeHSmallT	correct	incongruent	0.57422	no	H	T
581.140625	n/a	148772	responseSmallT	correct	n/a	0.57422	no	n/a	n/a
582.2070312	n/a	149045	largeHSmallT	correct	incongruent	0.40625	no	H	T
582.6132812	n/a	149149	responseSmallT	correct	n/a	0.40625	no	n/a	n/a
583.6757812	n/a	149421	largeTSmallT	error	congruent	0.47266	no	T	T
584.1484375	n/a	149542	responseSmallH	error	n/a	0.47266	no	n/a	n/a
585.2226562	n/a	149817	largeTSmallH	correct	incongruent	0.70312	no	T	H
585.9257812	n/a	149997	responseSmallH	correct	n/a	0.70312	no	n/a	n/a
586.9804688	n/a	150267	largeHSmallH	correct	congruent	0.51172	no	H	H
587.4921875	n/a	150398	responseSmallH	correct	n/a	0.51172	no	n/a	n/a
588.5546875	n/a	150670	largeHSmallH	correct	congruent	0.46875	no	H	H
589.0234375	n/a	150790	responseSmallH	correct	n/a	0.46875	no	n/a	n/a
590.0859375	n/a	151062	largeTSmallH	correct	incongruent	0.50391	no	T	H
590.5898438	n/a	151191	responseSmallH	correct	n/a	0.50391	no	n/a	n/a
591.6601562	n/a	151465	largeTSmallH	correct	incongruent	0.37891	no	T	H
592.0390625	n/a	151562	responseSmallH	correct	n/a	0.37891	no	n/a	n/a
593.1015625	n/a	151834	largeTSmallH	correct	incongruent	0.41797	no	T	H
593.5195312	n/a	151941	responseSmallH	correct	n/a	0.41797	no	n/a	n/a
594.5820312	n/a	152213	largeTSmallT	correct	congruent	0.59375	no	T	T
595.1757812	n/a	152365	responseSmallT	correct	n/a	0.59375	no	n/a	n/a
596.2460938	n/a	152639	largeHSmallH	correct	congruent	0.51172	no	H	H
596.7578125	n/a	152770	responseSmallH	correct	n/a	0.51172	no	n/a	n/a
597.8203125	n/a	153042	largeTSmallH	correct	incongruent	0.49609	no	T	H
598.3164062	n/a	153169	responseSmallH	correct	n/a	0.49609	no	n/a	n/a
599.3789062	n/a	153441	largeHSmallH	correct	congruent	0.45703	no	H	H
599.8359375	n/a	153558	responseSmallH	correct	n/a	0.45703	no	n/a	n/a
600.8984375	n/a	153830	largeHSmallH	correct	congruent	0.42188	no	H	H
601.3203125	n/a	153938	responseSmallH	correct	n/a	0.42188	no	n/a	n/a
602.3789062	n/a	154209	largeHSmallH	correct	congruent	0.45703	no	H	H
602.8359375	n/a	154326	responseSmallH	correct	n/a	0.45703	no	n/a	n/a
603.8984375	n/a	154598	largeHSmallT	correct	incongruent	0.50391	no	H	T
604.4023438	n/a	154727	responseSmallT	correct	n/a	0.50391	no	n/a	n/a
605.4726562	n/a	155001	largeHSmallH	correct	congruent	0.42578	no	H	H
605.8984375	n/a	155110	responseSmallH	correct	n/a	0.42578	no	n/a	n/a
606.96875	n/a	155384	largeTSmallH	correct	incongruent	0.57812	no	T	H
607.546875	n/a	155532	responseSmallH	correct	n/a	0.57812	no	n/a	n/a
608.6054688	n/a	155803	largeTSmallH	correct	incongruent	0.44141	no	T	H
609.046875	n/a	155916	responseSmallH	correct	n/a	0.44141	no	n/a	n/a
610.1132812	n/a	156189	largeHSmallH	correct	congruent	0.48438	no	H	H
610.5976562	n/a	156313	responseSmallH	correct	n/a	0.48438	no	n/a	n/a
611.6601562	n/a	156585	largeHSmallT	correct	incongruent	0.48438	no	H	T
612.1445312	n/a	156709	responseSmallT	correct	n/a	0.48438	no	n/a	n/a
613.2070312	n/a	156981	largeTSmallT	correct	congruent	0.39844	no	T	T
613.6054688	n/a	157083	responseSmallT	correct	n/a	0.39844	no	n/a	n/a
614.671875	n/a	157356	largeTSmallT	correct	congruent	0.4375	no	T	T
615.109375	n/a	157468	responseSmallT	correct	n/a	0.4375	no	n/a	n/a
616.1679688	n/a	157739	largeTSmallH	correct	incongruent	0.46875	no	T	H
616.6367188	n/a	157859	responseSmallH	correct	n/a	0.46875	no	n/a	n/a
617.6992188	n/a	158131	largeTSmallH	correct	incongruent	0.41406	no	T	H
618.1132812	n/a	158237	responseSmallH	correct	n/a	0.41406	no	n/a	n/a
619.1796875	n/a	158510	largeHSmallT	correct	incongruent	0.41016	no	H	T
619.5898438	n/a	158615	responseSmallT	correct	n/a	0.41016	no	n/a	n/a
620.6484375	n/a	158886	largeTSmallT	correct	congruent	0.54297	no	T	T
621.1914062	n/a	159025	responseSmallT	correct	n/a	0.54297	no	n/a	n/a
622.2617188	n/a	159299	largeHSmallH	correct	congruent	0.52344	no	H	H
622.7851562	n/a	159433	responseSmallH	correct	n/a	0.52344	no	n/a	n/a
623.8476562	n/a	159705	largeHSmallH	correct	congruent	0.39453	no	H	H
624.2421875	n/a	159806	responseSmallH	correct	n/a	0.39453	no	n/a	n/a
625.3125	n/a	160080	largeHSmallT	correct	incongruent	0.44922	no	H	T
625.7617188	n/a	160195	responseSmallT	correct	n/a	0.44922	no	n/a	n/a
626.8320312	n/a	160469	largeTSmallT	correct	congruent	0.46875	no	T	T
627.3007812	n/a	160589	responseSmallT	correct	n/a	0.46875	no	n/a	n/a
628.3671875	n/a	160862	largeHSmallT	correct	incongruent	0.47266	no	H	T
628.8398438	n/a	160983	responseSmallT	correct	n/a	0.47266	no	n/a	n/a
629.8984375	n/a	161254	largeTSmallT	correct	congruent	0.4375	no	T	T
630.3359375	n/a	161366	responseSmallT	correct	n/a	0.4375	no	n/a	n/a
631.3945312	n/a	161637	largeHSmallH	correct	congruent	0.45312	no	H	H
631.8476562	n/a	161753	responseSmallH	correct	n/a	0.45312	no	n/a	n/a
632.9140625	n/a	162026	largeTSmallH	correct	incongruent	0.69141	no	T	H
633.6054688	n/a	162203	responseSmallH	correct	n/a	0.69141	no	n/a	n/a
634.671875	n/a	162476	largeTSmallH	correct	incongruent	0.49609	no	T	H
635.1679688	n/a	162603	responseSmallH	correct	n/a	0.49609	no	n/a	n/a
636.234375	n/a	162876	largeTSmallT	error	congruent	0.35547	no	T	T
636.5898438	n/a	162967	responseSmallH	error	n/a	0.35547	no	n/a	n/a
637.6601562	n/a	163241	largeTSmallT	correct	congruent	0.74219	no	T	T
638.4023438	n/a	163431	responseSmallT	correct	n/a	0.74219	no	n/a	n/a
639.484375	n/a	163708	largeHSmallH	correct	congruent	0.53906	no	H	H
640.0234375	n/a	163846	responseSmallH	correct	n/a	0.53906	no	n/a	n/a
641.0859375	n/a	164118	largeTSmallT	correct	congruent	0.51562	no	T	T
641.6015625	n/a	164250	responseSmallT	correct	n/a	0.51562	no	n/a	n/a
642.671875	n/a	164524	largeTSmallT	correct	congruent	0.48438	no	T	T
643.15625	n/a	164648	responseSmallT	correct	n/a	0.48438	no	n/a	n/a
644.21875	n/a	164920	largeTSmallH	correct	incongruent	0.46094	no	T	H
644.6796875	n/a	165038	responseSmallH	correct	n/a	0.46094	no	n/a	n/a
645.7539062	n/a	165313	largeTSmallH	correct	incongruent	0.44531	no	T	H
646.1992188	n/a	165427	responseSmallH	correct	n/a	0.44531	no	n/a	n/a
647.2578125	n/a	165698	largeHSmallT	correct	incongruent	0.55859	no	H	T
647.8164062	n/a	165841	responseSmallT	correct	n/a	0.55859	no	n/a	n/a
648.8867188	n/a	166115	largeTSmallT	correct	congruent	0.55078	no	T	T
649.4375	n/a	166256	responseSmallT	correct	n/a	0.55078	no	n/a	n/a
650.5117188	n/a	166531	largeTSmallT	correct	congruent	0.47656	no	T	T
650.9882812	n/a	166653	responseSmallT	correct	n/a	0.47656	no	n/a	n/a
652.0585938	n/a	166927	largeHSmallT	correct	incongruent	0.41797	no	H	T
652.4765625	n/a	167034	responseSmallT	correct	n/a	0.41797	no	n/a	n/a
653.5507812	n/a	167309	largeHSmallT	correct	incongruent	0.46484	no	H	T
654.015625	n/a	167428	responseSmallT	correct	n/a	0.46484	no	n/a	n/a
655.0742188	n/a	167699	largeTSmallT	correct	congruent	0.5	no	T	T
655.5742188	n/a	167827	responseSmallT	correct	n/a	0.5	no	n/a	n/a
656.6445312	n/a	168101	largeHSmallH	correct	congruent	0.49219	no	H	H
657.1367188	n/a	168227	responseSmallH	correct	n/a	0.49219	no	n/a	n/a
658.1914062	n/a	168497	largeTSmallH	correct	incongruent	0.45703	no	T	H
658.6484375	n/a	168614	responseSmallH	correct	n/a	0.45703	no	n/a	n/a
659.7109375	n/a	168886	largeHSmallH	correct	congruent	0.41797	no	H	H
660.1289062	n/a	168993	responseSmallH	correct	n/a	0.41797	no	n/a	n/a
661.1914062	n/a	169265	largeHSmallT	correct	incongruent	0.54688	no	H	T
661.7382812	n/a	169405	responseSmallT	correct	n/a	0.54688	no	n/a	n/a
662.8046875	n/a	169678	largeTSmallH	correct	incongruent	0.5625	no	T	H
663.3671875	n/a	169822	responseSmallH	correct	n/a	0.5625	no	n/a	n/a
664.4453125	n/a	170098	largeHSmallT	correct	incongruent	0.44922	no	H	T
664.8945312	n/a	170213	responseSmallT	correct	n/a	0.44922	no	n/a	n/a
665.9648438	n/a	170487	largeHSmallT	correct	incongruent	0.53906	no	H	T
666.5039062	n/a	170625	responseSmallT	correct	n/a	0.53906	no	n/a	n/a
667.578125	n/a	170900	largeHSmallT	correct	incongruent	0.48828	no	H	T
668.0664062	n/a	171025	responseSmallT	correct	n/a	0.48828	no	n/a	n/a
669.140625	n/a	171300	largeTSmallH	correct	incongruent	0.44141	no	T	H
669.5820312	n/a	171413	responseSmallH	correct	n/a	0.44141	no	n/a	n/a
670.6445312	n/a	171685	largeTSmallT	correct	congruent	0.60547	no	T	T
671.25	n/a	171840	responseSmallT	correct	n/a	0.60547	no	n/a	n/a
672.3125	n/a	172112	largeTSmallH	correct	incongruent	0.51953	no	T	H
672.8320312	n/a	172245	responseSmallH	correct	n/a	0.51953	no	n/a	n/a
673.8984375	n/a	172518	largeHSmallH	correct	congruent	0.46875	no	H	H
674.3671875	n/a	172638	responseSmallH	correct	n/a	0.46875	no	n/a	n/a
675.4335938	n/a	172911	largeTSmallT	correct	congruent	0.53125	no	T	T
675.9648438	n/a	173047	responseSmallT	correct	n/a	0.53125	no	n/a	n/a
677.03125	n/a	173320	largeTSmallT	correct	congruent	0.51562	no	T	T
677.546875	n/a	173452	responseSmallT	correct	n/a	0.51562	no	n/a	n/a
678.6171875	n/a	173726	largeHSmallH	correct	congruent	0.46484	no	H	H
679.0820312	n/a	173845	responseSmallH	correct	n/a	0.46484	no	n/a	n/a
680.1523438	n/a	174119	largeTSmallH	correct	incongruent	0.47656	no	T	H
680.6289062	n/a	174241	responseSmallH	correct	n/a	0.47656	no	n/a	n/a
681.6992188	n/a	174515	largeTSmallH	correct	incongruent	0.49609	no	T	H
682.1953125	n/a	174642	responseSmallH	correct	n/a	0.49609	no	n/a	n/a
683.2734375	n/a	174918	largeHSmallH	correct	congruent	0.41406	no	H	H
683.6875	n/a	175024	responseSmallH	correct	n/a	0.41406	no	n/a	n/a
684.75	n/a	175296	largeHSmallH	correct	congruent	0.39062	no	H	H
685.140625	n/a	175396	responseSmallH	correct	n/a	0.39062	no	n/a	n/a
686.2070312	n/a	175669	largeHSmallH	correct	congruent	0.41797	no	H	H
686.625	n/a	175776	responseSmallH	correct	n/a	0.41797	no	n/a	n/a
687.6992188	n/a	176051	largeTSmallT	correct	congruent	0.51953	no	T	T
688.21875	n/a	176184	responseSmallT	correct	n/a	0.51953	no	n/a	n/a
689.2851562	n/a	176457	largeHSmallH	correct	congruent	0.44141	no	H	H
689.7265625	n/a	176570	responseSmallH	correct	n/a	0.44141	no	n/a	n/a
690.8046875	n/a	176846	largeTSmallT	correct	congruent	0.45703	no	T	T
691.2617188	n/a	176963	responseSmallT	correct	n/a	0.45703	no	n/a	n/a
692.3242188	n/a	177235	largeHSmallH	correct	congruent	0.5	no	H	H
692.8242188	n/a	177363	responseSmallH	correct	n/a	0.5	no	n/a	n/a
