onset	duration	sample	value	response_type	congruence	response_time	response_out_of_range	largeletter	smallletter
16.87109375	n/a	4319	responseLargeH	n/a	n/a	n/a	n/a	n/a	n/a
17.94921875	n/a	4595	largeHSmallH	correct	congruent	0.64844	no	H	H
18.59765625	n/a	4761	responseLargeH	error	n/a	6.2578	yes	n/a	n/a
24.85546875	n/a	6363	responseLargeT	error	n/a	3.2422	yes	n/a	n/a
28.09765625	n/a	7193	responseLargeH	error	n/a	3.2422	yes	n/a	n/a
29.16015625	n/a	7465	largeTSmallT	correct	congruent	0.50781	no	T	T
29.66796875	n/a	7595	responseLargeT	correct	n/a	0.50781	no	n/a	n/a
30.734375	n/a	7868	largeHSmallH	correct	congruent	0.48828	no	H	H
31.22265625	n/a	7993	responseLargeH	correct	n/a	0.48828	no	n/a	n/a
32.28125	n/a	8264	largeTSmallH	error	incongruent	0.47266	no	T	H
32.75390625	n/a	8385	responseLargeH	error	n/a	1.6602	yes	n/a	n/a
34.4140625	n/a	8810	responseLargeH	error	n/a	1.6602	yes	n/a	n/a
44.93359375	n/a	11503	largeHSmallH	error	congruent	29.3203	yes	H	H
74.25390625	n/a	19009	responseLargeT	error	n/a	29.3203	yes	n/a	n/a
75.33203125	n/a	19285	largeHSmallH	n/a	congruent	n/a	n/a	H	H
80.265625	n/a	20548	largeTSmallT	correct	congruent	3.5742	yes	T	T
83.83984375	n/a	21463	responseLargeT	correct	n/a	3.5742	yes	n/a	n/a
84.90625	n/a	21736	largeTSmallH	correct	incongruent	0.46875	no	T	H
85.375	n/a	21856	responseLargeT	correct	n/a	0.46875	no	n/a	n/a
86.453125	n/a	22132	largeHSmallH	error	congruent	3.7969	yes	H	H
90.25	n/a	23104	responseLargeT	error	n/a	3.7969	yes	n/a	n/a
91.3203125	n/a	23378	largeTSmallT	correct	congruent	0.40625	no	T	T
91.7265625	n/a	23482	responseLargeT	correct	n/a	0.40625	no	n/a	n/a
92.80078125	n/a	23757	largeTSmallT	correct	congruent	0.46094	no	T	T
93.26171875	n/a	23875	responseLargeT	correct	n/a	0.46094	no	n/a	n/a
94.3203125	n/a	24146	largeHSmallH	correct	congruent	0.72266	no	H	H
95.04296875	n/a	24331	responseLargeH	correct	n/a	0.72266	no	n/a	n/a
96.12109375	n/a	24607	largeTSmallT	correct	congruent	0.48438	no	T	T
96.60546875	n/a	24731	responseLargeT	correct	n/a	0.48438	no	n/a	n/a
97.6796875	n/a	25006	largeTSmallT	error	congruent	4.0312	yes	T	T
101.7109375	n/a	26038	responseLargeH	error	n/a	4.0312	yes	n/a	n/a
102.7851562	n/a	26313	largeTSmallT	correct	congruent	0.4375	no	T	T
103.2226562	n/a	26425	responseLargeT	correct	n/a	0.4375	no	n/a	n/a
105.8242188	n/a	27091	largeHSmallT	error	incongruent	2.1289	yes	H	T
107.953125	n/a	27636	responseLargeT	error	n/a	1.5859	yes	n/a	n/a
109.5390625	n/a	28042	responseLargeT	error	n/a	1.5859	yes	n/a	n/a
110.6132812	n/a	28317	largeTSmallT	correct	congruent	0.48047	no	T	T
111.09375	n/a	28440	responseLargeT	correct	n/a	0.48047	no	n/a	n/a
112.1601562	n/a	28713	largeTSmallT	correct	congruent	0.52734	no	T	T
112.6875	n/a	28848	responseLargeT	correct	n/a	0.52734	no	n/a	n/a
113.7460938	n/a	29119	largeHSmallH	correct	congruent	0.42188	no	H	H
114.1679688	n/a	29227	responseLargeH	correct	n/a	0.42188	no	n/a	n/a
115.2539062	n/a	29505	largeTSmallT	correct	congruent	0.54688	no	T	T
115.8007812	n/a	29645	responseLargeT	correct	n/a	0.54688	no	n/a	n/a
116.8671875	n/a	29918	largeTSmallH	correct	incongruent	0.49219	no	T	H
117.359375	n/a	30044	responseLargeT	correct	n/a	0.49219	no	n/a	n/a
118.4257812	n/a	30317	largeTSmallH	correct	incongruent	0.4375	no	T	H
118.8632812	n/a	30429	responseLargeT	correct	n/a	0.4375	no	n/a	n/a
119.9335938	n/a	30703	largeTSmallH	correct	incongruent	0.91406	no	T	H
120.8476562	n/a	30937	responseLargeT	correct	n/a	0.91406	no	n/a	n/a
121.9179688	n/a	31211	largeHSmallT	error	incongruent	0.44141	no	H	T
122.359375	n/a	31324	responseLargeT	error	n/a	0.44141	no	n/a	n/a
123.4375	n/a	31600	largeTSmallH	correct	incongruent	0.46484	no	T	H
123.9023438	n/a	31719	responseLargeT	correct	n/a	0.46484	no	n/a	n/a
124.984375	n/a	31996	largeHSmallH	correct	congruent	0.68359	no	H	H
125.6679688	n/a	32171	responseLargeH	correct	n/a	0.68359	no	n/a	n/a
126.7460938	n/a	32447	largeTSmallT	correct	congruent	0.39453	no	T	T
127.140625	n/a	32548	responseLargeT	correct	n/a	0.39453	no	n/a	n/a
128.2109375	n/a	32822	largeHSmallT	correct	incongruent	0.52344	no	H	T
128.734375	n/a	32956	responseLargeH	correct	n/a	0.52344	no	n/a	n/a
129.8007812	n/a	33229	largeHSmallT	correct	incongruent	0.60547	no	H	T
130.40625	n/a	33384	responseLargeH	correct	n/a	0.60547	no	n/a	n/a
131.4804688	n/a	33659	largeHSmallH	correct	congruent	0.57812	no	H	H
132.0585938	n/a	33807	responseLargeH	correct	n/a	0.57812	no	n/a	n/a
133.1171875	n/a	34078	largeHSmallT	correct	incongruent	0.44141	no	H	T
133.5585938	n/a	34191	responseLargeH	correct	n/a	0.44141	no	n/a	n/a
134.625	n/a	34464	largeTSmallH	correct	incongruent	0.50391	no	T	H
135.1289062	n/a	34593	responseLargeT	correct	n/a	0.50391	no	n/a	n/a
136.1992188	n/a	34867	largeHSmallT	correct	incongruent	0.66016	no	H	T
136.859375	n/a	35036	responseLargeH	correct	n/a	0.66016	no	n/a	n/a
137.9335938	n/a	35311	largeTSmallT	correct	congruent	0.49609	no	T	T
138.4296875	n/a	35438	responseLargeT	correct	n/a	0.49609	no	n/a	n/a
139.5039062	n/a	35713	largeTSmallT	correct	congruent	0.51172	no	T	T
140.015625	n/a	35844	responseLargeT	correct	n/a	0.51172	no	n/a	n/a
141.078125	n/a	36116	largeHSmallT	correct	incongruent	0.60938	no	H	T
141.6875	n/a	36272	responseLargeH	correct	n/a	0.60938	no	n/a	n/a
142.7460938	n/a	36543	largeTSmallT	correct	congruent	0.45703	no	T	T
143.203125	n/a	36660	responseLargeT	correct	n/a	0.45703	no	n/a	n/a
144.2773438	n/a	36935	largeTSmallH	correct	incongruent	0.68359	no	T	H
144.9609375	n/a	37110	responseLargeT	correct	n/a	0.68359	no	n/a	n/a
146.0234375	n/a	37382	largeHSmallH	correct	congruent	0.37891	no	H	H
146.4023438	n/a	37479	responseLargeH	correct	n/a	0.37891	no	n/a	n/a
147.4765625	n/a	37754	largeHSmallT	correct	incongruent	0.56641	no	H	T
148.0429688	n/a	37899	responseLargeH	correct	n/a	0.56641	no	n/a	n/a
149.1171875	n/a	38174	largeHSmallT	correct	incongruent	0.77734	no	H	T
149.8945312	n/a	38373	responseLargeH	correct	n/a	0.77734	no	n/a	n/a
150.9726562	n/a	38649	largeTSmallT	correct	congruent	0.59766	no	T	T
151.5703125	n/a	38802	responseLargeT	correct	n/a	0.59766	no	n/a	n/a
152.6367188	n/a	39075	largeHSmallH	correct	congruent	0.5	no	H	H
153.1367188	n/a	39203	responseLargeH	correct	n/a	0.5	no	n/a	n/a
154.1992188	n/a	39475	largeTSmallH	correct	incongruent	0.5	no	T	H
154.6992188	n/a	39603	responseLargeT	correct	n/a	0.5	no	n/a	n/a
155.7734375	n/a	39878	largeTSmallH	correct	incongruent	0.5	no	T	H
156.2734375	n/a	40006	responseLargeT	correct	n/a	0.5	no	n/a	n/a
157.3320312	n/a	40277	largeTSmallT	correct	congruent	0.42188	no	T	T
157.7539062	n/a	40385	responseLargeT	correct	n/a	0.42188	no	n/a	n/a
158.8125	n/a	40656	largeHSmallT	n/a	incongruent	n/a	n/a	H	T
160.3984375	n/a	41062	largeTSmallT	correct	congruent	0.44922	no	T	T
160.8476562	n/a	41177	responseLargeT	correct	n/a	0.44922	no	n/a	n/a
161.9179688	n/a	41451	largeHSmallH	correct	congruent	3.6289	yes	H	H
165.546875	n/a	42380	responseLargeH	error	n/a	1.5078	yes	n/a	n/a
167.0546875	n/a	42766	responseLargeH	error	n/a	1.5078	yes	n/a	n/a
168.1328125	n/a	43042	largeHSmallH	n/a	congruent	n/a	n/a	H	H
171.265625	n/a	43844	largeHSmallH	correct	congruent	0.38281	no	H	H
171.6484375	n/a	43942	responseLargeH	correct	n/a	0.38281	no	n/a	n/a
174.2773438	n/a	44615	largeTSmallT	correct	congruent	0.52734	no	T	T
174.8046875	n/a	44750	responseLargeT	correct	n/a	0.52734	no	n/a	n/a
175.8632812	n/a	45021	largeTSmallT	correct	congruent	0.51953	no	T	T
176.3828125	n/a	45154	responseLargeT	correct	n/a	0.51953	no	n/a	n/a
177.4648438	n/a	45431	largeHSmallH	correct	congruent	0.46484	no	H	H
177.9296875	n/a	45550	responseLargeH	correct	n/a	0.46484	no	n/a	n/a
178.9960938	n/a	45823	largeHSmallH	correct	congruent	0.51953	no	H	H
179.515625	n/a	45956	responseLargeH	correct	n/a	0.51953	no	n/a	n/a
180.5976562	n/a	46233	largeTSmallT	correct	congruent	0.51172	no	T	T
181.109375	n/a	46364	responseLargeT	correct	n/a	0.51172	no	n/a	n/a
182.1835938	n/a	46639	largeHSmallT	correct	incongruent	0.37891	no	H	T
182.5625	n/a	46736	responseLargeH	correct	n/a	0.37891	no	n/a	n/a
183.6367188	n/a	47011	largeHSmallH	correct	congruent	0.44531	no	H	H
184.0820312	n/a	47125	responseLargeH	correct	n/a	0.44531	no	n/a	n/a
185.15625	n/a	47400	largeHSmallH	correct	congruent	0.48438	no	H	H
185.640625	n/a	47524	responseLargeH	correct	n/a	0.48438	no	n/a	n/a
186.703125	n/a	47796	largeHSmallT	correct	incongruent	16.3516	yes	H	T
203.0546875	n/a	51982	responseLargeH	correct	n/a	16.3516	yes	n/a	n/a
204.1171875	n/a	52254	largeHSmallH	correct	congruent	0.55469	no	H	H
204.671875	n/a	52396	responseLargeH	correct	n/a	0.55469	no	n/a	n/a
205.7421875	n/a	52670	largeHSmallT	error	incongruent	0.56641	no	H	T
206.3085938	n/a	52815	responseLargeT	error	n/a	0.56641	no	n/a	n/a
207.3828125	n/a	53090	largeHSmallT	correct	incongruent	1.1016	no	H	T
208.484375	n/a	53372	responseLargeH	correct	n/a	1.1016	no	n/a	n/a
209.5703125	n/a	53650	largeTSmallH	correct	incongruent	0.5625	no	T	H
210.1328125	n/a	53794	responseLargeT	correct	n/a	0.5625	no	n/a	n/a
211.1953125	n/a	54066	largeHSmallT	n/a	incongruent	n/a	n/a	H	T
212.6640625	n/a	54442	largeTSmallH	correct	incongruent	0.48828	no	T	H
213.1523438	n/a	54567	responseLargeT	error	n/a	1.5469	yes	n/a	n/a
214.6992188	n/a	54963	responseLargeT	error	n/a	1.5469	yes	n/a	n/a
215.7695312	n/a	55237	largeTSmallH	correct	incongruent	0.48438	no	T	H
216.2539062	n/a	55361	responseLargeT	correct	n/a	0.48438	no	n/a	n/a
217.3164062	n/a	55633	largeTSmallH	correct	incongruent	0.53906	no	T	H
217.8554688	n/a	55771	responseLargeT	correct	n/a	0.53906	no	n/a	n/a
218.9179688	n/a	56043	largeHSmallT	correct	incongruent	0.53125	no	H	T
219.4492188	n/a	56179	responseLargeH	correct	n/a	0.53125	no	n/a	n/a
220.515625	n/a	56452	largeHSmallH	correct	congruent	0.5	no	H	H
221.015625	n/a	56580	responseLargeH	correct	n/a	0.5	no	n/a	n/a
222.0898438	n/a	56855	largeHSmallT	correct	incongruent	0.42969	no	H	T
222.5195312	n/a	56965	responseLargeH	correct	n/a	0.42969	no	n/a	n/a
223.5976562	n/a	57241	largeTSmallH	correct	incongruent	0.50781	no	T	H
224.1054688	n/a	57371	responseLargeT	correct	n/a	0.50781	no	n/a	n/a
225.1835938	n/a	57647	largeTSmallT	correct	congruent	0.52734	no	T	T
225.7109375	n/a	57782	responseLargeT	correct	n/a	0.52734	no	n/a	n/a
226.78125	n/a	58056	largeHSmallH	correct	congruent	75.8164	yes	H	H
302.5976562	n/a	77465	responseLargeH	error	n/a	1.6016	yes	n/a	n/a
304.1992188	n/a	77875	responseLargeT	error	n/a	1.6016	yes	n/a	n/a
306.7695312	n/a	78533	largeTSmallH	correct	incongruent	6.6484	yes	T	H
313.4179688	n/a	80235	responseLargeT	correct	n/a	6.6484	yes	n/a	n/a
314.4882812	n/a	80509	largeHSmallT	correct	incongruent	0.43359	no	H	T
314.921875	n/a	80620	responseLargeH	correct	n/a	0.43359	no	n/a	n/a
315.9960938	n/a	80895	largeHSmallH	correct	congruent	0.40234	no	H	H
316.3984375	n/a	80998	responseLargeH	correct	n/a	0.40234	no	n/a	n/a
317.4726562	n/a	81273	largeHSmallH	correct	congruent	0.42969	no	H	H
317.9023438	n/a	81383	responseLargeH	correct	n/a	0.42969	no	n/a	n/a
318.96875	n/a	81656	largeHSmallT	correct	incongruent	0.41406	no	H	T
319.3828125	n/a	81762	responseLargeH	correct	n/a	0.41406	no	n/a	n/a
320.4492188	n/a	82035	largeTSmallT	error	congruent	0.38672	no	T	T
320.8359375	n/a	82134	responseLargeH	error	n/a	0.38672	no	n/a	n/a
321.9023438	n/a	82407	largeTSmallH	correct	incongruent	0.38281	no	T	H
322.2851562	n/a	82505	responseLargeT	correct	n/a	0.38281	no	n/a	n/a
323.3554688	n/a	82779	largeTSmallH	correct	incongruent	0.42578	no	T	H
323.78125	n/a	82888	responseLargeT	correct	n/a	0.42578	no	n/a	n/a
324.8476562	n/a	83161	largeHSmallT	correct	incongruent	0.51562	no	H	T
325.3632812	n/a	83293	responseLargeH	correct	n/a	0.51562	no	n/a	n/a
326.4492188	n/a	83571	largeHSmallT	correct	incongruent	0.47656	no	H	T
326.9257812	n/a	83693	responseLargeH	correct	n/a	0.47656	no	n/a	n/a
327.9921875	n/a	83966	largeTSmallT	correct	congruent	0.50391	no	T	T
328.4960938	n/a	84095	responseLargeT	correct	n/a	0.50391	no	n/a	n/a
329.5664062	n/a	84369	largeHSmallH	correct	congruent	0.45703	no	H	H
330.0234375	n/a	84486	responseLargeH	correct	n/a	0.45703	no	n/a	n/a
331.0859375	n/a	84758	largeTSmallH	correct	incongruent	0.54297	no	T	H
331.6289062	n/a	84897	responseLargeT	correct	n/a	0.54297	no	n/a	n/a
342.21875	n/a	87608	largeHSmallH	correct	congruent	0.97266	no	H	H
343.1914062	n/a	87857	responseSmallH	correct	n/a	0.97266	no	n/a	n/a
344.2617188	n/a	88131	largeHSmallT	correct	incongruent	0.83203	no	H	T
345.09375	n/a	88344	responseSmallT	correct	n/a	0.83203	no	n/a	n/a
346.1523438	n/a	88615	largeHSmallH	correct	congruent	0.46875	no	H	H
346.6210938	n/a	88735	responseSmallH	correct	n/a	0.46875	no	n/a	n/a
347.6875	n/a	89008	largeTSmallT	correct	congruent	0.50391	no	T	T
348.1914062	n/a	89137	responseSmallT	correct	n/a	0.50391	no	n/a	n/a
349.2617188	n/a	89411	largeHSmallT	correct	incongruent	0.58984	no	H	T
349.8515625	n/a	89562	responseSmallT	correct	n/a	0.58984	no	n/a	n/a
350.9140625	n/a	89834	largeTSmallT	correct	congruent	0.48438	no	T	T
351.3984375	n/a	89958	responseSmallT	correct	n/a	0.48438	no	n/a	n/a
352.4726562	n/a	90233	largeHSmallT	correct	incongruent	0.42969	no	H	T
352.9023438	n/a	90343	responseSmallT	correct	n/a	0.42969	no	n/a	n/a
353.9804688	n/a	90619	largeTSmallH	correct	incongruent	2.0078	yes	T	H
355.9882812	n/a	91133	responseSmallH	correct	n/a	2.0078	yes	n/a	n/a
357.0585938	n/a	91407	largeTSmallT	n/a	congruent	n/a	n/a	T	T
358.5546875	n/a	91790	largeHSmallH	correct	congruent	0.39062	no	H	H
358.9453125	n/a	91890	responseSmallH	correct	n/a	0.39062	no	n/a	n/a
360.0078125	n/a	92162	largeHSmallT	correct	incongruent	0.74219	no	H	T
360.75	n/a	92352	responseSmallT	correct	n/a	0.74219	no	n/a	n/a
361.8203125	n/a	92626	largeTSmallT	correct	congruent	0.47266	no	T	T
362.2929688	n/a	92747	responseSmallT	correct	n/a	0.47266	no	n/a	n/a
363.3671875	n/a	93022	largeTSmallT	correct	congruent	0.51953	no	T	T
363.8867188	n/a	93155	responseSmallT	correct	n/a	0.51953	no	n/a	n/a
364.953125	n/a	93428	largeHSmallH	correct	congruent	0.45312	no	H	H
365.40625	n/a	93544	responseSmallH	error	n/a	1.5078	yes	n/a	n/a
366.9140625	n/a	93930	responseSmallT	error	n/a	1.5078	yes	n/a	n/a
367.9804688	n/a	94203	largeTSmallT	error	congruent	0.45312	no	T	T
368.4335938	n/a	94319	responseSmallH	error	n/a	0.45312	no	n/a	n/a
369.5117188	n/a	94595	largeHSmallT	n/a	incongruent	n/a	n/a	H	T
371.0585938	n/a	94991	largeTSmallT	correct	congruent	0.42188	no	T	T
371.4804688	n/a	95099	responseSmallT	correct	n/a	0.42188	no	n/a	n/a
372.5507812	n/a	95373	largeHSmallH	n/a	congruent	n/a	n/a	H	H
374.0859375	n/a	95766	largeTSmallT	correct	congruent	0.47656	no	T	T
374.5625	n/a	95888	responseSmallT	error	n/a	1.5273	yes	n/a	n/a
376.0898438	n/a	96279	responseSmallH	error	n/a	1.5273	yes	n/a	n/a
377.1523438	n/a	96551	largeTSmallH	correct	incongruent	0.625	no	T	H
377.7773438	n/a	96711	responseSmallH	correct	n/a	0.625	no	n/a	n/a
378.859375	n/a	96988	largeHSmallT	error	incongruent	0.41406	no	H	T
379.2734375	n/a	97094	responseSmallH	error	n/a	0.41406	no	n/a	n/a
380.3398438	n/a	97367	largeHSmallH	n/a	congruent	n/a	n/a	H	H
382.0078125	n/a	97794	largeTSmallT	correct	congruent	0.53125	no	T	T
382.5390625	n/a	97930	responseSmallT	error	n/a	1.4883	no	n/a	n/a
384.0273438	n/a	98311	responseSmallT	error	n/a	1.4883	no	n/a	n/a
385.0976562	n/a	98585	largeHSmallH	correct	congruent	0.52734	no	H	H
385.625	n/a	98720	responseSmallH	correct	n/a	0.52734	no	n/a	n/a
386.6992188	n/a	98995	largeTSmallT	correct	congruent	0.41406	no	T	T
387.1132812	n/a	99101	responseSmallT	correct	n/a	0.41406	no	n/a	n/a
388.1796875	n/a	99374	largeHSmallH	correct	congruent	0.39453	no	H	H
388.5742188	n/a	99475	responseSmallH	correct	n/a	0.39453	no	n/a	n/a
389.6328125	n/a	99746	largeTSmallH	correct	incongruent	0.71094	no	T	H
390.34375	n/a	99928	responseSmallH	correct	n/a	0.71094	no	n/a	n/a
391.4179688	n/a	100203	largeTSmallT	correct	congruent	0.48047	no	T	T
391.8984375	n/a	100326	responseSmallT	correct	n/a	0.48047	no	n/a	n/a
392.9804688	n/a	100603	largeTSmallT	correct	congruent	0.57812	no	T	T
393.5585938	n/a	100751	responseSmallT	error	n/a	4.5391	yes	n/a	n/a
398.0976562	n/a	101913	responseSmallH	error	n/a	4.5391	yes	n/a	n/a
399.1640625	n/a	102186	largeTSmallT	correct	congruent	0.53516	no	T	T
399.6992188	n/a	102323	responseSmallT	correct	n/a	0.53516	no	n/a	n/a
400.7773438	n/a	102599	largeTSmallT	error	congruent	1.957	yes	T	T
402.734375	n/a	103100	responseSmallH	error	n/a	1.957	yes	n/a	n/a
403.8046875	n/a	103374	largeHSmallT	n/a	incongruent	n/a	n/a	H	T
407.0703125	n/a	104210	largeHSmallH	correct	congruent	0.39844	no	H	H
407.46875	n/a	104312	responseSmallH	correct	n/a	0.39844	no	n/a	n/a
413.2578125	n/a	105794	largeTSmallH	correct	incongruent	0.55078	no	T	H
413.8085938	n/a	105935	responseSmallH	correct	n/a	0.55078	no	n/a	n/a
414.8710938	n/a	106207	largeTSmallT	correct	congruent	0.45703	no	T	T
415.328125	n/a	106324	responseSmallT	correct	n/a	0.45703	no	n/a	n/a
416.40625	n/a	106600	largeTSmallT	correct	congruent	0.67188	no	T	T
417.078125	n/a	106772	responseSmallT	error	n/a	1.7305	yes	n/a	n/a
418.8085938	n/a	107215	responseSmallT	error	n/a	1.4922	no	n/a	n/a
420.3007812	n/a	107597	responseSmallT	error	n/a	1.4922	no	n/a	n/a
421.3632812	n/a	107869	largeTSmallT	correct	congruent	0.45312	no	T	T
421.8164062	n/a	107985	responseSmallT	correct	n/a	0.45312	no	n/a	n/a
422.8867188	n/a	108259	largeHSmallT	n/a	incongruent	n/a	n/a	H	T
427.5898438	n/a	109463	largeHSmallH	correct	congruent	0.53516	no	H	H
428.125	n/a	109600	responseSmallH	error	n/a	3.1719	yes	n/a	n/a
431.296875	n/a	110412	responseSmallT	error	n/a	3.1719	yes	n/a	n/a
432.3632812	n/a	110685	largeHSmallT	error	incongruent	0.42578	no	H	T
432.7890625	n/a	110794	responseSmallH	error	n/a	0.42578	no	n/a	n/a
433.859375	n/a	111068	largeHSmallT	correct	incongruent	0.59375	no	H	T
434.453125	n/a	111220	responseSmallT	correct	n/a	0.59375	no	n/a	n/a
435.5234375	n/a	111494	largeHSmallH	correct	congruent	0.52734	no	H	H
436.0507812	n/a	111629	responseSmallH	correct	n/a	0.52734	no	n/a	n/a
437.125	n/a	111904	largeHSmallT	correct	incongruent	0.46094	no	H	T
437.5859375	n/a	112022	responseSmallT	correct	n/a	0.46094	no	n/a	n/a
438.65625	n/a	112296	largeTSmallT	correct	congruent	0.52344	no	T	T
439.1796875	n/a	112430	responseSmallT	error	n/a	1.6562	yes	n/a	n/a
440.8359375	n/a	112854	responseSmallH	error	n/a	1.6562	yes	n/a	n/a
441.9101562	n/a	113129	largeTSmallH	error	incongruent	0.55078	no	T	H
442.4609375	n/a	113270	responseSmallT	error	n/a	1.6758	yes	n/a	n/a
444.1367188	n/a	113699	responseSmallT	error	n/a	1.6758	yes	n/a	n/a
445.203125	n/a	113972	largeTSmallT	correct	congruent	0.51172	no	T	T
445.7148438	n/a	114103	responseSmallT	correct	n/a	0.51172	no	n/a	n/a
446.7890625	n/a	114378	largeHSmallH	n/a	congruent	n/a	n/a	H	H
448.3359375	n/a	114774	largeHSmallH	correct	congruent	0.46875	no	H	H
448.8046875	n/a	114894	responseSmallH	error	n/a	1.5547	yes	n/a	n/a
450.359375	n/a	115292	responseSmallH	error	n/a	1.5547	yes	n/a	n/a
451.4296875	n/a	115566	largeHSmallH	correct	congruent	0.45703	no	H	H
451.8867188	n/a	115683	responseSmallH	correct	n/a	0.45703	no	n/a	n/a
452.9492188	n/a	115955	largeTSmallH	correct	incongruent	0.45312	no	T	H
453.4023438	n/a	116071	responseSmallH	correct	n/a	0.45312	no	n/a	n/a
454.46875	n/a	116344	largeTSmallH	correct	incongruent	7.8281	yes	T	H
462.296875	n/a	118348	responseSmallH	error	n/a	7.5859	yes	n/a	n/a
469.8828125	n/a	120290	responseSmallH	error	n/a	3.6914	yes	n/a	n/a
473.5742188	n/a	121235	responseSmallH	error	n/a	3.6914	yes	n/a	n/a
482.4414062	n/a	123505	largeHSmallH	n/a	congruent	n/a	n/a	H	H
490.1484375	n/a	125478	largeHSmallH	correct	congruent	0.41797	no	H	H
490.5664062	n/a	125585	responseSmallH	correct	n/a	0.41797	no	n/a	n/a
491.6289062	n/a	125857	largeHSmallT	correct	incongruent	0.58984	no	H	T
492.21875	n/a	126008	responseSmallT	correct	n/a	0.58984	no	n/a	n/a
493.296875	n/a	126284	largeTSmallT	correct	congruent	0.51562	no	T	T
493.8125	n/a	126416	responseSmallT	correct	n/a	0.51562	no	n/a	n/a
494.8945312	n/a	126693	largeHSmallT	correct	incongruent	0.52344	no	H	T
495.4179688	n/a	126827	responseSmallT	correct	n/a	0.52344	no	n/a	n/a
496.4960938	n/a	127103	largeTSmallH	n/a	incongruent	n/a	n/a	T	H
498.0820312	n/a	127509	largeHSmallT	correct	incongruent	0.58203	no	H	T
498.6640625	n/a	127658	responseSmallT	correct	n/a	0.58203	no	n/a	n/a
499.734375	n/a	127932	largeHSmallH	correct	congruent	0.46484	no	H	H
500.1992188	n/a	128051	responseSmallH	correct	n/a	0.46484	no	n/a	n/a
501.2695312	n/a	128325	largeTSmallH	correct	incongruent	0.49609	no	T	H
501.765625	n/a	128452	responseSmallH	correct	n/a	0.49609	no	n/a	n/a
502.84375	n/a	128728	largeHSmallT	correct	incongruent	0.48438	no	H	T
503.328125	n/a	128852	responseSmallT	correct	n/a	0.48438	no	n/a	n/a
504.4023438	n/a	129127	largeTSmallH	correct	incongruent	0.38281	no	T	H
504.7851562	n/a	129225	responseSmallH	correct	n/a	0.38281	no	n/a	n/a
505.8554688	n/a	129499	largeTSmallH	correct	incongruent	0.39062	no	T	H
506.2460938	n/a	129599	responseSmallH	correct	n/a	0.39062	no	n/a	n/a
507.3242188	n/a	129875	largeTSmallH	correct	incongruent	0.50391	no	T	H
507.828125	n/a	130004	responseSmallH	correct	n/a	0.50391	no	n/a	n/a
508.8945312	n/a	130277	largeHSmallT	correct	incongruent	0.41797	no	H	T
509.3125	n/a	130384	responseSmallT	correct	n/a	0.41797	no	n/a	n/a
510.375	n/a	130656	largeTSmallH	error	incongruent	0.39453	no	T	H
510.7695312	n/a	130757	responseSmallT	error	n/a	0.39453	no	n/a	n/a
511.8554688	n/a	131035	largeTSmallH	correct	incongruent	0.5	no	T	H
512.3554688	n/a	131163	responseSmallH	correct	n/a	0.5	no	n/a	n/a
513.4296875	n/a	131438	largeHSmallT	error	incongruent	0.43359	no	H	T
513.8632812	n/a	131549	responseSmallH	error	n/a	0.43359	no	n/a	n/a
514.9375	n/a	131824	largeTSmallT	correct	congruent	0.46484	no	T	T
515.4023438	n/a	131943	responseSmallT	correct	n/a	0.46484	no	n/a	n/a
516.4804688	n/a	132219	largeHSmallH	correct	congruent	0.51172	no	H	H
516.9921875	n/a	132350	responseSmallH	correct	n/a	0.51172	no	n/a	n/a
518.0703125	n/a	132626	largeTSmallH	correct	incongruent	0.54688	no	T	H
518.6171875	n/a	132766	responseSmallH	correct	n/a	0.54688	no	n/a	n/a
519.6953125	n/a	133042	largeHSmallH	correct	congruent	0.44531	no	H	H
520.140625	n/a	133156	responseSmallH	correct	n/a	0.44531	no	n/a	n/a
521.203125	n/a	133428	largeHSmallH	correct	congruent	0.39062	no	H	H
521.59375	n/a	133528	responseSmallH	error	n/a	1.5898	yes	n/a	n/a
523.1835938	n/a	133935	responseSmallT	error	n/a	1.5898	yes	n/a	n/a
524.2539062	n/a	134209	largeTSmallT	correct	congruent	0.47266	no	T	T
524.7265625	n/a	134330	responseSmallT	correct	n/a	0.47266	no	n/a	n/a
525.7890625	n/a	134602	largeTSmallT	correct	congruent	0.41016	no	T	T
526.1992188	n/a	134707	responseSmallT	correct	n/a	0.41016	no	n/a	n/a
527.28125	n/a	134984	largeTSmallT	correct	congruent	0.38281	no	T	T
527.6640625	n/a	135082	responseSmallT	correct	n/a	0.38281	no	n/a	n/a
528.75	n/a	135360	largeHSmallT	correct	incongruent	1.8984	yes	H	T
530.6484375	n/a	135846	responseSmallT	correct	n/a	1.8984	yes	n/a	n/a
531.7226562	n/a	136121	largeTSmallT	correct	congruent	0.37109	no	T	T
532.09375	n/a	136216	responseSmallT	error	n/a	1.6445	yes	n/a	n/a
533.7382812	n/a	136637	responseSmallH	error	n/a	1.4531	no	n/a	n/a
535.1914062	n/a	137009	responseSmallT	error	n/a	1.4531	no	n/a	n/a
536.2539062	n/a	137281	largeHSmallH	correct	congruent	0.50781	no	H	H
536.7617188	n/a	137411	responseSmallH	correct	n/a	0.50781	no	n/a	n/a
537.8398438	n/a	137687	largeTSmallH	error	incongruent	0.59375	no	T	H
538.4335938	n/a	137839	responseSmallT	error	n/a	0.59375	no	n/a	n/a
539.5078125	n/a	138114	largeHSmallH	n/a	congruent	n/a	n/a	H	H
541.0273438	n/a	138503	largeHSmallT	error	incongruent	3.5469	yes	H	T
544.5742188	n/a	139411	responseSmallH	error	n/a	3.0234	yes	n/a	n/a
547.5976562	n/a	140185	responseSmallH	error	n/a	3.0234	yes	n/a	n/a
548.6679688	n/a	140459	largeTSmallT	error	congruent	0.35938	no	T	T
549.0273438	n/a	140551	responseSmallH	error	n/a	1.5312	yes	n/a	n/a
550.5585938	n/a	140943	responseSmallH	error	n/a	1.5312	yes	n/a	n/a
553.1328125	n/a	141602	largeHSmallT	n/a	incongruent	n/a	n/a	H	T
554.640625	n/a	141988	largeHSmallT	correct	incongruent	0.44922	no	H	T
555.0898438	n/a	142103	responseSmallT	correct	n/a	0.44922	no	n/a	n/a
556.1601562	n/a	142377	largeTSmallH	correct	incongruent	0.4375	no	T	H
556.5976562	n/a	142489	responseSmallH	correct	n/a	0.4375	no	n/a	n/a
557.6679688	n/a	142763	largeHSmallT	correct	incongruent	0.42188	no	H	T
558.0898438	n/a	142871	responseSmallT	correct	n/a	0.42188	no	n/a	n/a
559.1601562	n/a	143145	largeHSmallH	correct	congruent	0.38672	no	H	H
559.546875	n/a	143244	responseSmallH	correct	n/a	0.38672	no	n/a	n/a
560.6132812	n/a	143517	largeTSmallH	correct	incongruent	0.52734	no	T	H
561.140625	n/a	143652	responseSmallH	correct	n/a	0.52734	no	n/a	n/a
562.1992188	n/a	143923	largeHSmallT	correct	incongruent	0.55469	no	H	T
562.7539062	n/a	144065	responseSmallT	correct	n/a	0.55469	no	n/a	n/a
563.828125	n/a	144340	largeHSmallT	error	incongruent	0.35156	no	H	T
564.1796875	n/a	144430	responseSmallH	error	n/a	0.35156	no	n/a	n/a
565.2421875	n/a	144702	largeTSmallH	correct	incongruent	0.5	no	T	H
565.7421875	n/a	144830	responseSmallH	correct	n/a	0.5	no	n/a	n/a
566.8007812	n/a	145101	largeHSmallT	correct	incongruent	0.5625	no	H	T
567.3632812	n/a	145245	responseSmallT	correct	n/a	0.5625	no	n/a	n/a
568.4257812	n/a	145517	largeHSmallT	correct	incongruent	0.48047	no	H	T
568.90625	n/a	145640	responseSmallT	correct	n/a	0.48047	no	n/a	n/a
569.9726562	n/a	145913	largeHSmallT	correct	incongruent	0.50391	no	H	T
570.4765625	n/a	146042	responseSmallT	correct	n/a	0.50391	no	n/a	n/a
571.546875	n/a	146316	largeTSmallT	correct	congruent	0.4375	no	T	T
571.984375	n/a	146428	responseSmallT	correct	n/a	0.4375	no	n/a	n/a
573.0664062	n/a	146705	largeHSmallT	correct	incongruent	0.42188	no	H	T
573.4882812	n/a	146813	responseSmallT	correct	n/a	0.42188	no	n/a	n/a
574.5625	n/a	147088	largeHSmallH	correct	congruent	0.51562	no	H	H
575.078125	n/a	147220	responseSmallH	correct	n/a	0.51562	no	n/a	n/a
576.1484375	n/a	147494	largeTSmallH	correct	incongruent	0.5	no	T	H
576.6484375	n/a	147622	responseSmallH	correct	n/a	0.5	no	n/a	n/a
577.7070312	n/a	147893	largeHSmallT	error	incongruent	0.50391	no	H	T
578.2109375	n/a	148022	responseSmallH	error	n/a	0.50391	no	n/a	n/a
579.28125	n/a	148296	largeHSmallT	correct	incongruent	0.57031	no	H	T
579.8515625	n/a	148442	responseSmallT	correct	n/a	0.57031	no	n/a	n/a
580.921875	n/a	148716	largeTSmallH	correct	incongruent	0.42969	no	T	H
581.3515625	n/a	148826	responseSmallH	correct	n/a	0.42969	no	n/a	n/a
582.4257812	n/a	149101	largeTSmallH	correct	incongruent	0.44531	no	T	H
582.8710938	n/a	149215	responseSmallH	correct	n/a	0.44531	no	n/a	n/a
583.9492188	n/a	149491	largeTSmallH	correct	incongruent	0.42188	no	T	H
584.3710938	n/a	149599	responseSmallH	correct	n/a	0.42188	no	n/a	n/a
585.453125	n/a	149876	largeTSmallH	correct	incongruent	0.40234	no	T	H
585.8554688	n/a	149979	responseSmallH	correct	n/a	0.40234	no	n/a	n/a
586.9335938	n/a	150255	largeHSmallT	correct	incongruent	0.55078	no	H	T
587.484375	n/a	150396	responseSmallT	correct	n/a	0.55078	no	n/a	n/a
588.546875	n/a	150668	largeHSmallH	correct	congruent	0.45312	no	H	H
589	n/a	150784	responseSmallH	correct	n/a	0.45312	no	n/a	n/a
590.0664062	n/a	151057	largeHSmallH	correct	congruent	0.48047	no	H	H
590.546875	n/a	151180	responseSmallH	correct	n/a	0.48047	no	n/a	n/a
591.6289062	n/a	151457	largeHSmallH	correct	congruent	0.42578	no	H	H
592.0546875	n/a	151566	responseSmallH	correct	n/a	0.42578	no	n/a	n/a
593.1210938	n/a	151839	largeHSmallT	correct	incongruent	0.52344	no	H	T
593.6445312	n/a	151973	responseSmallT	correct	n/a	0.52344	no	n/a	n/a
594.71875	n/a	152248	largeHSmallH	correct	congruent	0.42578	no	H	H
595.1445312	n/a	152357	responseSmallH	correct	n/a	0.42578	no	n/a	n/a
596.2148438	n/a	152631	largeHSmallH	correct	congruent	0.40234	no	H	H
596.6171875	n/a	152734	responseSmallH	correct	n/a	0.40234	no	n/a	n/a
597.6953125	n/a	153010	largeTSmallH	correct	incongruent	0.43359	no	T	H
598.1289062	n/a	153121	responseSmallH	correct	n/a	0.43359	no	n/a	n/a
599.2148438	n/a	153399	largeHSmallT	correct	incongruent	0.60938	no	H	T
599.8242188	n/a	153555	responseSmallT	correct	n/a	0.60938	no	n/a	n/a
600.8945312	n/a	153829	largeTSmallT	correct	congruent	0.52734	no	T	T
601.421875	n/a	153964	responseSmallT	correct	n/a	0.52734	no	n/a	n/a
602.4921875	n/a	154238	largeHSmallH	correct	congruent	0.55078	no	H	H
603.0429688	n/a	154379	responseSmallH	correct	n/a	0.55078	no	n/a	n/a
604.1210938	n/a	154655	largeTSmallT	correct	congruent	0.51953	no	T	T
604.640625	n/a	154788	responseSmallT	correct	n/a	0.51953	no	n/a	n/a
605.7070312	n/a	155061	largeTSmallT	correct	congruent	0.5625	no	T	T
606.2695312	n/a	155205	responseSmallT	correct	n/a	0.5625	no	n/a	n/a
607.3320312	n/a	155477	largeTSmallH	correct	incongruent	0.58594	no	T	H
607.9179688	n/a	155627	responseSmallH	correct	n/a	0.58594	no	n/a	n/a
608.9882812	n/a	155901	largeHSmallH	correct	congruent	0.69531	no	H	H
609.6835938	n/a	156079	responseSmallH	correct	n/a	0.69531	no	n/a	n/a
610.7460938	n/a	156351	largeTSmallT	correct	congruent	0.41406	no	T	T
611.1601562	n/a	156457	responseSmallT	correct	n/a	0.41406	no	n/a	n/a
612.2382812	n/a	156733	largeHSmallT	correct	incongruent	0.50391	no	H	T
612.7421875	n/a	156862	responseSmallT	correct	n/a	0.50391	no	n/a	n/a
613.8125	n/a	157136	largeTSmallT	correct	congruent	0.44922	no	T	T
614.2617188	n/a	157251	responseSmallT	correct	n/a	0.44922	no	n/a	n/a
615.3320312	n/a	157525	largeTSmallT	correct	congruent	0.48438	no	T	T
615.8164062	n/a	157649	responseSmallT	correct	n/a	0.48438	no	n/a	n/a
616.8789062	n/a	157921	largeHSmallT	correct	incongruent	0.76953	no	H	T
617.6484375	n/a	158118	responseSmallT	correct	n/a	0.76953	no	n/a	n/a
618.71875	n/a	158392	largeTSmallT	correct	congruent	0.47266	no	T	T
619.1914062	n/a	158513	responseSmallT	correct	n/a	0.47266	no	n/a	n/a
620.265625	n/a	158788	largeTSmallT	correct	congruent	0.58984	no	T	T
620.8554688	n/a	158939	responseSmallT	correct	n/a	0.58984	no	n/a	n/a
621.9179688	n/a	159211	largeHSmallT	error	incongruent	0.41406	no	H	T
622.3320312	n/a	159317	responseSmallH	error	n/a	0.41406	no	n/a	n/a
623.3984375	n/a	159590	largeTSmallT	correct	congruent	0.44922	no	T	T
623.8476562	n/a	159705	responseSmallT	correct	n/a	0.44922	no	n/a	n/a
624.9179688	n/a	159979	largeTSmallT	correct	congruent	0.42969	no	T	T
625.3476562	n/a	160089	responseSmallT	correct	n/a	0.42969	no	n/a	n/a
626.4140625	n/a	160362	largeHSmallH	correct	congruent	0.5	no	H	H
626.9140625	n/a	160490	responseSmallH	correct	n/a	0.5	no	n/a	n/a
627.984375	n/a	160764	largeHSmallH	correct	congruent	0.50391	no	H	H
628.4882812	n/a	160893	responseSmallH	correct	n/a	0.50391	no	n/a	n/a
629.5585938	n/a	161167	largeTSmallH	correct	incongruent	0.55469	no	T	H
630.1132812	n/a	161309	responseSmallH	correct	n/a	0.55469	no	n/a	n/a
631.1875	n/a	161584	largeTSmallT	correct	congruent	0.41016	no	T	T
631.5976562	n/a	161689	responseSmallT	correct	n/a	0.41016	no	n/a	n/a
632.6640625	n/a	161962	largeTSmallT	correct	congruent	0.375	no	T	T
633.0390625	n/a	162058	responseSmallT	correct	n/a	0.375	no	n/a	n/a
634.1054688	n/a	162331	largeHSmallT	error	incongruent	0.57422	no	H	T
634.6796875	n/a	162478	responseSmallH	error	n/a	0.57422	no	n/a	n/a
635.7578125	n/a	162754	largeTSmallH	error	incongruent	0.37891	no	T	H
636.1367188	n/a	162851	responseSmallT	error	n/a	0.37891	no	n/a	n/a
637.2109375	n/a	163126	largeHSmallT	correct	incongruent	0.54297	no	H	T
637.7539062	n/a	163265	responseSmallT	correct	n/a	0.54297	no	n/a	n/a
638.8125	n/a	163536	largeTSmallH	correct	incongruent	0.51172	no	T	H
639.3242188	n/a	163667	responseSmallH	correct	n/a	0.51172	no	n/a	n/a
640.3867188	n/a	163939	largeHSmallH	correct	congruent	0.43359	no	H	H
640.8203125	n/a	164050	responseSmallH	correct	n/a	0.43359	no	n/a	n/a
641.890625	n/a	164324	largeHSmallT	correct	incongruent	0.64453	no	H	T
642.5351562	n/a	164489	responseSmallT	correct	n/a	0.64453	no	n/a	n/a
643.6132812	n/a	164765	largeTSmallT	correct	congruent	0.43359	no	T	T
644.046875	n/a	164876	responseSmallT	correct	n/a	0.43359	no	n/a	n/a
645.1210938	n/a	165151	largeTSmallT	correct	congruent	0.47266	no	T	T
645.59375	n/a	165272	responseSmallT	correct	n/a	0.47266	no	n/a	n/a
646.6640625	n/a	165546	largeTSmallH	correct	incongruent	0.55078	no	T	H
647.2148438	n/a	165687	responseSmallH	correct	n/a	0.55078	no	n/a	n/a
648.2773438	n/a	165959	largeHSmallH	correct	congruent	0.59375	no	H	H
648.8710938	n/a	166111	responseSmallH	correct	n/a	0.59375	no	n/a	n/a
649.9335938	n/a	166383	largeTSmallH	correct	incongruent	0.52344	no	T	H
650.4570312	n/a	166517	responseSmallH	correct	n/a	0.52344	no	n/a	n/a
651.53125	n/a	166792	largeTSmallH	correct	incongruent	0.48438	no	T	H
652.015625	n/a	166916	responseSmallH	correct	n/a	0.48438	no	n/a	n/a
653.09375	n/a	167192	largeHSmallH	correct	congruent	0.42188	no	H	H
653.515625	n/a	167300	responseSmallH	correct	n/a	0.42188	no	n/a	n/a
677.6523438	n/a	173479	largeTSmallH	error	incongruent	2.5195	yes	T	H
680.171875	n/a	174124	responseLargeH	error	n/a	2.5195	yes	n/a	n/a
681.25	n/a	174400	largeHSmallH	correct	congruent	0.66016	no	H	H
681.9101562	n/a	174569	responseLargeH	correct	n/a	0.66016	no	n/a	n/a
682.984375	n/a	174844	largeTSmallH	correct	incongruent	0.50781	no	T	H
683.4921875	n/a	174974	responseLargeT	correct	n/a	0.50781	no	n/a	n/a
684.5585938	n/a	175247	largeTSmallT	correct	congruent	0.43359	no	T	T
684.9921875	n/a	175358	responseLargeT	correct	n/a	0.43359	no	n/a	n/a
686.0664062	n/a	175633	largeTSmallH	correct	incongruent	0.48047	no	T	H
686.546875	n/a	175756	responseLargeT	correct	n/a	0.48047	no	n/a	n/a
687.609375	n/a	176028	largeTSmallT	correct	congruent	0.39453	no	T	T
688.0039062	n/a	176129	responseLargeT	correct	n/a	0.39453	no	n/a	n/a
689.078125	n/a	176404	largeHSmallT	correct	incongruent	0.55469	no	H	T
689.6328125	n/a	176546	responseLargeH	correct	n/a	0.55469	no	n/a	n/a
690.703125	n/a	176820	largeHSmallH	correct	congruent	0.46484	no	H	H
691.1679688	n/a	176939	responseLargeH	correct	n/a	0.46484	no	n/a	n/a
692.25	n/a	177216	largeTSmallT	correct	congruent	0.46484	no	T	T
692.7148438	n/a	177335	responseLargeT	correct	n/a	0.46484	no	n/a	n/a
693.7851562	n/a	177609	largeTSmallT	correct	congruent	0.48438	no	T	T
694.2695312	n/a	177733	responseLargeT	correct	n/a	0.48438	no	n/a	n/a
695.3320312	n/a	178005	largeTSmallT	correct	congruent	0.43359	no	T	T
695.765625	n/a	178116	responseLargeT	correct	n/a	0.43359	no	n/a	n/a
696.8359375	n/a	178390	largeTSmallH	correct	incongruent	0.42578	no	T	H
697.2617188	n/a	178499	responseLargeT	correct	n/a	0.42578	no	n/a	n/a
698.3320312	n/a	178773	largeTSmallH	correct	incongruent	0.39062	no	T	H
698.7226562	n/a	178873	responseLargeT	correct	n/a	0.39062	no	n/a	n/a
699.796875	n/a	179148	largeHSmallH	correct	congruent	0.42578	no	H	H
700.2226562	n/a	179257	responseLargeH	correct	n/a	0.42578	no	n/a	n/a
701.2929688	n/a	179531	largeHSmallT	correct	incongruent	0.46875	no	H	T
701.7617188	n/a	179651	responseLargeH	correct	n/a	0.46875	no	n/a	n/a
702.8359375	n/a	179926	largeTSmallH	correct	incongruent	0.46875	no	T	H
703.3046875	n/a	180046	responseLargeT	correct	n/a	0.46875	no	n/a	n/a
704.3828125	n/a	180322	largeHSmallH	correct	congruent	0.45703	no	H	H
704.8398438	n/a	180439	responseLargeH	correct	n/a	0.45703	no	n/a	n/a
705.9179688	n/a	180715	largeHSmallT	error	incongruent	0.36328	no	H	T
706.28125	n/a	180808	responseLargeT	error	n/a	0.36328	no	n/a	n/a
707.359375	n/a	181084	largeHSmallH	correct	congruent	0.49609	no	H	H
707.8554688	n/a	181211	responseLargeH	correct	n/a	0.49609	no	n/a	n/a
710.4765625	n/a	181882	largeTSmallT	correct	congruent	0.44141	no	T	T
710.9179688	n/a	181995	responseLargeT	correct	n/a	0.44141	no	n/a	n/a
711.9960938	n/a	182271	largeHSmallT	correct	incongruent	0.44531	no	H	T
712.4414062	n/a	182385	responseLargeH	error	n/a	1.4922	no	n/a	n/a
713.9335938	n/a	182767	responseLargeT	error	n/a	1.4922	no	n/a	n/a
715.0117188	n/a	183043	largeHSmallH	correct	congruent	0.40625	no	H	H
715.4179688	n/a	183147	responseLargeH	correct	n/a	0.40625	no	n/a	n/a
716.4921875	n/a	183422	largeHSmallH	n/a	congruent	n/a	n/a	H	H
718.0507812	n/a	183821	largeHSmallH	correct	congruent	0.46484	no	H	H
718.515625	n/a	183940	responseLargeH	correct	n/a	0.46484	no	n/a	n/a
719.5976562	n/a	184217	largeHSmallT	error	incongruent	0.51562	no	H	T
720.1132812	n/a	184349	responseLargeT	error	n/a	0.51562	no	n/a	n/a
721.1835938	n/a	184623	largeTSmallT	correct	congruent	0.40625	no	T	T
721.5898438	n/a	184727	responseLargeT	correct	n/a	0.40625	no	n/a	n/a
722.6640625	n/a	185002	largeHSmallH	correct	congruent	0.44141	no	H	H
723.1054688	n/a	185115	responseLargeH	error	n/a	1.4648	no	n/a	n/a
724.5703125	n/a	185490	responseLargeH	error	n/a	1.4648	no	n/a	n/a
725.6484375	n/a	185766	largeHSmallH	correct	congruent	0.40625	no	H	H
726.0546875	n/a	185870	responseLargeH	correct	n/a	0.40625	no	n/a	n/a
727.1289062	n/a	186145	largeTSmallT	correct	congruent	0.47656	no	T	T
727.6054688	n/a	186267	responseLargeT	correct	n/a	0.47656	no	n/a	n/a
728.6757812	n/a	186541	largeTSmallT	correct	congruent	0.41406	no	T	T
729.0898438	n/a	186647	responseLargeT	correct	n/a	0.41406	no	n/a	n/a
730.171875	n/a	186924	largeHSmallT	correct	incongruent	0.47656	no	H	T
730.6484375	n/a	187046	responseLargeH	correct	n/a	0.47656	no	n/a	n/a
731.71875	n/a	187320	largeHSmallT	correct	incongruent	0.51172	no	H	T
732.2304688	n/a	187451	responseLargeH	correct	n/a	0.51172	no	n/a	n/a
733.3046875	n/a	187726	largeHSmallH	correct	congruent	0.50781	no	H	H
733.8125	n/a	187856	responseLargeH	correct	n/a	0.50781	no	n/a	n/a
734.875	n/a	188128	largeHSmallT	correct	incongruent	0.39062	no	H	T
735.265625	n/a	188228	responseLargeH	correct	n/a	0.39062	no	n/a	n/a
736.328125	n/a	188500	largeHSmallH	correct	congruent	0.42188	no	H	H
736.75	n/a	188608	responseLargeH	correct	n/a	0.42188	no	n/a	n/a
737.8242188	n/a	188883	largeHSmallT	correct	incongruent	0.42578	no	H	T
738.25	n/a	188992	responseLargeH	correct	n/a	0.42578	no	n/a	n/a
739.328125	n/a	189268	largeHSmallH	correct	congruent	0.45703	no	H	H
739.7851562	n/a	189385	responseLargeH	correct	n/a	0.45703	no	n/a	n/a
740.8515625	n/a	189658	largeTSmallH	correct	incongruent	0.46094	no	T	H
741.3125	n/a	189776	responseLargeT	correct	n/a	0.46094	no	n/a	n/a
742.3828125	n/a	190050	largeHSmallH	correct	congruent	0.33203	no	H	H
742.7148438	n/a	190135	responseLargeH	correct	n/a	0.33203	no	n/a	n/a
743.7851562	n/a	190409	largeHSmallT	correct	incongruent	0.41406	no	H	T
744.1992188	n/a	190515	responseLargeH	correct	n/a	0.41406	no	n/a	n/a
745.2617188	n/a	190787	largeTSmallT	correct	congruent	0.51562	no	T	T
745.7773438	n/a	190919	responseLargeT	correct	n/a	0.51562	no	n/a	n/a
746.8515625	n/a	191194	largeTSmallT	correct	congruent	0.64453	no	T	T
747.4960938	n/a	191359	responseLargeT	correct	n/a	0.64453	no	n/a	n/a
748.5546875	n/a	191630	largeTSmallT	correct	congruent	0.40625	no	T	T
748.9609375	n/a	191734	responseLargeT	correct	n/a	0.40625	no	n/a	n/a
750.0234375	n/a	192006	largeTSmallH	correct	incongruent	0.41016	no	T	H
750.4335938	n/a	192111	responseLargeT	correct	n/a	0.41016	no	n/a	n/a
751.515625	n/a	192388	largeHSmallT	correct	incongruent	0.45703	no	H	T
751.9726562	n/a	192505	responseLargeH	correct	n/a	0.45703	no	n/a	n/a
753.0351562	n/a	192777	largeTSmallT	correct	congruent	0.42578	no	T	T
753.4609375	n/a	192886	responseLargeT	correct	n/a	0.42578	no	n/a	n/a
754.5429688	n/a	193163	largeHSmallH	correct	congruent	0.41406	no	H	H
754.9570312	n/a	193269	responseLargeH	correct	n/a	0.41406	no	n/a	n/a
756.0351562	n/a	193545	largeTSmallT	correct	congruent	0.40625	no	T	T
756.4414062	n/a	193649	responseLargeT	correct	n/a	0.40625	no	n/a	n/a
757.515625	n/a	193924	largeTSmallH	correct	incongruent	0.50781	no	T	H
758.0234375	n/a	194054	responseLargeT	correct	n/a	0.50781	no	n/a	n/a
759.0898438	n/a	194327	largeTSmallH	correct	incongruent	0.4375	no	T	H
759.5273438	n/a	194439	responseLargeT	correct	n/a	0.4375	no	n/a	n/a
760.609375	n/a	194716	largeTSmallH	correct	incongruent	0.39844	no	T	H
761.0078125	n/a	194818	responseLargeT	correct	n/a	0.39844	no	n/a	n/a
762.0898438	n/a	195095	largeTSmallH	correct	incongruent	0.43359	no	T	H
762.5234375	n/a	195206	responseLargeT	correct	n/a	0.43359	no	n/a	n/a
763.5976562	n/a	195481	largeTSmallH	correct	incongruent	0.44922	no	T	H
764.046875	n/a	195596	responseLargeT	correct	n/a	0.44922	no	n/a	n/a
765.1171875	n/a	195870	largeHSmallH	correct	congruent	0.48438	no	H	H
765.6015625	n/a	195994	responseLargeH	correct	n/a	0.48438	no	n/a	n/a
766.6757812	n/a	196269	largeHSmallH	error	congruent	0.50391	no	H	H
767.1796875	n/a	196398	responseLargeT	error	n/a	0.50391	no	n/a	n/a
768.25	n/a	196672	largeHSmallT	correct	incongruent	0.49609	no	H	T
768.7460938	n/a	196799	responseLargeH	correct	n/a	0.49609	no	n/a	n/a
769.8085938	n/a	197071	largeHSmallH	correct	congruent	0.51562	no	H	H
770.3242188	n/a	197203	responseLargeH	correct	n/a	0.51562	no	n/a	n/a
771.3945312	n/a	197477	largeHSmallT	correct	incongruent	0.44141	no	H	T
771.8359375	n/a	197590	responseLargeH	correct	n/a	0.44141	no	n/a	n/a
772.9140625	n/a	197866	largeTSmallH	correct	incongruent	0.74219	no	T	H
773.65625	n/a	198056	responseLargeT	correct	n/a	0.74219	no	n/a	n/a
774.7304688	n/a	198331	largeTSmallT	correct	congruent	0.50781	no	T	T
775.2382812	n/a	198461	responseLargeT	correct	n/a	0.50781	no	n/a	n/a
776.3164062	n/a	198737	largeTSmallT	correct	congruent	0.53125	no	T	T
776.8476562	n/a	198873	responseLargeT	correct	n/a	0.53125	no	n/a	n/a
777.9140625	n/a	199146	largeHSmallT	correct	incongruent	0.62109	no	H	T
778.5351562	n/a	199305	responseLargeH	correct	n/a	0.62109	no	n/a	n/a
779.609375	n/a	199580	largeHSmallT	n/a	incongruent	n/a	n/a	H	T
782.703125	n/a	200372	largeTSmallT	correct	congruent	0.73438	no	T	T
783.4375	n/a	200560	responseLargeT	correct	n/a	0.73438	no	n/a	n/a
784.5039062	n/a	200833	largeTSmallH	correct	incongruent	0.40234	no	T	H
784.90625	n/a	200936	responseLargeT	correct	n/a	0.40234	no	n/a	n/a
785.96875	n/a	201208	largeTSmallH	n/a	incongruent	n/a	n/a	T	H
787.5273438	n/a	201607	largeTSmallT	correct	congruent	0.49219	no	T	T
788.0195312	n/a	201733	responseLargeT	correct	n/a	0.49219	no	n/a	n/a
789.0898438	n/a	202007	largeHSmallT	error	incongruent	0.44922	no	H	T
789.5390625	n/a	202122	responseLargeT	error	n/a	0.44922	no	n/a	n/a
790.609375	n/a	202396	largeTSmallH	correct	incongruent	0.50391	no	T	H
791.1132812	n/a	202525	responseLargeT	correct	n/a	0.50391	no	n/a	n/a
792.1835938	n/a	202799	largeHSmallT	correct	incongruent	0.45703	no	H	T
792.640625	n/a	202916	responseLargeH	correct	n/a	0.45703	no	n/a	n/a
793.7148438	n/a	203191	largeTSmallT	correct	congruent	0.34375	no	T	T
794.0585938	n/a	203279	responseLargeT	correct	n/a	0.34375	no	n/a	n/a
795.1289062	n/a	203553	largeHSmallT	correct	incongruent	0.60547	no	H	T
795.734375	n/a	203708	responseLargeH	correct	n/a	0.60547	no	n/a	n/a
796.796875	n/a	203980	largeTSmallH	correct	incongruent	0.41406	no	T	H
797.2109375	n/a	204086	responseLargeT	error	n/a	1.6758	yes	n/a	n/a
798.8867188	n/a	204515	responseLargeH	error	n/a	1.6758	yes	n/a	n/a
799.96875	n/a	204792	largeTSmallH	correct	incongruent	0.37891	no	T	H
800.3476562	n/a	204889	responseLargeT	correct	n/a	0.37891	no	n/a	n/a
801.421875	n/a	205164	largeTSmallH	correct	incongruent	0.55078	no	T	H
801.9726562	n/a	205305	responseLargeT	correct	n/a	0.55078	no	n/a	n/a
803.0351562	n/a	205577	largeTSmallH	correct	incongruent	0.55078	no	T	H
803.5859375	n/a	205718	responseLargeT	correct	n/a	0.55078	no	n/a	n/a
804.6601562	n/a	205993	largeHSmallT	correct	incongruent	0.64844	no	H	T
805.3085938	n/a	206159	responseLargeH	correct	n/a	0.64844	no	n/a	n/a
806.3828125	n/a	206434	largeTSmallT	n/a	congruent	n/a	n/a	T	T
808.0351562	n/a	206857	largeTSmallH	n/a	incongruent	n/a	n/a	T	H
809.6484375	n/a	207270	largeTSmallH	correct	incongruent	0.47266	no	T	H
810.1210938	n/a	207391	responseLargeT	correct	n/a	0.47266	no	n/a	n/a
811.1953125	n/a	207666	largeTSmallT	correct	congruent	0.46875	no	T	T
811.6640625	n/a	207786	responseLargeT	correct	n/a	0.46875	no	n/a	n/a
812.7421875	n/a	208062	largeHSmallH	correct	congruent	0.41016	no	H	H
813.1523438	n/a	208167	responseLargeH	correct	n/a	0.41016	no	n/a	n/a
814.2226562	n/a	208441	largeTSmallT	correct	congruent	0.51172	no	T	T
814.734375	n/a	208572	responseLargeT	correct	n/a	0.51172	no	n/a	n/a
815.7929688	n/a	208843	largeTSmallT	correct	congruent	0.5	no	T	T
816.2929688	n/a	208971	responseLargeT	correct	n/a	0.5	no	n/a	n/a
817.3554688	n/a	209243	largeTSmallT	correct	congruent	0.49609	no	T	T
817.8515625	n/a	209370	responseLargeT	correct	n/a	0.49609	no	n/a	n/a
818.9140625	n/a	209642	largeHSmallH	correct	congruent	0.44531	no	H	H
819.359375	n/a	209756	responseLargeH	correct	n/a	0.44531	no	n/a	n/a
820.4335938	n/a	210031	largeHSmallT	correct	incongruent	0.62891	no	H	T
821.0625	n/a	210192	responseLargeH	correct	n/a	0.62891	no	n/a	n/a
822.1289062	n/a	210465	largeTSmallH	correct	incongruent	0.48828	no	T	H
822.6171875	n/a	210590	responseLargeT	correct	n/a	0.48828	no	n/a	n/a
823.6875	n/a	210864	largeHSmallT	correct	incongruent	0.60547	no	H	T
824.2929688	n/a	211019	responseLargeH	correct	n/a	0.60547	no	n/a	n/a
825.3554688	n/a	211291	largeHSmallH	correct	congruent	0.44922	no	H	H
825.8046875	n/a	211406	responseLargeH	correct	n/a	0.44922	no	n/a	n/a
826.875	n/a	211680	largeHSmallT	correct	incongruent	0.42188	no	H	T
827.296875	n/a	211788	responseLargeH	correct	n/a	0.42188	no	n/a	n/a
828.3671875	n/a	212062	largeHSmallT	error	incongruent	0.37109	no	H	T
828.7382812	n/a	212157	responseLargeT	error	n/a	0.37109	no	n/a	n/a
829.8085938	n/a	212431	largeHSmallH	correct	congruent	0.47656	no	H	H
830.2851562	n/a	212553	responseLargeH	correct	n/a	0.47656	no	n/a	n/a
831.3554688	n/a	212827	largeTSmallH	correct	incongruent	0.51172	no	T	H
831.8671875	n/a	212958	responseLargeT	correct	n/a	0.51172	no	n/a	n/a
832.9414062	n/a	213233	largeHSmallT	correct	incongruent	0.375	no	H	T
833.3164062	n/a	213329	responseLargeH	correct	n/a	0.375	no	n/a	n/a
834.3945312	n/a	213605	largeHSmallT	correct	incongruent	0.48047	no	H	T
834.875	n/a	213728	responseLargeH	correct	n/a	0.48047	no	n/a	n/a
835.953125	n/a	214004	largeHSmallT	correct	incongruent	0.44141	no	H	T
836.3945312	n/a	214117	responseLargeH	correct	n/a	0.44141	no	n/a	n/a
837.4726562	n/a	214393	largeHSmallH	correct	congruent	0.46875	no	H	H
837.9414062	n/a	214513	responseLargeH	correct	n/a	0.46875	no	n/a	n/a
839.0078125	n/a	214786	largeHSmallT	correct	incongruent	0.46094	no	H	T
839.46875	n/a	214904	responseLargeH	correct	n/a	0.46094	no	n/a	n/a
840.5390625	n/a	215178	largeTSmallT	correct	congruent	0.57422	no	T	T
841.1132812	n/a	215325	responseLargeT	correct	n/a	0.57422	no	n/a	n/a
842.1796875	n/a	215598	largeTSmallH	correct	incongruent	0.58594	no	T	H
842.765625	n/a	215748	responseLargeT	error	n/a	1.5977	yes	n/a	n/a
844.3632812	n/a	216157	responseLargeT	error	n/a	1.5977	yes	n/a	n/a
845.4335938	n/a	216431	largeTSmallT	correct	congruent	0.44531	no	T	T
845.8789062	n/a	216545	responseLargeT	error	n/a	1.457	no	n/a	n/a
847.3359375	n/a	216918	responseLargeT	error	n/a	1.6406	yes	n/a	n/a
848.9765625	n/a	217338	responseLargeT	error	n/a	1.5898	yes	n/a	n/a
850.5664062	n/a	217745	responseLargeH	error	n/a	1.5	no	n/a	n/a
852.0664062	n/a	218129	responseLargeT	error	n/a	1.5	no	n/a	n/a
853.140625	n/a	218404	largeTSmallH	n/a	incongruent	n/a	n/a	T	H
854.7421875	n/a	218814	largeTSmallH	correct	incongruent	0.51953	no	T	H
855.2617188	n/a	218947	responseLargeT	correct	n/a	0.51953	no	n/a	n/a
856.328125	n/a	219220	largeTSmallH	correct	incongruent	0.44141	no	T	H
856.7695312	n/a	219333	responseLargeT	correct	n/a	0.44141	no	n/a	n/a
857.8476562	n/a	219609	largeTSmallT	correct	congruent	0.35547	no	T	T
858.203125	n/a	219700	responseLargeT	correct	n/a	0.35547	no	n/a	n/a
859.2734375	n/a	219974	largeTSmallT	correct	congruent	0.50781	no	T	T
859.78125	n/a	220104	responseLargeT	correct	n/a	0.50781	no	n/a	n/a
860.8476562	n/a	220377	largeTSmallT	correct	congruent	0.43359	no	T	T
861.28125	n/a	220488	responseLargeT	correct	n/a	0.43359	no	n/a	n/a
862.3515625	n/a	220762	largeTSmallH	correct	incongruent	0.63281	no	T	H
862.984375	n/a	220924	responseLargeT	correct	n/a	0.63281	no	n/a	n/a
864.046875	n/a	221196	largeTSmallT	correct	congruent	0.46875	no	T	T
864.515625	n/a	221316	responseLargeT	correct	n/a	0.46875	no	n/a	n/a
865.59375	n/a	221592	largeHSmallH	correct	congruent	0.54688	no	H	H
866.140625	n/a	221732	responseLargeH	correct	n/a	0.54688	no	n/a	n/a
867.21875	n/a	222008	largeHSmallT	correct	incongruent	0.82812	no	H	T
868.046875	n/a	222220	responseLargeH	correct	n/a	0.82812	no	n/a	n/a
869.1132812	n/a	222493	largeTSmallH	correct	incongruent	0.58984	no	T	H
869.703125	n/a	222644	responseLargeT	correct	n/a	0.58984	no	n/a	n/a
870.765625	n/a	222916	largeTSmallT	correct	congruent	0.79297	no	T	T
871.5585938	n/a	223119	responseLargeT	correct	n/a	0.79297	no	n/a	n/a
872.6328125	n/a	223394	largeHSmallH	correct	congruent	0.50781	no	H	H
873.140625	n/a	223524	responseLargeH	correct	n/a	0.50781	no	n/a	n/a
874.21875	n/a	223800	largeHSmallH	correct	congruent	0.50781	no	H	H
874.7265625	n/a	223930	responseLargeH	correct	n/a	0.50781	no	n/a	n/a
875.7929688	n/a	224203	largeHSmallH	correct	congruent	0.64062	no	H	H
876.4335938	n/a	224367	responseLargeH	correct	n/a	0.64062	no	n/a	n/a
877.5	n/a	224640	largeTSmallT	correct	congruent	0.71484	no	T	T
878.2148438	n/a	224823	responseLargeT	correct	n/a	0.71484	no	n/a	n/a
879.2851562	n/a	225097	largeHSmallT	correct	incongruent	0.64453	no	H	T
879.9296875	n/a	225262	responseLargeH	correct	n/a	0.64453	no	n/a	n/a
881.0078125	n/a	225538	largeHSmallH	correct	congruent	0.50391	no	H	H
881.5117188	n/a	225667	responseLargeH	correct	n/a	0.50391	no	n/a	n/a
882.578125	n/a	225940	largeHSmallT	correct	incongruent	0.47266	no	H	T
883.0507812	n/a	226061	responseLargeH	correct	n/a	0.47266	no	n/a	n/a
884.125	n/a	226336	largeHSmallH	correct	congruent	0.43359	no	H	H
884.5585938	n/a	226447	responseLargeH	correct	n/a	0.43359	no	n/a	n/a
885.6210938	n/a	226719	largeHSmallH	correct	congruent	0.40625	no	H	H
886.0273438	n/a	226823	responseLargeH	correct	n/a	0.40625	no	n/a	n/a
887.1132812	n/a	227101	largeTSmallH	correct	incongruent	0.60547	no	T	H
887.71875	n/a	227256	responseLargeT	correct	n/a	0.60547	no	n/a	n/a
888.7929688	n/a	227531	largeTSmallT	correct	congruent	0.63281	no	T	T
889.4257812	n/a	227693	responseLargeT	correct	n/a	0.63281	no	n/a	n/a
890.484375	n/a	227964	largeTSmallT	correct	congruent	0.42969	no	T	T
890.9140625	n/a	228074	responseLargeT	correct	n/a	0.42969	no	n/a	n/a
891.9921875	n/a	228350	largeTSmallT	correct	congruent	0.4375	no	T	T
892.4296875	n/a	228462	responseLargeT	correct	n/a	0.4375	no	n/a	n/a
893.5	n/a	228736	largeHSmallH	correct	congruent	0.53906	no	H	H
894.0390625	n/a	228874	responseLargeH	correct	n/a	0.53906	no	n/a	n/a
895.1132812	n/a	229149	largeHSmallH	correct	congruent	1.5	no	H	H
896.6132812	n/a	229533	responseLargeH	correct	n/a	1.5	no	n/a	n/a
897.6875	n/a	229808	largeHSmallT	correct	incongruent	0.56641	no	H	T
898.2539062	n/a	229953	responseLargeH	correct	n/a	0.56641	no	n/a	n/a
899.3242188	n/a	230227	largeTSmallH	correct	incongruent	0.55859	no	T	H
899.8828125	n/a	230370	responseLargeT	correct	n/a	0.55859	no	n/a	n/a
900.9648438	n/a	230647	largeTSmallT	correct	congruent	0.51562	no	T	T
901.4804688	n/a	230779	responseLargeT	correct	n/a	0.51562	no	n/a	n/a
902.5507812	n/a	231053	largeHSmallH	correct	congruent	0.51953	no	H	H
903.0703125	n/a	231186	responseLargeH	correct	n/a	0.51953	no	n/a	n/a
904.140625	n/a	231460	largeTSmallH	correct	incongruent	0.54297	no	T	H
904.6835938	n/a	231599	responseLargeT	correct	n/a	0.54297	no	n/a	n/a
905.7539062	n/a	231873	largeHSmallH	correct	congruent	0.44531	no	H	H
906.1992188	n/a	231987	responseLargeH	correct	n/a	0.44531	no	n/a	n/a
907.2734375	n/a	232262	largeHSmallH	correct	congruent	0.52734	no	H	H
907.8007812	n/a	232397	responseLargeH	correct	n/a	0.52734	no	n/a	n/a
908.8710938	n/a	232671	largeTSmallT	error	congruent	0.39844	no	T	T
909.2695312	n/a	232773	responseLargeH	error	n/a	0.39844	no	n/a	n/a
910.3515625	n/a	233050	largeTSmallH	correct	incongruent	0.53906	no	T	H
910.890625	n/a	233188	responseLargeT	correct	n/a	0.53906	no	n/a	n/a
911.953125	n/a	233460	largeTSmallH	correct	incongruent	0.54297	no	T	H
912.4960938	n/a	233599	responseLargeT	correct	n/a	0.54297	no	n/a	n/a
913.5664062	n/a	233873	largeHSmallH	correct	congruent	0.44531	no	H	H
914.0117188	n/a	233987	responseLargeH	correct	n/a	0.44531	no	n/a	n/a
915.0703125	n/a	234258	largeHSmallH	correct	congruent	0.42188	no	H	H
915.4921875	n/a	234366	responseLargeH	correct	n/a	0.42188	no	n/a	n/a
916.5664062	n/a	234641	largeTSmallH	correct	incongruent	0.49219	no	T	H
917.0585938	n/a	234767	responseLargeT	correct	n/a	0.49219	no	n/a	n/a
918.1367188	n/a	235043	largeHSmallT	correct	incongruent	0.54688	no	H	T
918.6835938	n/a	235183	responseLargeH	correct	n/a	0.54688	no	n/a	n/a
919.75	n/a	235456	largeTSmallT	correct	congruent	0.5	no	T	T
920.25	n/a	235584	responseLargeT	correct	n/a	0.5	no	n/a	n/a
921.3125	n/a	235856	largeHSmallT	correct	incongruent	0.36719	no	H	T
921.6796875	n/a	235950	responseLargeH	correct	n/a	0.36719	no	n/a	n/a
922.75	n/a	236224	largeHSmallT	correct	incongruent	0.55859	no	H	T
923.3085938	n/a	236367	responseLargeH	correct	n/a	0.55859	no	n/a	n/a
924.3789062	n/a	236641	largeHSmallH	correct	congruent	0.51562	no	H	H
924.8945312	n/a	236773	responseLargeH	correct	n/a	0.51562	no	n/a	n/a
925.9648438	n/a	237047	largeHSmallT	correct	incongruent	0.4375	no	H	T
926.4023438	n/a	237159	responseLargeH	correct	n/a	0.4375	no	n/a	n/a
930.765625	n/a	238276	largeTSmallH	correct	incongruent	0.53906	no	T	H
931.3046875	n/a	238414	responseLargeT	correct	n/a	0.53906	no	n/a	n/a
933.9648438	n/a	239095	largeHSmallT	error	incongruent	6.5938	yes	H	T
940.5585938	n/a	240783	responseLargeT	error	n/a	1.6289	yes	n/a	n/a
942.1875	n/a	241200	responseLargeT	error	n/a	1.6289	yes	n/a	n/a
944.765625	n/a	241860	largeTSmallH	correct	incongruent	0.51953	no	T	H
945.2851562	n/a	241993	responseLargeT	correct	n/a	0.51953	no	n/a	n/a
946.3515625	n/a	242266	largeHSmallT	correct	incongruent	0.44922	no	H	T
946.8007812	n/a	242381	responseLargeH	correct	n/a	0.44922	no	n/a	n/a
947.8710938	n/a	242655	largeTSmallT	correct	congruent	0.54297	no	T	T
948.4140625	n/a	242794	responseLargeT	correct	n/a	0.54297	no	n/a	n/a
949.4960938	n/a	243071	largeTSmallH	correct	incongruent	0.57812	no	T	H
950.0742188	n/a	243219	responseLargeT	correct	n/a	0.57812	no	n/a	n/a
952.6835938	n/a	243887	largeHSmallT	n/a	incongruent	n/a	n/a	H	T
954.2851562	n/a	244297	largeHSmallH	error	congruent	5.3008	yes	H	H
959.5859375	n/a	245654	responseLargeT	error	n/a	5.3008	yes	n/a	n/a
960.65625	n/a	245928	largeTSmallT	correct	congruent	0.52344	no	T	T
961.1796875	n/a	246062	responseLargeT	error	n/a	1.5664	yes	n/a	n/a
962.7460938	n/a	246463	responseLargeH	error	n/a	1.5703	yes	n/a	n/a
964.3164062	n/a	246865	responseLargeH	error	n/a	1.5703	yes	n/a	n/a
966.9375	n/a	247536	largeHSmallT	correct	incongruent	3.6953	yes	H	T
970.6328125	n/a	248482	responseLargeH	error	n/a	1.543	yes	n/a	n/a
972.1757812	n/a	248877	responseLargeT	error	n/a	1.543	yes	n/a	n/a
973.2578125	n/a	249154	largeHSmallH	correct	congruent	0.5	no	H	H
973.7578125	n/a	249282	responseLargeH	error	n/a	4.7383	yes	n/a	n/a
978.4960938	n/a	250495	responseLargeH	error	n/a	3.1367	yes	n/a	n/a
981.6328125	n/a	251298	responseLargeT	error	n/a	1.4453	no	n/a	n/a
983.078125	n/a	251668	responseLargeH	error	n/a	1.4453	no	n/a	n/a
984.1484375	n/a	251942	largeHSmallH	n/a	congruent	n/a	n/a	H	H
985.7226562	n/a	252345	largeHSmallH	error	congruent	2.0977	yes	H	H
987.8203125	n/a	252882	responseLargeT	error	n/a	2.0977	yes	n/a	n/a
988.8984375	n/a	253158	largeHSmallT	correct	incongruent	0.47266	no	H	T
989.3710938	n/a	253279	responseLargeH	correct	n/a	0.47266	no	n/a	n/a
990.4453125	n/a	253554	largeTSmallH	correct	incongruent	0.42188	no	T	H
990.8671875	n/a	253662	responseLargeT	correct	n/a	0.42188	no	n/a	n/a
991.9375	n/a	253936	largeHSmallH	n/a	congruent	n/a	n/a	H	H
1003.457031	n/a	256885	largeTSmallH	correct	incongruent	0.67578	no	T	H
1004.132812	n/a	257058	responseSmallH	correct	n/a	0.67578	no	n/a	n/a
1005.203125	n/a	257332	largeTSmallT	correct	congruent	0.51953	no	T	T
1005.722656	n/a	257465	responseSmallT	correct	n/a	0.51953	no	n/a	n/a
1006.789062	n/a	257738	largeTSmallT	correct	congruent	0.51172	no	T	T
1007.300781	n/a	257869	responseSmallT	correct	n/a	0.51172	no	n/a	n/a
1008.363281	n/a	258141	largeTSmallT	correct	congruent	0.4375	no	T	T
1008.800781	n/a	258253	responseSmallT	correct	n/a	0.4375	no	n/a	n/a
1009.882812	n/a	258530	largeTSmallT	correct	congruent	0.46484	no	T	T
1010.347656	n/a	258649	responseSmallT	correct	n/a	0.46484	no	n/a	n/a
1011.429688	n/a	258926	largeTSmallT	correct	congruent	0.45703	no	T	T
1011.886719	n/a	259043	responseSmallT	correct	n/a	0.45703	no	n/a	n/a
1012.949219	n/a	259315	largeTSmallT	n/a	congruent	n/a	n/a	T	T
1014.484375	n/a	259708	largeHSmallT	error	incongruent	0.5	no	H	T
1014.984375	n/a	259836	responseSmallH	error	n/a	0.5	no	n/a	n/a
1016.054688	n/a	260110	largeTSmallT	correct	congruent	0.45312	no	T	T
1016.507812	n/a	260226	responseSmallT	correct	n/a	0.45312	no	n/a	n/a
1017.589844	n/a	260503	largeTSmallT	correct	congruent	0.41797	no	T	T
1018.007812	n/a	260610	responseSmallT	correct	n/a	0.41797	no	n/a	n/a
1019.082031	n/a	260885	largeHSmallH	correct	congruent	0.48438	no	H	H
1019.566406	n/a	261009	responseSmallH	correct	n/a	0.48438	no	n/a	n/a
1020.644531	n/a	261285	largeHSmallH	correct	congruent	0.51953	no	H	H
1021.164062	n/a	261418	responseSmallH	error	n/a	1.5859	yes	n/a	n/a
1022.75	n/a	261824	responseSmallT	error	n/a	1.5859	yes	n/a	n/a
1023.828125	n/a	262100	largeTSmallH	correct	incongruent	0.48828	no	T	H
1024.316406	n/a	262225	responseSmallH	correct	n/a	0.48828	no	n/a	n/a
1025.390625	n/a	262500	largeTSmallT	correct	congruent	0.49609	no	T	T
1025.886719	n/a	262627	responseSmallT	correct	n/a	0.49609	no	n/a	n/a
1026.960938	n/a	262902	largeTSmallH	correct	incongruent	0.44141	no	T	H
1027.402344	n/a	263015	responseSmallH	correct	n/a	0.44141	no	n/a	n/a
1028.46875	n/a	263288	largeTSmallT	correct	congruent	0.54688	no	T	T
1029.015625	n/a	263428	responseSmallT	error	n/a	1.5547	yes	n/a	n/a
1030.570312	n/a	263826	responseSmallT	error	n/a	1.5547	yes	n/a	n/a
1031.640625	n/a	264100	largeHSmallH	n/a	congruent	n/a	n/a	H	H
1033.164062	n/a	264490	largeTSmallT	correct	congruent	0.52344	no	T	T
1033.6875	n/a	264624	responseSmallT	correct	n/a	0.52344	no	n/a	n/a
1034.761719	n/a	264899	largeHSmallT	error	incongruent	0.41016	no	H	T
1035.171875	n/a	265004	responseSmallH	error	n/a	0.41016	no	n/a	n/a
1036.242188	n/a	265278	largeTSmallH	error	incongruent	0.47266	no	T	H
1036.714844	n/a	265399	responseSmallT	error	n/a	0.47266	no	n/a	n/a
1037.789062	n/a	265674	largeTSmallT	correct	congruent	0.49609	no	T	T
1038.285156	n/a	265801	responseSmallT	correct	n/a	0.49609	no	n/a	n/a
1039.363281	n/a	266077	largeHSmallT	correct	incongruent	0.51172	no	H	T
1039.875	n/a	266208	responseSmallT	correct	n/a	0.51172	no	n/a	n/a
1040.933594	n/a	266479	largeHSmallT	correct	incongruent	0.48828	no	H	T
1041.421875	n/a	266604	responseSmallT	correct	n/a	0.48828	no	n/a	n/a
1042.496094	n/a	266879	largeHSmallT	correct	incongruent	0.43359	no	H	T
1042.929688	n/a	266990	responseSmallT	correct	n/a	0.43359	no	n/a	n/a
1044.003906	n/a	267265	largeHSmallT	n/a	incongruent	n/a	n/a	H	T
1047.054688	n/a	268046	largeHSmallH	error	congruent	3.5703	yes	H	H
1050.625	n/a	268960	responseSmallT	error	n/a	3.5703	yes	n/a	n/a
1053.1875	n/a	269616	largeTSmallT	correct	congruent	0.41016	no	T	T
1053.597656	n/a	269721	responseSmallT	correct	n/a	0.41016	no	n/a	n/a
1062.75	n/a	272064	largeHSmallH	correct	congruent	0.44531	no	H	H
1063.195312	n/a	272178	responseSmallH	correct	n/a	0.44531	no	n/a	n/a
1064.28125	n/a	272456	largeTSmallH	correct	incongruent	0.41406	no	T	H
1064.695312	n/a	272562	responseSmallH	correct	n/a	0.41406	no	n/a	n/a
1065.773438	n/a	272838	largeHSmallH	correct	congruent	0.42188	no	H	H
1066.195312	n/a	272946	responseSmallH	correct	n/a	0.42188	no	n/a	n/a
1067.269531	n/a	273221	largeTSmallT	correct	congruent	0.51172	no	T	T
1067.78125	n/a	273352	responseSmallT	correct	n/a	0.51172	no	n/a	n/a
1068.839844	n/a	273623	largeTSmallT	correct	congruent	0.51562	no	T	T
1069.355469	n/a	273755	responseSmallT	correct	n/a	0.51562	no	n/a	n/a
1070.429688	n/a	274030	largeHSmallH	correct	congruent	0.43359	no	H	H
1070.863281	n/a	274141	responseSmallH	correct	n/a	0.43359	no	n/a	n/a
1071.933594	n/a	274415	largeHSmallT	correct	incongruent	0.70703	no	H	T
1072.640625	n/a	274596	responseSmallT	correct	n/a	0.70703	no	n/a	n/a
1073.707031	n/a	274869	largeTSmallT	correct	congruent	0.49609	no	T	T
1074.203125	n/a	274996	responseSmallT	correct	n/a	0.49609	no	n/a	n/a
1075.269531	n/a	275269	largeTSmallH	correct	incongruent	0.64453	no	T	H
1075.914062	n/a	275434	responseSmallH	correct	n/a	0.64453	no	n/a	n/a
1076.988281	n/a	275709	largeHSmallH	correct	congruent	0.4375	no	H	H
1077.425781	n/a	275821	responseSmallH	correct	n/a	0.4375	no	n/a	n/a
1078.480469	n/a	276091	largeTSmallH	correct	incongruent	0.42969	no	T	H
1078.910156	n/a	276201	responseSmallH	correct	n/a	0.42969	no	n/a	n/a
1079.988281	n/a	276477	largeHSmallT	correct	incongruent	0.53125	no	H	T
1080.519531	n/a	276613	responseSmallT	correct	n/a	0.53125	no	n/a	n/a
1081.585938	n/a	276886	largeHSmallT	correct	incongruent	0.48047	no	H	T
1082.066406	n/a	277009	responseSmallT	correct	n/a	0.48047	no	n/a	n/a
1083.132812	n/a	277282	largeHSmallT	correct	incongruent	0.46484	no	H	T
1083.597656	n/a	277401	responseSmallT	correct	n/a	0.46484	no	n/a	n/a
1084.667969	n/a	277675	largeTSmallT	correct	congruent	0.41016	no	T	T
1085.078125	n/a	277780	responseSmallT	correct	n/a	0.41016	no	n/a	n/a
1086.148438	n/a	278054	largeHSmallH	correct	congruent	0.50391	no	H	H
1086.652344	n/a	278183	responseSmallH	correct	n/a	0.50391	no	n/a	n/a
1087.722656	n/a	278457	largeTSmallH	correct	incongruent	0.44141	no	T	H
1088.164062	n/a	278570	responseSmallH	correct	n/a	0.44141	no	n/a	n/a
1089.242188	n/a	278846	largeHSmallH	correct	congruent	0.41797	no	H	H
1089.660156	n/a	278953	responseSmallH	correct	n/a	0.41797	no	n/a	n/a
1090.734375	n/a	279228	largeHSmallT	correct	incongruent	0.55859	no	H	T
1091.292969	n/a	279371	responseSmallT	correct	n/a	0.55859	no	n/a	n/a
1092.375	n/a	279648	largeHSmallT	correct	incongruent	0.63672	no	H	T
1093.011719	n/a	279811	responseSmallT	correct	n/a	0.63672	no	n/a	n/a
1094.082031	n/a	280085	largeHSmallH	correct	congruent	0.47266	no	H	H
1094.554688	n/a	280206	responseSmallH	correct	n/a	0.47266	no	n/a	n/a
1095.628906	n/a	280481	largeHSmallH	correct	congruent	0.43359	no	H	H
1096.0625	n/a	280592	responseSmallH	correct	n/a	0.43359	no	n/a	n/a
1098.667969	n/a	281259	largeHSmallT	n/a	incongruent	n/a	n/a	H	T
1102	n/a	282112	largeHSmallT	n/a	incongruent	n/a	n/a	H	T
1105.171875	n/a	282924	largeTSmallH	n/a	incongruent	n/a	n/a	T	H
1113.492188	n/a	285054	largeHSmallH	error	congruent	3.9141	yes	H	H
1117.40625	n/a	286056	responseSmallT	error	n/a	1.5039	yes	n/a	n/a
1118.910156	n/a	286441	responseSmallT	error	n/a	1.5039	yes	n/a	n/a
1119.988281	n/a	286717	largeHSmallH	correct	congruent	0.53125	no	H	H
1120.519531	n/a	286853	responseSmallH	correct	n/a	0.53125	no	n/a	n/a
1121.585938	n/a	287126	largeHSmallT	correct	incongruent	0.84766	no	H	T
1122.433594	n/a	287343	responseSmallT	correct	n/a	0.84766	no	n/a	n/a
1123.507812	n/a	287618	largeTSmallT	correct	congruent	0.49219	no	T	T
1124	n/a	287744	responseSmallT	correct	n/a	0.49219	no	n/a	n/a
1125.066406	n/a	288017	largeTSmallH	correct	incongruent	0.53516	no	T	H
1125.601562	n/a	288154	responseSmallH	correct	n/a	0.53516	no	n/a	n/a
1126.679688	n/a	288430	largeHSmallT	correct	incongruent	0.58594	no	H	T
1127.265625	n/a	288580	responseSmallT	correct	n/a	0.58594	no	n/a	n/a
1128.332031	n/a	288853	largeHSmallH	correct	congruent	0.40234	no	H	H
1128.734375	n/a	288956	responseSmallH	error	n/a	3.2344	yes	n/a	n/a
1131.96875	n/a	289784	responseSmallH	error	n/a	3.2344	yes	n/a	n/a
1136.066406	n/a	290833	largeTSmallT	correct	congruent	3.6953	yes	T	T
1139.761719	n/a	291779	responseSmallT	correct	n/a	3.6953	yes	n/a	n/a
1140.828125	n/a	292052	largeHSmallH	n/a	congruent	n/a	n/a	H	H
1142.398438	n/a	292454	largeTSmallH	correct	incongruent	0.50391	no	T	H
1142.902344	n/a	292583	responseSmallH	correct	n/a	0.50391	no	n/a	n/a
1145.597656	n/a	293273	largeTSmallH	correct	incongruent	0.46484	no	T	H
1146.0625	n/a	293392	responseSmallH	correct	n/a	0.46484	no	n/a	n/a
1149.011719	n/a	294147	largeTSmallT	correct	congruent	0.46484	no	T	T
1149.476562	n/a	294266	responseSmallT	correct	n/a	0.46484	no	n/a	n/a
1152.1875	n/a	294960	largeTSmallT	error	congruent	3.668	yes	T	T
1155.855469	n/a	295899	responseSmallH	error	n/a	3.668	yes	n/a	n/a
1158.347656	n/a	296537	largeTSmallH	correct	incongruent	0.49219	no	T	H
1158.839844	n/a	296663	responseSmallH	error	n/a	1.5938	yes	n/a	n/a
1160.433594	n/a	297071	responseSmallH	error	n/a	1.5938	yes	n/a	n/a
1164.519531	n/a	298117	largeHSmallT	n/a	incongruent	n/a	n/a	H	T
1166.226562	n/a	298554	largeTSmallT	n/a	congruent	n/a	n/a	T	T
1167.796875	n/a	298956	largeHSmallH	correct	congruent	0.52344	no	H	H
1168.320312	n/a	299090	responseSmallH	correct	n/a	0.52344	no	n/a	n/a
1169.386719	n/a	299363	largeTSmallH	n/a	incongruent	n/a	n/a	T	H
1170.945312	n/a	299762	largeTSmallT	correct	congruent	0.5	no	T	T
1171.445312	n/a	299890	responseSmallT	correct	n/a	0.5	no	n/a	n/a
1172.503906	n/a	300161	largeTSmallT	correct	congruent	0.58984	no	T	T
1173.09375	n/a	300312	responseSmallT	correct	n/a	0.58984	no	n/a	n/a
1174.160156	n/a	300585	largeTSmallH	n/a	incongruent	n/a	n/a	T	H
1175.691406	n/a	300977	largeTSmallH	correct	incongruent	0.57031	no	T	H
1176.261719	n/a	301123	responseSmallH	correct	n/a	0.57031	no	n/a	n/a
1177.332031	n/a	301397	largeTSmallH	correct	incongruent	0.53125	no	T	H
1177.863281	n/a	301533	responseSmallH	correct	n/a	0.53125	no	n/a	n/a
1178.933594	n/a	301807	largeHSmallT	correct	incongruent	0.68359	no	H	T
1179.617188	n/a	301982	responseSmallT	correct	n/a	0.68359	no	n/a	n/a
1180.679688	n/a	302254	largeHSmallT	error	incongruent	0.39844	no	H	T
1181.078125	n/a	302356	responseSmallH	error	n/a	12.5977	yes	n/a	n/a
1193.675781	n/a	305581	responseSmallH	error	n/a	12.5977	yes	n/a	n/a
1194.746094	n/a	305855	largeTSmallH	correct	incongruent	0.49219	no	T	H
1195.238281	n/a	305981	responseSmallH	correct	n/a	0.49219	no	n/a	n/a
1196.316406	n/a	306257	largeTSmallT	correct	congruent	0.49219	no	T	T
1196.808594	n/a	306383	responseSmallT	correct	n/a	0.49219	no	n/a	n/a
1197.878906	n/a	306657	largeHSmallT	correct	incongruent	0.51953	no	H	T
1198.398438	n/a	306790	responseSmallT	correct	n/a	0.51953	no	n/a	n/a
1199.464844	n/a	307063	largeTSmallH	correct	incongruent	0.51172	no	T	H
1199.976562	n/a	307194	responseSmallH	correct	n/a	0.51172	no	n/a	n/a
1201.039062	n/a	307466	largeHSmallH	correct	congruent	0.53906	no	H	H
1201.578125	n/a	307604	responseSmallH	correct	n/a	0.53906	no	n/a	n/a
1202.652344	n/a	307879	largeHSmallH	correct	congruent	0.50781	no	H	H
1203.160156	n/a	308009	responseSmallH	correct	n/a	0.50781	no	n/a	n/a
1204.222656	n/a	308281	largeTSmallT	correct	congruent	0.55469	no	T	T
1204.777344	n/a	308423	responseSmallT	correct	n/a	0.55469	no	n/a	n/a
1205.851562	n/a	308698	largeTSmallH	correct	incongruent	0.5	no	T	H
1206.351562	n/a	308826	responseSmallH	correct	n/a	0.5	no	n/a	n/a
1207.425781	n/a	309101	largeTSmallH	correct	incongruent	0.4375	no	T	H
1207.863281	n/a	309213	responseSmallH	correct	n/a	0.4375	no	n/a	n/a
1208.929688	n/a	309486	largeHSmallH	correct	congruent	0.45312	no	H	H
1209.382812	n/a	309602	responseSmallH	correct	n/a	0.45312	no	n/a	n/a
1210.449219	n/a	309875	largeHSmallT	correct	incongruent	0.48438	no	H	T
1210.933594	n/a	309999	responseSmallT	correct	n/a	0.48438	no	n/a	n/a
1212.011719	n/a	310275	largeTSmallH	n/a	incongruent	n/a	n/a	T	H
1213.492188	n/a	310654	largeTSmallH	correct	incongruent	0.47656	no	T	H
1213.96875	n/a	310776	responseSmallH	correct	n/a	0.47656	no	n/a	n/a
1215.039062	n/a	311050	largeTSmallT	correct	congruent	0.51172	no	T	T
1215.550781	n/a	311181	responseSmallT	correct	n/a	0.51172	no	n/a	n/a
1222.464844	n/a	312951	largeTSmallH	n/a	incongruent	n/a	n/a	T	H
1225.597656	n/a	313753	largeTSmallH	n/a	incongruent	n/a	n/a	T	H
1227.265625	n/a	314180	largeHSmallH	n/a	congruent	n/a	n/a	H	H
1228.785156	n/a	314569	largeHSmallH	correct	congruent	1.9336	yes	H	H
1230.71875	n/a	315064	responseSmallH	correct	n/a	1.9336	yes	n/a	n/a
1231.796875	n/a	315340	largeHSmallH	correct	congruent	4.7461	yes	H	H
1236.542969	n/a	316555	responseSmallH	error	n/a	1.5	no	n/a	n/a
1238.042969	n/a	316939	responseSmallH	error	n/a	3.0938	yes	n/a	n/a
1241.136719	n/a	317731	responseSmallH	error	n/a	3.0938	yes	n/a	n/a
1242.210938	n/a	318006	largeHSmallT	correct	incongruent	0.46094	no	H	T
1242.671875	n/a	318124	responseSmallT	error	n/a	1.7695	yes	n/a	n/a
1244.441406	n/a	318577	responseSmallH	error	n/a	1.7695	yes	n/a	n/a
1245.515625	n/a	318852	largeTSmallH	correct	incongruent	0.61719	no	T	H
1246.132812	n/a	319010	responseSmallH	error	n/a	1.6328	yes	n/a	n/a
1247.765625	n/a	319428	responseSmallH	error	n/a	1.6328	yes	n/a	n/a
1248.835938	n/a	319702	largeHSmallT	correct	incongruent	0.53516	no	H	T
1249.371094	n/a	319839	responseSmallT	correct	n/a	0.53516	no	n/a	n/a
1250.449219	n/a	320115	largeTSmallT	correct	congruent	0.625	no	T	T
1251.074219	n/a	320275	responseSmallT	correct	n/a	0.625	no	n/a	n/a
1252.144531	n/a	320549	largeHSmallT	error	incongruent	0.43359	no	H	T
1252.578125	n/a	320660	responseSmallH	error	n/a	0.43359	no	n/a	n/a
1253.648438	n/a	320934	largeHSmallH	correct	congruent	0.39062	no	H	H
1254.039062	n/a	321034	responseSmallH	correct	n/a	0.39062	no	n/a	n/a
1255.117188	n/a	321310	largeTSmallH	correct	incongruent	0.74609	no	T	H
1255.863281	n/a	321501	responseSmallH	correct	n/a	0.74609	no	n/a	n/a
1256.945312	n/a	321778	largeTSmallT	n/a	congruent	n/a	n/a	T	T
1258.503906	n/a	322177	largeTSmallT	correct	congruent	0.55859	no	T	T
1259.0625	n/a	322320	responseSmallT	correct	n/a	0.55859	no	n/a	n/a
1260.128906	n/a	322593	largeTSmallH	correct	incongruent	0.45312	no	T	H
1260.582031	n/a	322709	responseSmallH	correct	n/a	0.45312	no	n/a	n/a
1261.648438	n/a	322982	largeTSmallH	correct	incongruent	0.50391	no	T	H
1262.152344	n/a	323111	responseSmallH	error	n/a	1.5508	yes	n/a	n/a
1263.703125	n/a	323508	responseSmallH	error	n/a	1.5508	yes	n/a	n/a
1264.78125	n/a	323784	largeHSmallH	correct	congruent	0.46875	no	H	H
1265.25	n/a	323904	responseSmallH	correct	n/a	0.46875	no	n/a	n/a
1266.328125	n/a	324180	largeTSmallH	correct	incongruent	0.44141	no	T	H
1266.769531	n/a	324293	responseSmallH	correct	n/a	0.44141	no	n/a	n/a
1267.835938	n/a	324566	largeTSmallH	correct	incongruent	0.41016	no	T	H
1268.246094	n/a	324671	responseSmallH	correct	n/a	0.41016	no	n/a	n/a
1269.316406	n/a	324945	largeTSmallT	correct	congruent	0.53516	no	T	T
1269.851562	n/a	325082	responseSmallT	correct	n/a	0.53516	no	n/a	n/a
1270.914062	n/a	325354	largeHSmallT	correct	incongruent	0.71875	no	H	T
1271.632812	n/a	325538	responseSmallT	correct	n/a	0.71875	no	n/a	n/a
1272.714844	n/a	325815	largeTSmallH	correct	incongruent	0.40234	no	T	H
1273.117188	n/a	325918	responseSmallH	correct	n/a	0.40234	no	n/a	n/a
1274.195312	n/a	326194	largeHSmallT	correct	incongruent	0.52344	no	H	T
1274.71875	n/a	326328	responseSmallT	correct	n/a	0.52344	no	n/a	n/a
1275.796875	n/a	326604	largeTSmallT	n/a	congruent	n/a	n/a	T	T
1277.382812	n/a	327010	largeHSmallH	error	congruent	2.0117	yes	H	H
1279.394531	n/a	327525	responseSmallT	error	n/a	2.0117	yes	n/a	n/a
1280.460938	n/a	327798	largeTSmallT	correct	congruent	0.62891	no	T	T
1281.089844	n/a	327959	responseSmallT	correct	n/a	0.62891	no	n/a	n/a
1282.167969	n/a	328235	largeHSmallH	correct	congruent	0.42578	no	H	H
1282.59375	n/a	328344	responseSmallH	correct	n/a	0.42578	no	n/a	n/a
1283.664062	n/a	328618	largeTSmallT	correct	congruent	0.47656	no	T	T
1284.140625	n/a	328740	responseSmallT	correct	n/a	0.47656	no	n/a	n/a
1285.222656	n/a	329017	largeTSmallT	correct	congruent	0.55469	no	T	T
1285.777344	n/a	329159	responseSmallT	correct	n/a	0.55469	no	n/a	n/a
1286.835938	n/a	329430	largeTSmallH	correct	incongruent	0.50781	no	T	H
1287.34375	n/a	329560	responseSmallH	correct	n/a	0.50781	no	n/a	n/a
1288.421875	n/a	329836	largeHSmallT	correct	incongruent	0.5	no	H	T
1288.921875	n/a	329964	responseSmallT	correct	n/a	0.5	no	n/a	n/a
1289.996094	n/a	330239	largeHSmallH	correct	congruent	0.46094	no	H	H
1290.457031	n/a	330357	responseSmallH	correct	n/a	0.46094	no	n/a	n/a
1291.527344	n/a	330631	largeTSmallH	correct	incongruent	0.55859	no	T	H
1292.085938	n/a	330774	responseSmallH	correct	n/a	0.55859	no	n/a	n/a
1293.15625	n/a	331048	largeHSmallH	correct	congruent	0.45312	no	H	H
1293.609375	n/a	331164	responseSmallH	correct	n/a	0.45312	no	n/a	n/a
1294.6875	n/a	331440	largeHSmallH	correct	congruent	0.44922	no	H	H
1295.136719	n/a	331555	responseSmallH	correct	n/a	0.44922	no	n/a	n/a
1296.195312	n/a	331826	largeTSmallH	correct	incongruent	0.41797	no	T	H
1296.613281	n/a	331933	responseSmallH	correct	n/a	0.41797	no	n/a	n/a
1297.6875	n/a	332208	largeTSmallH	correct	incongruent	0.57031	no	T	H
1298.257812	n/a	332354	responseSmallH	correct	n/a	0.57031	no	n/a	n/a
1299.328125	n/a	332628	largeHSmallT	n/a	incongruent	n/a	n/a	H	T
1300.941406	n/a	333041	largeHSmallT	error	incongruent	0.37109	no	H	T
1301.3125	n/a	333136	responseSmallH	error	n/a	0.37109	no	n/a	n/a
1302.382812	n/a	333410	largeHSmallH	correct	congruent	0.45703	no	H	H
1302.839844	n/a	333527	responseSmallH	correct	n/a	0.45703	no	n/a	n/a
1303.914062	n/a	333802	largeTSmallT	correct	congruent	0.43359	no	T	T
1304.347656	n/a	333913	responseSmallT	correct	n/a	0.43359	no	n/a	n/a
1305.433594	n/a	334191	largeHSmallT	correct	incongruent	0.52344	no	H	T
1305.957031	n/a	334325	responseSmallT	correct	n/a	0.52344	no	n/a	n/a
1307.023438	n/a	334598	largeTSmallT	correct	congruent	0.41406	no	T	T
1307.4375	n/a	334704	responseSmallT	correct	n/a	0.41406	no	n/a	n/a
1308.515625	n/a	334980	largeTSmallH	correct	incongruent	0.50391	no	T	H
1309.019531	n/a	335109	responseSmallH	correct	n/a	0.50391	no	n/a	n/a
1310.089844	n/a	335383	largeHSmallT	correct	incongruent	0.52344	no	H	T
1310.613281	n/a	335517	responseSmallT	correct	n/a	0.52344	no	n/a	n/a
1311.675781	n/a	335789	largeTSmallH	correct	incongruent	1.0703	no	T	H
1312.746094	n/a	336063	responseSmallH	correct	n/a	1.0703	no	n/a	n/a
1313.808594	n/a	336335	largeHSmallT	correct	incongruent	0.36719	no	H	T
1314.175781	n/a	336429	responseSmallT	correct	n/a	0.36719	no	n/a	n/a
1315.25	n/a	336704	largeHSmallT	correct	incongruent	0.49219	no	H	T
1315.742188	n/a	336830	responseSmallT	correct	n/a	0.49219	no	n/a	n/a
1316.808594	n/a	337103	largeHSmallH	correct	congruent	0.44922	no	H	H
1317.257812	n/a	337218	responseSmallH	correct	n/a	0.44922	no	n/a	n/a
