onset	duration	sample	value	stimulus	response_type	response_time
25.15234375	n/a	6439	C	nontarget	n/a	n/a
26.734375	n/a	6844	A	nontarget	n/a	n/a
28.3046875	n/a	7246	D	nontarget	n/a	n/a
29.8828125	n/a	7650	A	target	hit	988.2812
30.87109375	n/a	7903	rt	n/a	hit	988.2812
31.46484375	n/a	8055	D	target	hit	1152.3438
32.6171875	n/a	8350	rt	n/a	hit	1152.3438
33.04296875	n/a	8459	C	nontarget	n/a	n/a
34.61328125	n/a	8861	B	nontarget	n/a	n/a
36.1875	n/a	9264	B	nontarget	n/a	n/a
37.7578125	n/a	9666	D	nontarget	n/a	n/a
39.3359375	n/a	10070	A	nontarget	n/a	n/a
40.91796875	n/a	10475	B	nontarget	n/a	n/a
42.4921875	n/a	10878	B	nontarget	n/a	n/a
44.06640625	n/a	11281	C	nontarget	n/a	n/a
45.640625	n/a	11684	D	nontarget	n/a	n/a
47.21484375	n/a	12087	B	nontarget	n/a	n/a
48.796875	n/a	12492	A	nontarget	n/a	n/a
50.375	n/a	12896	C	nontarget	n/a	n/a
51.9453125	n/a	13298	B	nontarget	n/a	n/a
53.51953125	n/a	13701	B	nontarget	n/a	n/a
55.09375	n/a	14104	B	target	hit	980.4688
56.07421875	n/a	14355	rt	n/a	hit	980.4688
56.6640625	n/a	14506	B	target	hit	1378.9062
58.04296875	n/a	14859	rt	n/a	hit	1378.9062
58.2421875	n/a	14910	A	nontarget	n/a	n/a
59.82421875	n/a	15315	B	target	hit	675.7812
60.5	n/a	15488	rt	n/a	hit	675.7812
61.3984375	n/a	15718	A	target	miss	n/a
62.97265625	n/a	16121	B	target	miss	n/a
64.54296875	n/a	16523	B	nontarget	miss	n/a
66.12109375	n/a	16927	C	nontarget	n/a	n/a
67.6953125	n/a	17330	B	target	hit	929.6875
68.625	n/a	17568	rt	n/a	hit	929.6875
69.27734375	n/a	17735	D	nontarget	n/a	n/a
70.85546875	n/a	18139	D	nontarget	n/a	n/a
72.42578125	n/a	18541	B	nontarget	n/a	n/a
74	n/a	18944	D	target	hit	679.6875
74.6796875	n/a	19118	rt	n/a	hit	679.6875
75.57421875	n/a	19347	C	nontarget	n/a	n/a
77.15625	n/a	19752	D	target	miss	n/a
78.734375	n/a	20156	A	nontarget	miss	n/a
80.3046875	n/a	20558	B	nontarget	n/a	n/a
81.87890625	n/a	20961	B	nontarget	n/a	n/a
83.4921875	n/a	21374	D	nontarget	n/a	n/a
85.06640625	n/a	21777	B	target	miss	n/a
86.63671875	n/a	22179	B	nontarget	miss	n/a
88.21484375	n/a	22583	C	nontarget	n/a	n/a
89.78515625	n/a	22985	C	nontarget	n/a	n/a
91.359375	n/a	23388	A	nontarget	n/a	n/a
92.91796875	n/a	23787	D	nontarget	n/a	n/a
94.48046875	n/a	24187	B	nontarget	n/a	n/a
96.0625	n/a	24592	B	nontarget	n/a	n/a
97.63671875	n/a	24995	D	nontarget	n/a	n/a
99.2109375	n/a	25398	C	nontarget	n/a	n/a
100.7851562	n/a	25801	A	nontarget	n/a	n/a
102.359375	n/a	26204	B	nontarget	n/a	n/a
103.9335938	n/a	26607	A	target	hit	1171.875
105.1054688	n/a	26907	rt	n/a	hit	1171.875
105.4921875	n/a	27006	A	nontarget	n/a	n/a
107.0507812	n/a	27405	D	nontarget	n/a	n/a
108.6367188	n/a	27811	C	nontarget	n/a	n/a
110.2148438	n/a	28215	D	target	hit	738.2812
110.953125	n/a	28404	rt	n/a	hit	738.2812
111.7851562	n/a	28617	D	nontarget	n/a	n/a
113.359375	n/a	29020	D	target	miss	n/a
114.9335938	n/a	29423	A	nontarget	miss	n/a
116.515625	n/a	29828	B	nontarget	n/a	n/a
118.09375	n/a	30232	A	target	hit	871.0938
118.9648438	n/a	30455	rt	n/a	hit	871.0938
119.6640625	n/a	30634	A	nontarget	n/a	n/a
121.2382812	n/a	31037	A	target	miss	n/a
122.8125	n/a	31440	D	nontarget	miss	n/a
124.3828125	n/a	31842	C	nontarget	n/a	n/a
125.9453125	n/a	32242	D	target	hit	523.4375
126.46875	n/a	32376	rt	n/a	hit	523.4375
127.5195312	n/a	32645	C	target	hit	929.6875
128.4492188	n/a	32883	rt	n/a	hit	929.6875
129.078125	n/a	33044	B	nontarget	n/a	n/a
130.6523438	n/a	33447	D	nontarget	n/a	n/a
132.2226562	n/a	33849	A	nontarget	n/a	n/a
133.796875	n/a	34252	A	nontarget	n/a	n/a
135.3710938	n/a	34655	C	nontarget	n/a	n/a
136.9414062	n/a	35057	D	nontarget	n/a	n/a
138.5195312	n/a	35461	D	nontarget	n/a	n/a
140.0742188	n/a	35859	A	nontarget	n/a	n/a
141.6367188	n/a	36259	A	nontarget	n/a	n/a
143.2226562	n/a	36665	D	nontarget	n/a	n/a
144.796875	n/a	37068	B	nontarget	n/a	n/a
146.3710938	n/a	37471	B	nontarget	n/a	n/a
147.9414062	n/a	37873	B	target	hit	1042.9688
148.984375	n/a	38140	rt	n/a	hit	1042.9688
149.515625	n/a	38276	B	target	hit	742.1875
150.2578125	n/a	38466	rt	n/a	hit	742.1875
151.0898438	n/a	38679	A	nontarget	n/a	n/a
152.6757812	n/a	39085	B	target	miss	n/a
154.2539062	n/a	39489	A	target	hit	601.5625
154.8554688	n/a	39643	rt	n/a	hit	601.5625
155.8242188	n/a	39891	A	nontarget	n/a	n/a
157.3984375	n/a	40294	C	nontarget	n/a	n/a
158.9726562	n/a	40697	D	nontarget	n/a	n/a
160.5546875	n/a	41102	D	nontarget	n/a	n/a
162.1328125	n/a	41506	B	nontarget	n/a	n/a
163.703125	n/a	41908	A	nontarget	n/a	n/a
165.2773438	n/a	42311	B	target	hit	589.8438
165.8671875	n/a	42462	rt	n/a	hit	589.8438
166.8515625	n/a	42714	D	nontarget	n/a	n/a
168.421875	n/a	43116	C	nontarget	n/a	n/a
169.984375	n/a	43516	D	target	hit	558.5938
170.5429688	n/a	43659	rt	n/a	hit	558.5938
171.546875	n/a	43916	A	nontarget	n/a	n/a
173.1289062	n/a	44321	A	nontarget	n/a	n/a
174.703125	n/a	44724	A	target	hit	605.4688
175.3085938	n/a	44879	rt	n/a	hit	605.4688
176.2773438	n/a	45127	B	nontarget	n/a	n/a
177.8515625	n/a	45530	C	nontarget	n/a	n/a
179.421875	n/a	45932	A	nontarget	n/a	n/a
181.0078125	n/a	46338	D	nontarget	n/a	n/a
182.5820312	n/a	46741	A	target	miss	n/a
184.15625	n/a	47144	B	nontarget	miss	n/a
185.734375	n/a	47548	C	nontarget	n/a	n/a
187.3007812	n/a	47949	B	target	miss	n/a
188.875	n/a	48352	B	nontarget	miss	n/a
190.4492188	n/a	48755	C	nontarget	n/a	n/a
192.0351562	n/a	49161	C	nontarget	n/a	n/a
193.6132812	n/a	49565	C	target	hit	769.5312
194.3828125	n/a	49762	rt	n/a	hit	769.5312
195.1796875	n/a	49966	A	nontarget	n/a	n/a
196.7578125	n/a	50370	C	target	miss	n/a
198.3320312	n/a	50773	A	target	miss	n/a
199.9140625	n/a	51178	A	nontarget	false_alarm	539.0625
200.453125	n/a	51316	rt	n/a	false_alarm	539.0625
201.4921875	n/a	51582	B	nontarget	n/a	n/a
203.0625	n/a	51984	B	nontarget	n/a	n/a
204.6367188	n/a	52387	B	target	hit	839.8438
205.4765625	n/a	52602	rt	n/a	hit	839.8438
206.2109375	n/a	52790	A	nontarget	n/a	n/a
207.7929688	n/a	53195	C	nontarget	n/a	n/a
209.4882812	n/a	53629	A	target	hit	578.125
210.0664062	n/a	53777	rt	n/a	hit	578.125
211.0625	n/a	54032	A	nontarget	n/a	n/a
212.6367188	n/a	54435	B	nontarget	n/a	n/a
214.2109375	n/a	54838	C	nontarget	n/a	n/a
215.7929688	n/a	55243	C	nontarget	n/a	n/a
217.3710938	n/a	55647	A	nontarget	n/a	n/a
218.9414062	n/a	56049	D	nontarget	n/a	n/a
220.515625	n/a	56452	B	nontarget	n/a	n/a
222.0898438	n/a	56855	A	nontarget	n/a	n/a
223.6601562	n/a	57257	C	nontarget	n/a	n/a
225.2226562	n/a	57657	A	target	miss	n/a
226.8085938	n/a	58063	C	target	miss	n/a
228.3828125	n/a	58466	A	target	hit	546.875
228.9296875	n/a	58606	rt	n/a	hit	546.875
229.953125	n/a	58868	C	target	miss	n/a
231.53125	n/a	59272	A	target	miss	n/a
233.1015625	n/a	59674	A	nontarget	miss	n/a
234.6601562	n/a	60073	A	target	hit	839.8438
235.5	n/a	60288	rt	n/a	hit	839.8438
236.234375	n/a	60476	A	target	hit	1195.3125
237.4296875	n/a	60782	rt	n/a	hit	1195.3125
237.8125	n/a	60880	C	nontarget	n/a	n/a
239.3789062	n/a	61281	B	nontarget	n/a	n/a
240.9570312	n/a	61685	A	nontarget	n/a	n/a
242.53125	n/a	62088	B	target	hit	929.6875
243.4609375	n/a	62326	rt	n/a	hit	929.6875
244.1015625	n/a	62490	D	nontarget	n/a	n/a
245.6757812	n/a	62893	A	nontarget	n/a	n/a
247.3398438	n/a	63319	D	target	hit	1011.7188
248.3515625	n/a	63578	rt	n/a	hit	1011.7188
248.9140625	n/a	63722	C	nontarget	n/a	n/a
250.4882812	n/a	64125	A	nontarget	n/a	n/a
252.0585938	n/a	64527	A	nontarget	n/a	n/a
253.6367188	n/a	64931	A	target	hit	1011.7188
254.6484375	n/a	65190	rt	n/a	hit	1011.7188
255.2070312	n/a	65333	C	nontarget	n/a	n/a
256.7929688	n/a	65739	C	nontarget	n/a	n/a
258.3710938	n/a	66143	D	nontarget	n/a	n/a
259.9414062	n/a	66545	A	nontarget	n/a	n/a
261.515625	n/a	66948	D	target	hit	941.4062
262.4570312	n/a	67189	rt	n/a	hit	941.4062
263.0898438	n/a	67351	B	nontarget	n/a	n/a
264.6601562	n/a	67753	C	nontarget	n/a	n/a
266.2226562	n/a	68153	A	nontarget	n/a	n/a
267.8085938	n/a	68559	D	nontarget	n/a	n/a
269.3789062	n/a	68961	D	nontarget	n/a	n/a
270.953125	n/a	69364	C	nontarget	n/a	n/a
272.5273438	n/a	69767	B	nontarget	n/a	n/a
274.0976562	n/a	70169	C	target	hit	816.4062
274.9140625	n/a	70378	rt	n/a	hit	816.4062
275.6757812	n/a	70573	D	nontarget	n/a	n/a
277.2578125	n/a	70978	C	target	miss	n/a
278.8359375	n/a	71382	C	nontarget	miss	n/a
280.4101562	n/a	71785	C	target	miss	n/a
281.9804688	n/a	72187	A	nontarget	miss	n/a
283.5546875	n/a	72590	C	target	hit	535.1562
284.0898438	n/a	72727	rt	n/a	hit	535.1562
285.1289062	n/a	72993	D	nontarget	n/a	n/a
286.7109375	n/a	73398	D	nontarget	n/a	n/a
288.2890625	n/a	73802	B	nontarget	n/a	n/a
289.859375	n/a	74204	A	nontarget	n/a	n/a
291.4335938	n/a	74607	C	nontarget	n/a	n/a
293.0078125	n/a	75010	C	nontarget	n/a	n/a
294.578125	n/a	75412	D	nontarget	n/a	n/a
296.140625	n/a	75812	C	target	miss	n/a
297.7109375	n/a	76214	A	nontarget	miss	n/a
299.2890625	n/a	76618	C	target	miss	n/a
300.859375	n/a	77020	B	nontarget	miss	n/a
302.4765625	n/a	77434	C	target	miss	n/a
304.0585938	n/a	77839	A	nontarget	miss	n/a
305.6328125	n/a	78242	A	nontarget	n/a	n/a
307.2070312	n/a	78645	B	nontarget	n/a	n/a
308.7773438	n/a	79047	C	nontarget	n/a	n/a
310.3554688	n/a	79451	A	nontarget	n/a	n/a
311.9375	n/a	79856	A	nontarget	n/a	n/a
313.5117188	n/a	80259	D	nontarget	n/a	n/a
315.0859375	n/a	80662	B	nontarget	n/a	n/a
316.6601562	n/a	81065	B	nontarget	n/a	n/a
318.234375	n/a	81468	B	target	hit	707.0312
318.9414062	n/a	81649	rt	n/a	hit	707.0312
319.8085938	n/a	81871	D	nontarget	n/a	n/a
321.390625	n/a	82276	D	nontarget	n/a	n/a
322.96875	n/a	82680	B	nontarget	n/a	n/a
324.5390625	n/a	83082	A	nontarget	n/a	n/a
326.1132812	n/a	83485	C	nontarget	n/a	n/a
327.6875	n/a	83888	A	target	miss	n/a
329.2695312	n/a	84293	B	nontarget	miss	n/a
330.8476562	n/a	84697	D	nontarget	n/a	n/a
332.4179688	n/a	85099	C	nontarget	n/a	n/a
333.9921875	n/a	85502	C	nontarget	n/a	n/a
335.5664062	n/a	85905	C	target	hit	570.3125
336.1367188	n/a	86051	rt	n/a	hit	570.3125
337.1367188	n/a	86307	C	target	hit	1121.0938
338.2578125	n/a	86594	rt	n/a	hit	1121.0938
338.7265625	n/a	86714	A	nontarget	n/a	n/a
340.296875	n/a	87116	C	target	hit	773.4375
341.0703125	n/a	87314	rt	n/a	hit	773.4375
341.8710938	n/a	87519	C	nontarget	n/a	n/a
343.4453125	n/a	87922	C	target	hit	925.7812
344.3710938	n/a	88159	rt	n/a	hit	925.7812
345.0195312	n/a	88325	C	target	hit	609.375
345.6289062	n/a	88481	rt	n/a	hit	609.375
346.59375	n/a	88728	C	target	hit	1050.7812
347.6445312	n/a	88997	rt	n/a	hit	1050.7812
348.1757812	n/a	89133	A	nontarget	n/a	n/a
349.7539062	n/a	89537	B	nontarget	n/a	n/a
351.328125	n/a	89940	D	nontarget	n/a	n/a
352.8984375	n/a	90342	B	target	miss	n/a
354.4726562	n/a	90745	C	nontarget	miss	n/a
356.046875	n/a	91148	D	nontarget	n/a	n/a
357.6289062	n/a	91553	C	target	miss	n/a
359.2070312	n/a	91957	A	nontarget	miss	n/a
360.7773438	n/a	92359	B	nontarget	n/a	n/a
362.3515625	n/a	92762	A	target	miss	n/a
363.9257812	n/a	93165	A	nontarget	miss	n/a
365.4960938	n/a	93567	B	nontarget	n/a	n/a
367.0585938	n/a	93967	C	nontarget	n/a	n/a
368.6445312	n/a	94373	D	nontarget	n/a	n/a
370.21875	n/a	94776	C	target	miss	n/a
371.7890625	n/a	95178	A	nontarget	miss	n/a
373.3671875	n/a	95582	D	nontarget	n/a	n/a
374.9375	n/a	95984	A	target	miss	n/a
376.5117188	n/a	96387	B	nontarget	miss	n/a
378.0703125	n/a	96786	B	nontarget	n/a	n/a
379.6328125	n/a	97186	C	nontarget	n/a	n/a
381.1914062	n/a	97585	A	nontarget	n/a	n/a
382.7539062	n/a	97985	B	nontarget	n/a	n/a
384.3359375	n/a	98390	C	nontarget	n/a	n/a
385.9101562	n/a	98793	A	nontarget	n/a	n/a
387.484375	n/a	99196	D	nontarget	n/a	n/a
389.0585938	n/a	99599	D	nontarget	n/a	n/a
390.6328125	n/a	100002	D	target	hit	542.9688
391.1757812	n/a	100141	rt	n/a	hit	542.9688
392.2148438	n/a	100407	C	nontarget	n/a	n/a
393.7929688	n/a	100811	B	nontarget	n/a	n/a
395.3671875	n/a	101214	C	target	hit	902.3438
396.2695312	n/a	101445	rt	n/a	hit	902.3438
396.9375	n/a	101616	C	nontarget	n/a	n/a
398.5117188	n/a	102019	C	target	miss	n/a
400.0859375	n/a	102422	A	nontarget	miss	n/a
401.6679688	n/a	102827	B	nontarget	n/a	n/a
403.2460938	n/a	103231	D	nontarget	n/a	n/a
404.8164062	n/a	103633	D	nontarget	n/a	n/a
406.390625	n/a	104036	C	nontarget	n/a	n/a
407.9648438	n/a	104439	B	nontarget	n/a	n/a
409.5351562	n/a	104841	D	nontarget	n/a	n/a
411.1132812	n/a	105245	D	nontarget	n/a	n/a
412.6835938	n/a	105647	D	target	hit	664.0625
413.3476562	n/a	105817	rt	n/a	hit	664.0625
414.2578125	n/a	106050	D	target	hit	796.875
415.0546875	n/a	106254	rt	n/a	hit	796.875
415.8320312	n/a	106453	A	nontarget	n/a	n/a
417.40625	n/a	106856	B	nontarget	n/a	n/a
418.9765625	n/a	107258	D	nontarget	n/a	n/a
420.5390625	n/a	107658	C	nontarget	n/a	n/a
422.1210938	n/a	108063	A	nontarget	n/a	n/a
423.6953125	n/a	108466	C	target	miss	n/a
425.2695312	n/a	108869	A	target	hit	863.2812
426.1328125	n/a	109090	rt	n/a	hit	863.2812
426.8476562	n/a	109273	C	target	miss	n/a
428.4140625	n/a	109674	D	nontarget	miss	n/a
430.0039062	n/a	110081	C	target	hit	542.9688
430.546875	n/a	110220	rt	n/a	hit	542.9688
431.5664062	n/a	110481	C	nontarget	n/a	n/a
433.1484375	n/a	110886	C	target	hit	1140.625
434.2890625	n/a	111178	rt	n/a	hit	1140.625
434.7265625	n/a	111290	D	nontarget	n/a	n/a
436.296875	n/a	111692	A	nontarget	n/a	n/a
437.8710938	n/a	112095	A	nontarget	n/a	n/a
439.4453125	n/a	112498	A	target	hit	746.0938
440.1914062	n/a	112689	rt	n/a	hit	746.0938
441.0273438	n/a	112903	B	nontarget	n/a	n/a
442.6054688	n/a	113307	D	nontarget	n/a	n/a
444.1757812	n/a	113709	C	nontarget	n/a	n/a
445.75	n/a	114112	C	nontarget	n/a	n/a
447.3242188	n/a	114515	D	nontarget	false_alarm	1468.75
448.7929688	n/a	114891	rt	n/a	false_alarm	1468.75
448.9101562	n/a	114921	B	nontarget	n/a	n/a
450.5742188	n/a	115347	A	nontarget	n/a	n/a
452.1484375	n/a	115750	D	nontarget	n/a	n/a
453.7226562	n/a	116153	C	nontarget	n/a	n/a
455.296875	n/a	116556	D	target	hit	613.2812
455.9101562	n/a	116713	rt	n/a	hit	613.2812
456.8710938	n/a	116959	B	nontarget	n/a	n/a
458.4453125	n/a	117362	C	nontarget	n/a	n/a
460.0273438	n/a	117767	A	nontarget	n/a	n/a
461.6054688	n/a	118171	C	target	hit	664.0625
462.2695312	n/a	118341	rt	n/a	hit	664.0625
463.1757812	n/a	118573	A	target	miss	n/a
464.75	n/a	118976	D	nontarget	miss	n/a
