onset	duration	sample	value	response_type	congruence	response_time	response_out_of_range	largeletter	smallletter
43.8515625	n/a	11226	largeHSmallH	correct	congruent	1.5195	yes	H	H
45.37109375	n/a	11615	responseLargeH	correct	n/a	1.5195	yes	n/a	n/a
46.453125	n/a	11892	largeHSmallT	correct	incongruent	1.2617	no	H	T
47.71484375	n/a	12215	responseLargeH	correct	n/a	1.2617	no	n/a	n/a
48.78515625	n/a	12489	largeTSmallH	correct	incongruent	0.71875	no	T	H
49.50390625	n/a	12673	responseLargeT	correct	n/a	0.71875	no	n/a	n/a
50.5859375	n/a	12950	largeHSmallH	correct	congruent	0.82422	no	H	H
51.41015625	n/a	13161	responseLargeH	correct	n/a	0.82422	no	n/a	n/a
52.4921875	n/a	13438	largeHSmallH	correct	congruent	0.75781	no	H	H
53.25	n/a	13632	responseLargeH	correct	n/a	0.75781	no	n/a	n/a
54.31640625	n/a	13905	largeTSmallH	correct	incongruent	0.55469	no	T	H
54.87109375	n/a	14047	responseLargeT	correct	n/a	0.55469	no	n/a	n/a
55.9453125	n/a	14322	largeTSmallT	correct	congruent	0.64062	no	T	T
56.5859375	n/a	14486	responseLargeT	correct	n/a	0.64062	no	n/a	n/a
57.6640625	n/a	14762	largeTSmallH	correct	incongruent	0.76562	no	T	H
58.4296875	n/a	14958	responseLargeT	correct	n/a	0.76562	no	n/a	n/a
59.50390625	n/a	15233	largeHSmallH	correct	congruent	0.58203	no	H	H
60.0859375	n/a	15382	responseLargeH	correct	n/a	0.58203	no	n/a	n/a
61.15625	n/a	15656	largeTSmallT	correct	congruent	0.52734	no	T	T
61.68359375	n/a	15791	responseLargeT	correct	n/a	0.52734	no	n/a	n/a
62.8359375	n/a	16086	largeTSmallT	correct	congruent	0.54688	no	T	T
63.3828125	n/a	16226	responseLargeT	correct	n/a	0.54688	no	n/a	n/a
64.44921875	n/a	16499	largeTSmallT	correct	congruent	0.68359	no	T	T
65.1328125	n/a	16674	responseLargeT	correct	n/a	0.68359	no	n/a	n/a
66.2109375	n/a	16950	largeHSmallH	correct	congruent	0.50781	no	H	H
66.71875	n/a	17080	responseLargeH	correct	n/a	0.50781	no	n/a	n/a
67.78515625	n/a	17353	largeHSmallH	correct	congruent	0.60156	no	H	H
68.38671875	n/a	17507	responseLargeH	correct	n/a	0.60156	no	n/a	n/a
69.46484375	n/a	17783	largeHSmallT	correct	incongruent	0.69531	no	H	T
70.16015625	n/a	17961	responseLargeH	correct	n/a	0.69531	no	n/a	n/a
71.23828125	n/a	18237	largeTSmallH	correct	incongruent	0.49609	no	T	H
71.734375	n/a	18364	responseLargeT	correct	n/a	0.49609	no	n/a	n/a
72.8125	n/a	18640	largeHSmallT	correct	incongruent	0.59766	no	H	T
73.41015625	n/a	18793	responseLargeH	correct	n/a	0.59766	no	n/a	n/a
74.4765625	n/a	19066	largeTSmallT	correct	congruent	0.48828	no	T	T
74.96484375	n/a	19191	responseLargeT	correct	n/a	0.48828	no	n/a	n/a
76.0390625	n/a	19466	largeTSmallH	correct	incongruent	0.62109	no	T	H
76.66015625	n/a	19625	responseLargeT	correct	n/a	0.62109	no	n/a	n/a
77.8359375	n/a	19926	largeTSmallT	correct	congruent	0.52344	no	T	T
78.359375	n/a	20060	responseLargeT	correct	n/a	0.52344	no	n/a	n/a
79.42578125	n/a	20333	largeHSmallT	correct	incongruent	0.52734	no	H	T
79.953125	n/a	20468	responseLargeH	correct	n/a	0.52734	no	n/a	n/a
81.01171875	n/a	20739	largeTSmallH	correct	incongruent	0.5	no	T	H
81.51171875	n/a	20867	responseLargeT	correct	n/a	0.5	no	n/a	n/a
82.5703125	n/a	21138	largeHSmallT	correct	incongruent	0.86328	no	H	T
83.43359375	n/a	21359	responseLargeH	correct	n/a	0.86328	no	n/a	n/a
84.515625	n/a	21636	largeHSmallT	correct	incongruent	0.55469	no	H	T
85.0703125	n/a	21778	responseLargeH	correct	n/a	0.55469	no	n/a	n/a
86.14453125	n/a	22053	largeHSmallH	correct	congruent	0.54297	no	H	H
86.6875	n/a	22192	responseLargeH	correct	n/a	0.54297	no	n/a	n/a
87.7578125	n/a	22466	largeHSmallH	correct	congruent	0.55469	no	H	H
88.3125	n/a	22608	responseLargeH	correct	n/a	0.55469	no	n/a	n/a
89.3828125	n/a	22882	largeHSmallT	correct	incongruent	0.52344	no	H	T
89.90625	n/a	23016	responseLargeH	correct	n/a	0.52344	no	n/a	n/a
90.984375	n/a	23292	largeHSmallT	correct	incongruent	0.50391	no	H	T
91.48828125	n/a	23421	responseLargeH	correct	n/a	0.50391	no	n/a	n/a
92.55859375	n/a	23695	largeTSmallH	correct	incongruent	0.44141	no	T	H
93	n/a	23808	responseLargeT	correct	n/a	0.44141	no	n/a	n/a
94.078125	n/a	24084	largeTSmallH	correct	incongruent	0.42188	no	T	H
94.5	n/a	24192	responseLargeT	correct	n/a	0.42188	no	n/a	n/a
95.5703125	n/a	24466	largeHSmallT	correct	incongruent	0.54688	no	H	T
96.1171875	n/a	24606	responseLargeH	correct	n/a	0.54688	no	n/a	n/a
97.1953125	n/a	24882	largeTSmallT	correct	congruent	0.63281	no	T	T
97.828125	n/a	25044	responseLargeT	correct	n/a	0.63281	no	n/a	n/a
98.890625	n/a	25316	largeTSmallT	correct	congruent	0.48828	no	T	T
99.37890625	n/a	25441	responseLargeT	correct	n/a	0.48828	no	n/a	n/a
100.4492188	n/a	25715	largeHSmallT	correct	incongruent	0.44922	no	H	T
100.8984375	n/a	25830	responseLargeH	correct	n/a	0.44922	no	n/a	n/a
101.96875	n/a	26104	largeTSmallT	correct	congruent	0.4375	no	T	T
102.40625	n/a	26216	responseLargeT	correct	n/a	0.4375	no	n/a	n/a
103.4765625	n/a	26490	largeHSmallT	correct	incongruent	0.57422	no	H	T
104.0507812	n/a	26637	responseLargeH	correct	n/a	0.57422	no	n/a	n/a
105.1171875	n/a	26910	largeTSmallT	correct	congruent	0.44141	no	T	T
105.5585938	n/a	27023	responseLargeT	correct	n/a	0.44141	no	n/a	n/a
106.625	n/a	27296	largeHSmallH	correct	congruent	0.53516	no	H	H
107.1601562	n/a	27433	responseLargeH	correct	n/a	0.53516	no	n/a	n/a
108.2382812	n/a	27709	largeHSmallT	correct	incongruent	0.66797	no	H	T
108.90625	n/a	27880	responseLargeH	correct	n/a	0.66797	no	n/a	n/a
109.96875	n/a	28152	largeHSmallH	correct	congruent	0.47656	no	H	H
110.4453125	n/a	28274	responseLargeH	correct	n/a	0.47656	no	n/a	n/a
111.515625	n/a	28548	largeHSmallH	correct	congruent	0.4375	no	H	H
111.953125	n/a	28660	responseLargeH	correct	n/a	0.4375	no	n/a	n/a
113.0234375	n/a	28934	largeTSmallT	correct	congruent	0.46094	no	T	T
113.484375	n/a	29052	responseLargeT	correct	n/a	0.46094	no	n/a	n/a
114.5585938	n/a	29327	largeTSmallT	correct	congruent	0.44922	no	T	T
115.0078125	n/a	29442	responseLargeT	correct	n/a	0.44922	no	n/a	n/a
116.0898438	n/a	29719	largeTSmallT	correct	congruent	0.41016	no	T	T
116.5	n/a	29824	responseLargeT	correct	n/a	0.41016	no	n/a	n/a
117.5703125	n/a	30098	largeTSmallT	correct	congruent	0.46484	no	T	T
118.0351562	n/a	30217	responseLargeT	correct	n/a	0.46484	no	n/a	n/a
119.1171875	n/a	30494	largeHSmallT	correct	incongruent	0.50391	no	H	T
119.6210938	n/a	30623	responseLargeH	correct	n/a	0.50391	no	n/a	n/a
120.6914062	n/a	30897	largeTSmallH	correct	incongruent	0.44141	no	T	H
121.1328125	n/a	31010	responseLargeT	correct	n/a	0.44141	no	n/a	n/a
122.1953125	n/a	31282	largeHSmallT	correct	incongruent	0.44141	no	H	T
122.6367188	n/a	31395	responseLargeH	correct	n/a	0.44141	no	n/a	n/a
123.7148438	n/a	31671	largeHSmallT	correct	incongruent	0.52734	no	H	T
124.2421875	n/a	31806	responseLargeH	correct	n/a	0.52734	no	n/a	n/a
125.3164062	n/a	32081	largeTSmallT	correct	congruent	0.50781	no	T	T
125.8242188	n/a	32211	responseLargeT	correct	n/a	0.50781	no	n/a	n/a
126.890625	n/a	32484	largeTSmallH	correct	incongruent	0.51172	no	T	H
127.4023438	n/a	32615	responseLargeT	correct	n/a	0.51172	no	n/a	n/a
128.4765625	n/a	32890	largeTSmallH	correct	incongruent	0.51172	no	T	H
128.9882812	n/a	33021	responseLargeT	correct	n/a	0.51172	no	n/a	n/a
130.0625	n/a	33296	largeHSmallH	correct	congruent	0.51172	no	H	H
130.5742188	n/a	33427	responseLargeH	correct	n/a	0.51172	no	n/a	n/a
131.6367188	n/a	33699	largeTSmallH	correct	incongruent	0.58594	no	T	H
132.2226562	n/a	33849	responseLargeT	correct	n/a	0.58594	no	n/a	n/a
133.2890625	n/a	34122	largeTSmallT	correct	congruent	0.53516	no	T	T
133.8242188	n/a	34259	responseLargeT	correct	n/a	0.53516	no	n/a	n/a
134.9023438	n/a	34535	largeTSmallH	correct	incongruent	0.51562	no	T	H
135.4179688	n/a	34667	responseLargeT	correct	n/a	0.51562	no	n/a	n/a
136.4882812	n/a	34941	largeTSmallH	correct	incongruent	0.44141	no	T	H
136.9296875	n/a	35054	responseLargeT	correct	n/a	0.44141	no	n/a	n/a
138.0078125	n/a	35330	largeTSmallH	correct	incongruent	0.42578	no	T	H
138.4335938	n/a	35439	responseLargeT	correct	n/a	0.42578	no	n/a	n/a
139.5039062	n/a	35713	largeHSmallH	correct	congruent	0.47266	no	H	H
139.9765625	n/a	35834	responseLargeH	correct	n/a	0.47266	no	n/a	n/a
141.0507812	n/a	36109	largeTSmallH	correct	incongruent	0.4375	no	T	H
141.4882812	n/a	36221	responseLargeT	correct	n/a	0.4375	no	n/a	n/a
142.5546875	n/a	36494	largeTSmallT	correct	congruent	0.50391	no	T	T
143.0585938	n/a	36623	responseLargeT	correct	n/a	0.50391	no	n/a	n/a
144.1289062	n/a	36897	largeHSmallH	correct	congruent	0.41016	no	H	H
144.5390625	n/a	37002	responseLargeH	correct	n/a	0.41016	no	n/a	n/a
145.609375	n/a	37276	largeHSmallT	correct	incongruent	0.40234	no	H	T
146.0117188	n/a	37379	responseLargeH	correct	n/a	0.40234	no	n/a	n/a
147.0898438	n/a	37655	largeTSmallH	correct	incongruent	0.48438	no	T	H
147.5742188	n/a	37779	responseLargeT	correct	n/a	0.48438	no	n/a	n/a
148.6484375	n/a	38054	largeTSmallT	correct	congruent	0.56641	no	T	T
149.2148438	n/a	38199	responseLargeT	correct	n/a	0.56641	no	n/a	n/a
150.2773438	n/a	38471	largeHSmallT	correct	incongruent	0.53125	no	H	T
150.8085938	n/a	38607	responseLargeH	correct	n/a	0.53125	no	n/a	n/a
151.890625	n/a	38884	largeHSmallH	correct	congruent	0.40625	no	H	H
152.296875	n/a	38988	responseLargeH	correct	n/a	0.40625	no	n/a	n/a
153.3671875	n/a	39262	largeTSmallH	correct	incongruent	0.37109	no	T	H
153.7382812	n/a	39357	responseLargeT	correct	n/a	0.37109	no	n/a	n/a
154.84375	n/a	39640	largeTSmallH	correct	incongruent	0.38672	no	T	H
155.2304688	n/a	39739	responseLargeT	correct	n/a	0.38672	no	n/a	n/a
156.3007812	n/a	40013	largeHSmallH	correct	congruent	0.46875	no	H	H
156.7695312	n/a	40133	responseLargeH	correct	n/a	0.46875	no	n/a	n/a
157.8476562	n/a	40409	largeTSmallH	error	incongruent	0.42578	no	T	H
158.2734375	n/a	40518	responseLargeH	error	n/a	0.42578	no	n/a	n/a
159.34375	n/a	40792	largeTSmallH	correct	incongruent	0.57422	no	T	H
159.9179688	n/a	40939	responseLargeT	correct	n/a	0.57422	no	n/a	n/a
160.9804688	n/a	41211	largeHSmallH	correct	congruent	0.5	no	H	H
161.4804688	n/a	41339	responseLargeH	correct	n/a	0.5	no	n/a	n/a
162.5546875	n/a	41614	largeHSmallT	error	incongruent	0.41016	no	H	T
162.9648438	n/a	41719	responseLargeT	error	n/a	0.41016	no	n/a	n/a
164.0351562	n/a	41993	largeHSmallT	correct	incongruent	0.55859	no	H	T
164.59375	n/a	42136	responseLargeH	correct	n/a	0.55859	no	n/a	n/a
165.6601562	n/a	42409	largeTSmallT	correct	congruent	0.50781	no	T	T
166.1679688	n/a	42539	responseLargeT	correct	n/a	0.50781	no	n/a	n/a
167.234375	n/a	42812	largeTSmallH	correct	incongruent	0.47266	no	T	H
167.7070312	n/a	42933	responseLargeT	correct	n/a	0.47266	no	n/a	n/a
168.78125	n/a	43208	largeHSmallH	correct	congruent	0.50391	no	H	H
169.2851562	n/a	43337	responseLargeH	correct	n/a	0.50391	no	n/a	n/a
170.3554688	n/a	43611	largeTSmallH	correct	incongruent	0.51562	no	T	H
170.8710938	n/a	43743	responseLargeT	correct	n/a	0.51562	no	n/a	n/a
171.9414062	n/a	44017	largeTSmallT	correct	congruent	0.71094	no	T	T
172.6523438	n/a	44199	responseLargeT	correct	n/a	0.71094	no	n/a	n/a
173.8359375	n/a	44502	largeHSmallT	correct	incongruent	0.42188	no	H	T
174.2578125	n/a	44610	responseLargeH	correct	n/a	0.42188	no	n/a	n/a
175.328125	n/a	44884	largeTSmallH	correct	incongruent	0.49609	no	T	H
175.8242188	n/a	45011	responseLargeT	correct	n/a	0.49609	no	n/a	n/a
176.8867188	n/a	45283	largeTSmallT	correct	congruent	0.42188	no	T	T
177.3085938	n/a	45391	responseLargeT	correct	n/a	0.42188	no	n/a	n/a
178.3828125	n/a	45666	largeTSmallT	correct	congruent	0.44141	no	T	T
178.8242188	n/a	45779	responseLargeT	correct	n/a	0.44141	no	n/a	n/a
179.8867188	n/a	46051	largeTSmallT	correct	congruent	0.40625	no	T	T
180.2929688	n/a	46155	responseLargeT	correct	n/a	0.40625	no	n/a	n/a
181.3671875	n/a	46430	largeTSmallT	correct	congruent	0.45703	no	T	T
181.8242188	n/a	46547	responseLargeT	correct	n/a	0.45703	no	n/a	n/a
182.9023438	n/a	46823	largeTSmallT	correct	congruent	0.43359	no	T	T
183.3359375	n/a	46934	responseLargeT	correct	n/a	0.43359	no	n/a	n/a
184.4101562	n/a	47209	largeTSmallT	correct	congruent	0.41406	no	T	T
184.8242188	n/a	47315	responseLargeT	correct	n/a	0.41406	no	n/a	n/a
185.8867188	n/a	47587	largeHSmallH	correct	congruent	0.50781	no	H	H
186.3945312	n/a	47717	responseLargeH	correct	n/a	0.50781	no	n/a	n/a
187.4765625	n/a	47994	largeTSmallT	correct	congruent	0.44141	no	T	T
187.9179688	n/a	48107	responseLargeT	correct	n/a	0.44141	no	n/a	n/a
188.9804688	n/a	48379	largeHSmallH	correct	congruent	0.54297	no	H	H
189.5234375	n/a	48518	responseLargeH	correct	n/a	0.54297	no	n/a	n/a
190.59375	n/a	48792	largeTSmallT	correct	congruent	0.43359	no	T	T
191.0273438	n/a	48903	responseLargeT	correct	n/a	0.43359	no	n/a	n/a
192.1015625	n/a	49178	largeHSmallT	correct	incongruent	0.45703	no	H	T
192.5585938	n/a	49295	responseLargeH	correct	n/a	0.45703	no	n/a	n/a
193.6328125	n/a	49570	largeTSmallH	correct	incongruent	0.58984	no	T	H
194.2226562	n/a	49721	responseLargeT	correct	n/a	0.58984	no	n/a	n/a
195.2890625	n/a	49994	largeHSmallH	correct	congruent	0.54297	no	H	H
195.8320312	n/a	50133	responseLargeH	correct	n/a	0.54297	no	n/a	n/a
196.9140625	n/a	50410	largeHSmallH	correct	congruent	0.53516	no	H	H
197.4492188	n/a	50547	responseLargeH	correct	n/a	0.53516	no	n/a	n/a
198.515625	n/a	50820	largeHSmallT	correct	incongruent	0.44531	no	H	T
198.9609375	n/a	50934	responseLargeH	correct	n/a	0.44531	no	n/a	n/a
200.0234375	n/a	51206	largeHSmallH	correct	congruent	0.44141	no	H	H
200.4648438	n/a	51319	responseLargeH	correct	n/a	0.44141	no	n/a	n/a
201.5429688	n/a	51595	largeHSmallH	correct	congruent	0.5	no	H	H
202.0429688	n/a	51723	responseLargeH	correct	n/a	0.5	no	n/a	n/a
203.1132812	n/a	51997	largeTSmallT	correct	congruent	0.50781	no	T	T
203.6210938	n/a	52127	responseLargeT	correct	n/a	0.50781	no	n/a	n/a
204.6875	n/a	52400	largeHSmallH	correct	congruent	0.51562	no	H	H
205.203125	n/a	52532	responseLargeH	correct	n/a	0.51562	no	n/a	n/a
206.2734375	n/a	52806	largeHSmallT	correct	incongruent	0.49219	no	H	T
206.765625	n/a	52932	responseLargeH	correct	n/a	0.49219	no	n/a	n/a
207.8359375	n/a	53206	largeTSmallT	correct	congruent	0.45312	no	T	T
208.2890625	n/a	53322	responseLargeT	correct	n/a	0.45312	no	n/a	n/a
209.3554688	n/a	53595	largeHSmallT	error	incongruent	0.45703	no	H	T
209.8125	n/a	53712	responseLargeT	error	n/a	0.45703	no	n/a	n/a
210.8867188	n/a	53987	largeTSmallH	correct	incongruent	0.56641	no	T	H
211.453125	n/a	54132	responseLargeT	correct	n/a	0.56641	no	n/a	n/a
212.5273438	n/a	54407	largeHSmallH	correct	congruent	0.46094	no	H	H
212.9882812	n/a	54525	responseLargeH	correct	n/a	0.46094	no	n/a	n/a
214.046875	n/a	54796	largeHSmallH	correct	congruent	0.49219	no	H	H
214.5390625	n/a	54922	responseLargeH	correct	n/a	0.49219	no	n/a	n/a
215.6210938	n/a	55199	largeTSmallT	correct	congruent	0.43359	no	T	T
216.0546875	n/a	55310	responseLargeT	correct	n/a	0.43359	no	n/a	n/a
217.1289062	n/a	55585	largeTSmallT	correct	congruent	0.69141	no	T	T
217.8203125	n/a	55762	responseLargeT	correct	n/a	0.69141	no	n/a	n/a
218.8867188	n/a	56035	largeHSmallT	correct	incongruent	0.53906	no	H	T
219.4257812	n/a	56173	responseLargeH	correct	n/a	0.53906	no	n/a	n/a
220.5	n/a	56448	largeTSmallT	correct	congruent	0.48438	no	T	T
220.984375	n/a	56572	responseLargeT	correct	n/a	0.48438	no	n/a	n/a
222.0625	n/a	56848	largeTSmallH	error	incongruent	0.48828	no	T	H
222.5507812	n/a	56973	responseLargeH	error	n/a	0.48828	no	n/a	n/a
223.6210938	n/a	57247	largeHSmallH	correct	congruent	0.48828	no	H	H
224.109375	n/a	57372	responseLargeH	correct	n/a	0.48828	no	n/a	n/a
225.1796875	n/a	57646	largeTSmallH	correct	incongruent	0.50781	no	T	H
225.6875	n/a	57776	responseLargeT	correct	n/a	0.50781	no	n/a	n/a
226.8359375	n/a	58070	largeHSmallT	correct	incongruent	0.68359	no	H	T
227.5195312	n/a	58245	responseLargeH	correct	n/a	0.68359	no	n/a	n/a
228.59375	n/a	58520	largeTSmallH	correct	incongruent	0.48828	no	T	H
229.0820312	n/a	58645	responseLargeT	correct	n/a	0.48828	no	n/a	n/a
230.1523438	n/a	58919	largeHSmallT	correct	incongruent	0.48438	no	H	T
230.6367188	n/a	59043	responseLargeH	correct	n/a	0.48438	no	n/a	n/a
231.7148438	n/a	59319	largeTSmallH	correct	incongruent	0.60156	no	T	H
232.3164062	n/a	59473	responseLargeT	correct	n/a	0.60156	no	n/a	n/a
233.3789062	n/a	59745	largeHSmallT	correct	incongruent	0.63672	no	H	T
234.015625	n/a	59908	responseLargeH	correct	n/a	0.63672	no	n/a	n/a
235.0859375	n/a	60182	largeTSmallH	correct	incongruent	0.42188	no	T	H
235.5078125	n/a	60290	responseLargeT	correct	n/a	0.42188	no	n/a	n/a
236.5820312	n/a	60565	largeHSmallT	correct	incongruent	0.45312	no	H	T
237.0351562	n/a	60681	responseLargeH	correct	n/a	0.45312	no	n/a	n/a
238.1132812	n/a	60957	largeTSmallT	correct	congruent	0.48047	no	T	T
238.59375	n/a	61080	responseLargeT	correct	n/a	0.48047	no	n/a	n/a
239.671875	n/a	61356	largeTSmallT	correct	congruent	0.51562	no	T	T
240.1875	n/a	61488	responseLargeT	correct	n/a	0.51562	no	n/a	n/a
241.2617188	n/a	61763	largeHSmallT	correct	incongruent	0.55859	no	H	T
241.8203125	n/a	61906	responseLargeH	correct	n/a	0.55859	no	n/a	n/a
242.8984375	n/a	62182	largeHSmallT	correct	incongruent	0.62109	no	H	T
243.5195312	n/a	62341	responseLargeH	correct	n/a	0.62109	no	n/a	n/a
244.59375	n/a	62616	largeHSmallH	correct	congruent	0.58594	no	H	H
245.1796875	n/a	62766	responseLargeH	correct	n/a	0.58594	no	n/a	n/a
246.2460938	n/a	63039	largeTSmallH	correct	incongruent	0.49609	no	T	H
246.7421875	n/a	63166	responseLargeT	correct	n/a	0.49609	no	n/a	n/a
247.8242188	n/a	63443	largeTSmallT	correct	congruent	0.50391	no	T	T
248.328125	n/a	63572	responseLargeT	correct	n/a	0.50391	no	n/a	n/a
249.40625	n/a	63848	largeHSmallT	correct	incongruent	0.50781	no	H	T
249.9140625	n/a	63978	responseLargeH	correct	n/a	0.50781	no	n/a	n/a
250.9804688	n/a	64251	largeTSmallH	correct	incongruent	0.42969	no	T	H
251.4101562	n/a	64361	responseLargeT	correct	n/a	0.42969	no	n/a	n/a
252.4726562	n/a	64633	largeTSmallH	correct	incongruent	0.5	no	T	H
252.9726562	n/a	64761	responseLargeT	correct	n/a	0.5	no	n/a	n/a
254.046875	n/a	65036	largeTSmallH	correct	incongruent	0.44531	no	T	H
254.4921875	n/a	65150	responseLargeT	correct	n/a	0.44531	no	n/a	n/a
255.5664062	n/a	65425	largeHSmallH	correct	congruent	0.51953	no	H	H
256.0859375	n/a	65558	responseLargeH	correct	n/a	0.51953	no	n/a	n/a
257.1523438	n/a	65831	largeTSmallH	correct	incongruent	0.48828	no	T	H
257.640625	n/a	65956	responseLargeT	correct	n/a	0.48828	no	n/a	n/a
258.7148438	n/a	66231	largeHSmallT	correct	incongruent	0.50781	no	H	T
259.2226562	n/a	66361	responseLargeH	correct	n/a	0.50781	no	n/a	n/a
260.2851562	n/a	66633	largeTSmallH	correct	incongruent	0.41016	no	T	H
260.6953125	n/a	66738	responseLargeT	correct	n/a	0.41016	no	n/a	n/a
261.78125	n/a	67016	largeHSmallT	correct	incongruent	0.41797	no	H	T
262.1992188	n/a	67123	responseLargeH	correct	n/a	0.41797	no	n/a	n/a
263.2734375	n/a	67398	largeHSmallT	correct	incongruent	0.67188	no	H	T
263.9453125	n/a	67570	responseLargeH	correct	n/a	0.67188	no	n/a	n/a
265.0195312	n/a	67845	largeTSmallT	correct	congruent	0.50781	no	T	T
265.5273438	n/a	67975	responseLargeT	correct	n/a	0.50781	no	n/a	n/a
266.59375	n/a	68248	largeHSmallH	correct	congruent	0.46484	no	H	H
267.0585938	n/a	68367	responseLargeH	correct	n/a	0.46484	no	n/a	n/a
268.125	n/a	68640	largeHSmallT	correct	incongruent	0.49609	no	H	T
268.6210938	n/a	68767	responseLargeH	correct	n/a	0.49609	no	n/a	n/a
269.8476562	n/a	69081	largeTSmallT	correct	congruent	0.42578	no	T	T
270.2734375	n/a	69190	responseLargeT	correct	n/a	0.42578	no	n/a	n/a
271.3398438	n/a	69463	largeTSmallH	correct	incongruent	0.48047	no	T	H
271.8203125	n/a	69586	responseLargeT	correct	n/a	0.48047	no	n/a	n/a
272.8984375	n/a	69862	largeHSmallT	correct	incongruent	0.5	no	H	T
273.3984375	n/a	69990	responseLargeH	correct	n/a	0.5	no	n/a	n/a
274.4726562	n/a	70265	largeHSmallH	correct	congruent	0.51172	no	H	H
274.984375	n/a	70396	responseLargeH	correct	n/a	0.51172	no	n/a	n/a
276.046875	n/a	70668	largeHSmallT	correct	incongruent	0.48438	no	H	T
276.53125	n/a	70792	responseLargeH	correct	n/a	0.48438	no	n/a	n/a
277.6054688	n/a	71067	largeTSmallH	correct	incongruent	0.44922	no	T	H
278.0546875	n/a	71182	responseLargeT	correct	n/a	0.44922	no	n/a	n/a
279.125	n/a	71456	largeHSmallT	correct	incongruent	0.48828	no	H	T
279.6132812	n/a	71581	responseLargeH	correct	n/a	0.48828	no	n/a	n/a
280.828125	n/a	71892	largeTSmallT	correct	congruent	0.42578	no	T	T
281.2539062	n/a	72001	responseLargeT	correct	n/a	0.42578	no	n/a	n/a
282.3242188	n/a	72275	largeHSmallT	correct	incongruent	0.46484	no	H	T
282.7890625	n/a	72394	responseLargeH	correct	n/a	0.46484	no	n/a	n/a
283.9960938	n/a	72703	largeHSmallH	correct	congruent	0.55469	no	H	H
284.5507812	n/a	72845	responseLargeH	correct	n/a	0.55469	no	n/a	n/a
285.6328125	n/a	73122	largeHSmallH	correct	congruent	0.47266	no	H	H
286.1054688	n/a	73243	responseLargeH	correct	n/a	0.47266	no	n/a	n/a
287.1640625	n/a	73514	largeHSmallH	correct	congruent	0.48828	no	H	H
287.6523438	n/a	73639	responseLargeH	correct	n/a	0.48828	no	n/a	n/a
288.7265625	n/a	73914	largeTSmallH	correct	incongruent	0.44531	no	T	H
289.171875	n/a	74028	responseLargeT	correct	n/a	0.44531	no	n/a	n/a
290.2460938	n/a	74303	largeHSmallT	correct	incongruent	0.46875	no	H	T
290.7148438	n/a	74423	responseLargeH	correct	n/a	0.46875	no	n/a	n/a
291.7929688	n/a	74699	largeHSmallH	correct	congruent	0.4375	no	H	H
292.2304688	n/a	74811	responseLargeH	correct	n/a	0.4375	no	n/a	n/a
293.3007812	n/a	75085	largeTSmallH	correct	incongruent	0.53125	no	T	H
293.8320312	n/a	75221	responseLargeT	correct	n/a	0.53125	no	n/a	n/a
294.9140625	n/a	75498	largeTSmallH	correct	incongruent	0.47266	no	T	H
295.3867188	n/a	75619	responseLargeT	correct	n/a	0.47266	no	n/a	n/a
296.4570312	n/a	75893	largeHSmallH	correct	congruent	0.48047	no	H	H
296.9375	n/a	76016	responseLargeH	correct	n/a	0.48047	no	n/a	n/a
298.0195312	n/a	76293	largeTSmallH	correct	incongruent	0.46484	no	T	H
298.484375	n/a	76412	responseLargeT	correct	n/a	0.46484	no	n/a	n/a
299.5507812	n/a	76685	largeTSmallT	correct	congruent	0.48828	no	T	T
300.0390625	n/a	76810	responseLargeT	correct	n/a	0.48828	no	n/a	n/a
301.1132812	n/a	77085	largeTSmallT	correct	congruent	0.39844	no	T	T
301.5117188	n/a	77187	responseLargeT	correct	n/a	0.39844	no	n/a	n/a
302.578125	n/a	77460	largeHSmallH	correct	congruent	0.42188	no	H	H
303	n/a	77568	responseLargeH	correct	n/a	0.42188	no	n/a	n/a
304.0703125	n/a	77842	largeTSmallT	correct	congruent	0.4375	no	T	T
304.5078125	n/a	77954	responseLargeT	correct	n/a	0.4375	no	n/a	n/a
305.578125	n/a	78228	largeTSmallT	correct	congruent	0.57031	no	T	T
306.1484375	n/a	78374	responseLargeT	correct	n/a	0.57031	no	n/a	n/a
307.21875	n/a	78648	largeHSmallT	correct	incongruent	0.45312	no	H	T
307.671875	n/a	78764	responseLargeH	correct	n/a	0.45312	no	n/a	n/a
308.8320312	n/a	79061	largeTSmallT	correct	congruent	0.43359	no	T	T
309.265625	n/a	79172	responseLargeT	correct	n/a	0.43359	no	n/a	n/a
310.3398438	n/a	79447	largeTSmallT	correct	congruent	0.47656	no	T	T
310.8164062	n/a	79569	responseLargeT	correct	n/a	0.47656	no	n/a	n/a
311.8867188	n/a	79843	largeHSmallH	correct	congruent	0.48438	no	H	H
312.3710938	n/a	79967	responseLargeH	correct	n/a	0.48438	no	n/a	n/a
313.4453125	n/a	80242	largeHSmallH	correct	congruent	0.51953	no	H	H
313.9648438	n/a	80375	responseLargeH	correct	n/a	0.51953	no	n/a	n/a
315.03125	n/a	80648	largeTSmallT	correct	congruent	0.52344	no	T	T
315.5546875	n/a	80782	responseLargeT	correct	n/a	0.52344	no	n/a	n/a
316.6171875	n/a	81054	largeTSmallH	correct	incongruent	0.60547	no	T	H
317.2226562	n/a	81209	responseLargeT	correct	n/a	0.60547	no	n/a	n/a
318.296875	n/a	81484	largeTSmallT	correct	congruent	0.53125	no	T	T
318.828125	n/a	81620	responseLargeT	correct	n/a	0.53125	no	n/a	n/a
319.8984375	n/a	81894	largeTSmallT	correct	congruent	0.46875	no	T	T
320.3671875	n/a	82014	responseLargeT	correct	n/a	0.46875	no	n/a	n/a
321.4453125	n/a	82290	largeHSmallH	correct	congruent	0.4375	no	H	H
321.8828125	n/a	82402	responseLargeH	correct	n/a	0.4375	no	n/a	n/a
322.953125	n/a	82676	largeHSmallT	correct	incongruent	0.59766	no	H	T
323.5507812	n/a	82829	responseLargeH	correct	n/a	0.59766	no	n/a	n/a
324.6328125	n/a	83106	largeHSmallH	correct	congruent	0.40625	no	H	H
325.0390625	n/a	83210	responseLargeH	correct	n/a	0.40625	no	n/a	n/a
326.1132812	n/a	83485	largeHSmallT	correct	incongruent	0.51953	no	H	T
326.6328125	n/a	83618	responseLargeH	correct	n/a	0.51953	no	n/a	n/a
327.6992188	n/a	83891	largeTSmallH	correct	incongruent	0.45312	no	T	H
328.1523438	n/a	84007	responseLargeT	correct	n/a	0.45312	no	n/a	n/a
329.2304688	n/a	84283	largeHSmallT	correct	incongruent	0.50781	no	H	T
329.7382812	n/a	84413	responseLargeH	correct	n/a	0.50781	no	n/a	n/a
330.8046875	n/a	84686	largeHSmallH	correct	congruent	0.50781	no	H	H
331.3125	n/a	84816	responseLargeH	correct	n/a	0.50781	no	n/a	n/a
332.3789062	n/a	85089	largeTSmallH	correct	incongruent	0.45312	no	T	H
332.8320312	n/a	85205	responseLargeT	correct	n/a	0.45312	no	n/a	n/a
333.9101562	n/a	85481	largeTSmallH	correct	incongruent	0.51172	no	T	H
334.421875	n/a	85612	responseLargeT	correct	n/a	0.51172	no	n/a	n/a
335.4960938	n/a	85887	largeHSmallH	correct	congruent	0.44531	no	H	H
335.9414062	n/a	86001	responseLargeH	correct	n/a	0.44531	no	n/a	n/a
337.0195312	n/a	86277	largeHSmallH	correct	congruent	0.42578	no	H	H
337.4453125	n/a	86386	responseLargeH	correct	n/a	0.42578	no	n/a	n/a
338.5117188	n/a	86659	largeHSmallH	correct	congruent	0.43359	no	H	H
338.9453125	n/a	86770	responseLargeH	correct	n/a	0.43359	no	n/a	n/a
340.0039062	n/a	87041	largeTSmallT	correct	congruent	0.38672	no	T	T
340.390625	n/a	87140	responseLargeT	correct	n/a	0.38672	no	n/a	n/a
341.4570312	n/a	87413	largeTSmallH	correct	incongruent	0.49219	no	T	H
341.9492188	n/a	87539	responseLargeT	correct	n/a	0.49219	no	n/a	n/a
343.0195312	n/a	87813	largeTSmallH	correct	incongruent	0.44141	no	T	H
343.4609375	n/a	87926	responseLargeT	correct	n/a	0.44141	no	n/a	n/a
344.5234375	n/a	88198	largeTSmallH	correct	incongruent	0.42188	no	T	H
344.9453125	n/a	88306	responseLargeT	correct	n/a	0.42188	no	n/a	n/a
346.015625	n/a	88580	largeHSmallT	correct	incongruent	0.47266	no	H	T
346.4882812	n/a	88701	responseLargeH	correct	n/a	0.47266	no	n/a	n/a
347.5625	n/a	88976	largeHSmallT	correct	incongruent	0.44141	no	H	T
348.0039062	n/a	89089	responseLargeH	correct	n/a	0.44141	no	n/a	n/a
349.0703125	n/a	89362	largeHSmallH	error	congruent	0.37891	no	H	H
349.4492188	n/a	89459	responseLargeT	error	n/a	0.37891	no	n/a	n/a
350.5234375	n/a	89734	largeHSmallT	correct	incongruent	0.74219	no	H	T
351.265625	n/a	89924	responseLargeH	correct	n/a	0.74219	no	n/a	n/a
352.3359375	n/a	90198	largeTSmallT	correct	congruent	0.48047	no	T	T
352.8164062	n/a	90321	responseLargeT	correct	n/a	0.48047	no	n/a	n/a
353.8984375	n/a	90598	largeHSmallH	correct	congruent	0.46875	no	H	H
354.3671875	n/a	90718	responseLargeH	correct	n/a	0.46875	no	n/a	n/a
355.4296875	n/a	90990	largeHSmallH	correct	congruent	0.46094	no	H	H
355.890625	n/a	91108	responseLargeH	correct	n/a	0.46094	no	n/a	n/a
356.9648438	n/a	91383	largeHSmallH	correct	congruent	0.44141	no	H	H
357.40625	n/a	91496	responseLargeH	correct	n/a	0.44141	no	n/a	n/a
358.484375	n/a	91772	largeHSmallT	correct	incongruent	0.48828	no	H	T
358.9726562	n/a	91897	responseLargeH	correct	n/a	0.48828	no	n/a	n/a
360.0429688	n/a	92171	largeHSmallT	correct	incongruent	0.46094	no	H	T
360.5039062	n/a	92289	responseLargeH	correct	n/a	0.46094	no	n/a	n/a
367.9765625	n/a	94202	largeTSmallH	correct	incongruent	0.6875	no	T	H
368.6640625	n/a	94378	responseSmallH	correct	n/a	0.6875	no	n/a	n/a
369.7382812	n/a	94653	largeHSmallH	correct	congruent	0.52734	no	H	H
370.265625	n/a	94788	responseSmallH	correct	n/a	0.52734	no	n/a	n/a
371.3359375	n/a	95062	largeTSmallH	correct	incongruent	0.48047	no	T	H
371.8164062	n/a	95185	responseSmallH	correct	n/a	0.48047	no	n/a	n/a
372.8984375	n/a	95462	largeHSmallT	correct	incongruent	0.54297	no	H	T
373.4414062	n/a	95601	responseSmallT	correct	n/a	0.54297	no	n/a	n/a
374.5117188	n/a	95875	largeHSmallH	correct	congruent	0.49609	no	H	H
375.0078125	n/a	96002	responseSmallH	correct	n/a	0.49609	no	n/a	n/a
376.0703125	n/a	96274	largeTSmallT	correct	congruent	0.74609	no	T	T
376.8164062	n/a	96465	responseSmallT	correct	n/a	0.74609	no	n/a	n/a
377.9765625	n/a	96762	largeTSmallT	correct	congruent	0.50781	no	T	T
378.484375	n/a	96892	responseSmallT	correct	n/a	0.50781	no	n/a	n/a
379.5507812	n/a	97165	largeTSmallH	correct	incongruent	0.625	no	T	H
380.1757812	n/a	97325	responseSmallH	correct	n/a	0.625	no	n/a	n/a
381.2421875	n/a	97598	largeHSmallT	correct	incongruent	0.5	no	H	T
381.7421875	n/a	97726	responseSmallT	correct	n/a	0.5	no	n/a	n/a
382.8320312	n/a	98005	largeHSmallT	correct	incongruent	0.57031	no	H	T
383.4023438	n/a	98151	responseSmallT	correct	n/a	0.57031	no	n/a	n/a
384.46875	n/a	98424	largeHSmallH	correct	congruent	0.51562	no	H	H
384.984375	n/a	98556	responseSmallH	correct	n/a	0.51562	no	n/a	n/a
386.0546875	n/a	98830	largeTSmallT	correct	congruent	0.49219	no	T	T
386.546875	n/a	98956	responseSmallT	correct	n/a	0.49219	no	n/a	n/a
387.6171875	n/a	99230	largeTSmallT	correct	congruent	0.47266	no	T	T
388.0898438	n/a	99351	responseSmallT	correct	n/a	0.47266	no	n/a	n/a
389.1640625	n/a	99626	largeTSmallT	correct	congruent	0.46484	no	T	T
389.6289062	n/a	99745	responseSmallT	correct	n/a	0.46484	no	n/a	n/a
390.6953125	n/a	100018	largeHSmallH	correct	congruent	0.52344	no	H	H
391.21875	n/a	100152	responseSmallH	correct	n/a	0.52344	no	n/a	n/a
392.28125	n/a	100424	largeHSmallT	correct	incongruent	0.55078	no	H	T
392.8320312	n/a	100565	responseSmallT	correct	n/a	0.55078	no	n/a	n/a
393.9101562	n/a	100841	largeTSmallH	correct	incongruent	0.70312	no	T	H
394.6132812	n/a	101021	responseSmallH	correct	n/a	0.70312	no	n/a	n/a
395.6835938	n/a	101295	largeTSmallT	correct	congruent	0.53125	no	T	T
396.2148438	n/a	101431	responseSmallT	correct	n/a	0.53125	no	n/a	n/a
397.296875	n/a	101708	largeTSmallH	correct	incongruent	0.52734	no	T	H
397.8242188	n/a	101843	responseSmallH	correct	n/a	0.52734	no	n/a	n/a
398.8945312	n/a	102117	largeTSmallH	correct	incongruent	0.5625	no	T	H
399.4570312	n/a	102261	responseSmallH	correct	n/a	0.5625	no	n/a	n/a
400.5351562	n/a	102537	largeHSmallT	correct	incongruent	0.48438	no	H	T
401.0195312	n/a	102661	responseSmallT	correct	n/a	0.48438	no	n/a	n/a
402.0976562	n/a	102937	largeHSmallH	correct	congruent	0.41406	no	H	H
402.5117188	n/a	103043	responseSmallH	correct	n/a	0.41406	no	n/a	n/a
403.5742188	n/a	103315	largeTSmallT	correct	congruent	0.5	no	T	T
404.0742188	n/a	103443	responseSmallT	correct	n/a	0.5	no	n/a	n/a
405.1484375	n/a	103718	largeTSmallT	correct	congruent	0.50391	no	T	T
405.6523438	n/a	103847	responseSmallT	correct	n/a	0.50391	no	n/a	n/a
406.828125	n/a	104148	largeHSmallT	correct	incongruent	0.48438	no	H	T
407.3125	n/a	104272	responseSmallT	correct	n/a	0.48438	no	n/a	n/a
408.390625	n/a	104548	largeHSmallH	correct	congruent	0.46094	no	H	H
408.8515625	n/a	104666	responseSmallH	correct	n/a	0.46094	no	n/a	n/a
409.921875	n/a	104940	largeHSmallH	correct	congruent	0.51562	no	H	H
410.4375	n/a	105072	responseSmallH	correct	n/a	0.51562	no	n/a	n/a
411.4960938	n/a	105343	largeHSmallT	correct	incongruent	0.5	no	H	T
411.9960938	n/a	105471	responseSmallT	correct	n/a	0.5	no	n/a	n/a
413.0703125	n/a	105746	largeTSmallH	correct	incongruent	0.43359	no	T	H
413.5039062	n/a	105857	responseSmallH	correct	n/a	0.43359	no	n/a	n/a
414.5742188	n/a	106131	largeTSmallT	correct	congruent	1.0742	no	T	T
415.6484375	n/a	106406	responseSmallT	correct	n/a	1.0742	no	n/a	n/a
416.828125	n/a	106708	largeTSmallT	correct	congruent	0.60547	no	T	T
417.4335938	n/a	106863	responseSmallT	correct	n/a	0.60547	no	n/a	n/a
418.5078125	n/a	107138	largeTSmallT	correct	congruent	0.46875	no	T	T
418.9765625	n/a	107258	responseSmallT	correct	n/a	0.46875	no	n/a	n/a
420.0546875	n/a	107534	largeHSmallT	error	incongruent	0.48438	no	H	T
420.5390625	n/a	107658	responseSmallH	error	n/a	0.48438	no	n/a	n/a
421.6171875	n/a	107934	largeTSmallT	correct	congruent	0.62109	no	T	T
422.2382812	n/a	108093	responseSmallT	correct	n/a	0.62109	no	n/a	n/a
423.3085938	n/a	108367	largeTSmallT	correct	congruent	0.44531	no	T	T
423.7539062	n/a	108481	responseSmallT	correct	n/a	0.44531	no	n/a	n/a
424.828125	n/a	108756	largeHSmallT	correct	incongruent	0.5	no	H	T
425.328125	n/a	108884	responseSmallT	correct	n/a	0.5	no	n/a	n/a
426.4023438	n/a	109159	largeTSmallT	correct	congruent	0.46094	no	T	T
426.8632812	n/a	109277	responseSmallT	correct	n/a	0.46094	no	n/a	n/a
427.921875	n/a	109548	largeHSmallH	correct	congruent	0.5	no	H	H
428.421875	n/a	109676	responseSmallH	correct	n/a	0.5	no	n/a	n/a
429.4960938	n/a	109951	largeHSmallH	correct	congruent	0.45703	no	H	H
429.953125	n/a	110068	responseSmallH	correct	n/a	0.45703	no	n/a	n/a
431.015625	n/a	110340	largeHSmallH	correct	congruent	0.46484	no	H	H
431.4804688	n/a	110459	responseSmallH	correct	n/a	0.46484	no	n/a	n/a
432.546875	n/a	110732	largeHSmallH	correct	congruent	0.48438	no	H	H
433.03125	n/a	110856	responseSmallH	correct	n/a	0.48438	no	n/a	n/a
434.109375	n/a	111132	largeHSmallH	correct	congruent	0.48828	no	H	H
434.5976562	n/a	111257	responseSmallH	correct	n/a	0.48828	no	n/a	n/a
435.6679688	n/a	111531	largeHSmallH	correct	congruent	0.47266	no	H	H
436.140625	n/a	111652	responseSmallH	correct	n/a	0.47266	no	n/a	n/a
437.2148438	n/a	111927	largeHSmallT	correct	incongruent	0.57031	no	H	T
437.7851562	n/a	112073	responseSmallT	correct	n/a	0.57031	no	n/a	n/a
438.8554688	n/a	112347	largeHSmallT	correct	incongruent	0.51953	no	H	T
439.375	n/a	112480	responseSmallT	correct	n/a	0.51953	no	n/a	n/a
440.4414062	n/a	112753	largeTSmallH	correct	incongruent	0.51953	no	T	H
440.9609375	n/a	112886	responseSmallH	correct	n/a	0.51953	no	n/a	n/a
442.0273438	n/a	113159	largeHSmallH	correct	congruent	0.48828	no	H	H
442.515625	n/a	113284	responseSmallH	correct	n/a	0.48828	no	n/a	n/a
443.5898438	n/a	113559	largeHSmallT	correct	incongruent	0.46875	no	H	T
444.0585938	n/a	113679	responseSmallT	correct	n/a	0.46875	no	n/a	n/a
445.1210938	n/a	113951	largeHSmallT	correct	incongruent	0.51172	no	H	T
445.6328125	n/a	114082	responseSmallT	correct	n/a	0.51172	no	n/a	n/a
446.8398438	n/a	114391	largeHSmallH	correct	congruent	0.46875	no	H	H
447.3085938	n/a	114511	responseSmallH	correct	n/a	0.46875	no	n/a	n/a
448.375	n/a	114784	largeHSmallH	correct	congruent	0.53516	no	H	H
448.9101562	n/a	114921	responseSmallH	correct	n/a	0.53516	no	n/a	n/a
449.9882812	n/a	115197	largeTSmallT	correct	congruent	0.46484	no	T	T
450.453125	n/a	115316	responseSmallT	correct	n/a	0.46484	no	n/a	n/a
451.5351562	n/a	115593	largeTSmallH	correct	incongruent	0.55469	no	T	H
452.0898438	n/a	115735	responseSmallH	correct	n/a	0.55469	no	n/a	n/a
453.1601562	n/a	116009	largeHSmallT	correct	incongruent	0.48438	no	H	T
453.6445312	n/a	116133	responseSmallT	correct	n/a	0.48438	no	n/a	n/a
454.828125	n/a	116436	largeHSmallT	correct	incongruent	0.54688	no	H	T
455.375	n/a	116576	responseSmallT	correct	n/a	0.54688	no	n/a	n/a
456.4414062	n/a	116849	largeHSmallH	correct	congruent	0.48047	no	H	H
456.921875	n/a	116972	responseSmallH	correct	n/a	0.48047	no	n/a	n/a
457.9882812	n/a	117245	largeHSmallT	correct	incongruent	0.39062	no	H	T
458.3789062	n/a	117345	responseSmallT	correct	n/a	0.39062	no	n/a	n/a
459.453125	n/a	117620	largeTSmallH	correct	incongruent	0.47656	no	T	H
459.9296875	n/a	117742	responseSmallH	correct	n/a	0.47656	no	n/a	n/a
461	n/a	118016	largeTSmallH	correct	incongruent	0.69922	no	T	H
461.6992188	n/a	118195	responseSmallH	correct	n/a	0.69922	no	n/a	n/a
462.7617188	n/a	118467	largeTSmallT	correct	congruent	0.53906	no	T	T
463.3007812	n/a	118605	responseSmallT	correct	n/a	0.53906	no	n/a	n/a
464.375	n/a	118880	largeHSmallT	correct	incongruent	0.46094	no	H	T
464.8359375	n/a	118998	responseSmallT	correct	n/a	0.46094	no	n/a	n/a
465.90625	n/a	119272	largeTSmallH	correct	incongruent	0.48047	no	T	H
466.3867188	n/a	119395	responseSmallH	correct	n/a	0.48047	no	n/a	n/a
467.453125	n/a	119668	largeHSmallT	correct	incongruent	0.45703	no	H	T
467.9101562	n/a	119785	responseSmallT	correct	n/a	0.45703	no	n/a	n/a
468.9726562	n/a	120057	largeTSmallH	correct	incongruent	0.46094	no	T	H
469.4335938	n/a	120175	responseSmallH	correct	n/a	0.46094	no	n/a	n/a
470.4960938	n/a	120447	largeTSmallT	correct	congruent	0.41016	no	T	T
470.90625	n/a	120552	responseSmallT	correct	n/a	0.41016	no	n/a	n/a
471.9882812	n/a	120829	largeTSmallH	correct	incongruent	0.45312	no	T	H
472.4414062	n/a	120945	responseSmallH	correct	n/a	0.45312	no	n/a	n/a
473.5078125	n/a	121218	largeHSmallT	correct	incongruent	0.48438	no	H	T
473.9921875	n/a	121342	responseSmallT	correct	n/a	0.48438	no	n/a	n/a
475.0546875	n/a	121614	largeHSmallH	correct	congruent	0.42969	no	H	H
475.484375	n/a	121724	responseSmallH	correct	n/a	0.42969	no	n/a	n/a
476.5625	n/a	122000	largeHSmallT	correct	incongruent	0.52734	no	H	T
477.0898438	n/a	122135	responseSmallT	correct	n/a	0.52734	no	n/a	n/a
478.1601562	n/a	122409	largeHSmallH	correct	congruent	0.41797	no	H	H
478.578125	n/a	122516	responseSmallH	correct	n/a	0.41797	no	n/a	n/a
479.640625	n/a	122788	largeTSmallH	correct	incongruent	0.53125	no	T	H
480.171875	n/a	122924	responseSmallH	correct	n/a	0.53125	no	n/a	n/a
481.2539062	n/a	123201	largeHSmallH	correct	congruent	0.57031	no	H	H
481.8242188	n/a	123347	responseSmallH	correct	n/a	0.57031	no	n/a	n/a
482.8789062	n/a	123617	largeTSmallT	correct	congruent	0.52734	no	T	T
483.40625	n/a	123752	responseSmallT	correct	n/a	0.52734	no	n/a	n/a
484.4804688	n/a	124027	largeHSmallT	correct	incongruent	0.46094	no	H	T
484.9414062	n/a	124145	responseSmallT	correct	n/a	0.46094	no	n/a	n/a
486.015625	n/a	124420	largeTSmallH	correct	incongruent	0.44922	no	T	H
486.4648438	n/a	124535	responseSmallH	correct	n/a	0.44922	no	n/a	n/a
487.5351562	n/a	124809	largeHSmallT	correct	incongruent	0.44922	no	H	T
487.984375	n/a	124924	responseSmallT	correct	n/a	0.44922	no	n/a	n/a
489.0546875	n/a	125198	largeHSmallH	correct	congruent	0.41797	no	H	H
489.4726562	n/a	125305	responseSmallH	correct	n/a	0.41797	no	n/a	n/a
490.546875	n/a	125580	largeTSmallT	correct	congruent	0.41016	no	T	T
490.9570312	n/a	125685	responseSmallT	correct	n/a	0.41016	no	n/a	n/a
492.0273438	n/a	125959	largeTSmallH	correct	incongruent	0.40625	no	T	H
492.4335938	n/a	126063	responseSmallH	correct	n/a	0.40625	no	n/a	n/a
493.5078125	n/a	126338	largeTSmallH	correct	incongruent	0.53516	no	T	H
494.0429688	n/a	126475	responseSmallH	correct	n/a	0.53516	no	n/a	n/a
495.1210938	n/a	126751	largeTSmallH	correct	incongruent	0.46094	no	T	H
495.5820312	n/a	126869	responseSmallH	correct	n/a	0.46094	no	n/a	n/a
496.6523438	n/a	127143	largeHSmallT	correct	incongruent	0.61328	no	H	T
497.265625	n/a	127300	responseSmallT	correct	n/a	0.61328	no	n/a	n/a
498.3320312	n/a	127573	largeTSmallT	correct	congruent	0.41016	no	T	T
498.7421875	n/a	127678	responseSmallT	correct	n/a	0.41016	no	n/a	n/a
499.8242188	n/a	127955	largeTSmallT	correct	congruent	0.42969	no	T	T
500.2539062	n/a	128065	responseSmallT	correct	n/a	0.42969	no	n/a	n/a
501.3320312	n/a	128341	largeTSmallH	correct	incongruent	0.4375	no	T	H
501.7695312	n/a	128453	responseSmallH	correct	n/a	0.4375	no	n/a	n/a
502.8398438	n/a	128727	largeTSmallT	correct	congruent	0.48828	no	T	T
503.328125	n/a	128852	responseSmallT	correct	n/a	0.48828	no	n/a	n/a
504.3984375	n/a	129126	largeTSmallH	correct	incongruent	0.37891	no	T	H
504.7773438	n/a	129223	responseSmallH	correct	n/a	0.37891	no	n/a	n/a
505.8515625	n/a	129498	largeTSmallT	correct	congruent	0.48438	no	T	T
506.3359375	n/a	129622	responseSmallT	correct	n/a	0.48438	no	n/a	n/a
507.4140625	n/a	129898	largeTSmallT	correct	congruent	0.4375	no	T	T
507.8515625	n/a	130010	responseSmallT	correct	n/a	0.4375	no	n/a	n/a
508.96875	n/a	130296	largeTSmallH	correct	incongruent	0.59766	no	T	H
509.5664062	n/a	130449	responseSmallH	correct	n/a	0.59766	no	n/a	n/a
510.640625	n/a	130724	largeTSmallH	correct	incongruent	0.42969	no	T	H
511.0703125	n/a	130834	responseSmallH	correct	n/a	0.42969	no	n/a	n/a
512.1328125	n/a	131106	largeTSmallH	correct	incongruent	0.51953	no	T	H
512.6523438	n/a	131239	responseSmallH	correct	n/a	0.51953	no	n/a	n/a
513.734375	n/a	131516	largeTSmallT	correct	congruent	0.42969	no	T	T
514.1640625	n/a	131626	responseSmallT	correct	n/a	0.42969	no	n/a	n/a
515.2382812	n/a	131901	largeTSmallH	correct	incongruent	0.38672	no	T	H
515.625	n/a	132000	responseSmallH	correct	n/a	0.38672	no	n/a	n/a
516.6914062	n/a	132273	largeTSmallH	correct	incongruent	0.51562	no	T	H
517.2070312	n/a	132405	responseSmallH	correct	n/a	0.51562	no	n/a	n/a
518.265625	n/a	132676	largeHSmallH	error	congruent	0.46875	no	H	H
518.734375	n/a	132796	responseSmallT	error	n/a	0.46875	no	n/a	n/a
519.8007812	n/a	133069	largeHSmallH	correct	congruent	0.53516	no	H	H
520.3359375	n/a	133206	responseSmallH	correct	n/a	0.53516	no	n/a	n/a
521.3984375	n/a	133478	largeTSmallT	correct	congruent	0.44922	no	T	T
521.8476562	n/a	133593	responseSmallT	correct	n/a	0.44922	no	n/a	n/a
522.9179688	n/a	133867	largeHSmallT	correct	incongruent	0.48438	no	H	T
523.4023438	n/a	133991	responseSmallT	correct	n/a	0.48438	no	n/a	n/a
524.4804688	n/a	134267	largeTSmallH	correct	incongruent	0.55078	no	T	H
525.03125	n/a	134408	responseSmallH	correct	n/a	0.55078	no	n/a	n/a
526.1054688	n/a	134683	largeTSmallT	correct	congruent	0.54688	no	T	T
526.6523438	n/a	134823	responseSmallT	correct	n/a	0.54688	no	n/a	n/a
527.828125	n/a	135124	largeHSmallT	error	incongruent	0.40625	no	H	T
528.234375	n/a	135228	responseSmallH	error	n/a	0.40625	no	n/a	n/a
529.2929688	n/a	135499	largeHSmallT	correct	incongruent	0.51172	no	H	T
529.8046875	n/a	135630	responseSmallT	correct	n/a	0.51172	no	n/a	n/a
530.8789062	n/a	135905	largeTSmallT	correct	congruent	0.55859	no	T	T
531.4375	n/a	136048	responseSmallT	correct	n/a	0.55859	no	n/a	n/a
532.5195312	n/a	136325	largeHSmallH	correct	congruent	0.48828	no	H	H
533.0078125	n/a	136450	responseSmallH	correct	n/a	0.48828	no	n/a	n/a
534.078125	n/a	136724	largeHSmallH	correct	congruent	0.48047	no	H	H
534.5585938	n/a	136847	responseSmallH	correct	n/a	0.48047	no	n/a	n/a
535.640625	n/a	137124	largeTSmallH	correct	incongruent	0.64062	no	T	H
536.28125	n/a	137288	responseSmallH	correct	n/a	0.64062	no	n/a	n/a
537.3476562	n/a	137561	largeTSmallH	correct	incongruent	0.44531	no	T	H
537.7929688	n/a	137675	responseSmallH	correct	n/a	0.44531	no	n/a	n/a
538.8671875	n/a	137950	largeTSmallH	correct	incongruent	0.41797	no	T	H
539.2851562	n/a	138057	responseSmallH	correct	n/a	0.41797	no	n/a	n/a
540.359375	n/a	138332	largeTSmallT	correct	congruent	0.53906	no	T	T
540.8984375	n/a	138470	responseSmallT	correct	n/a	0.53906	no	n/a	n/a
541.9726562	n/a	138745	largeTSmallT	correct	congruent	0.46484	no	T	T
542.4375	n/a	138864	responseSmallT	correct	n/a	0.46484	no	n/a	n/a
543.5039062	n/a	139137	largeHSmallH	correct	congruent	0.45703	no	H	H
543.9609375	n/a	139254	responseSmallH	correct	n/a	0.45703	no	n/a	n/a
545.0507812	n/a	139533	largeHSmallT	correct	incongruent	0.40234	no	H	T
545.453125	n/a	139636	responseSmallT	correct	n/a	0.40234	no	n/a	n/a
546.5195312	n/a	139909	largeHSmallT	correct	incongruent	0.53125	no	H	T
547.0507812	n/a	140045	responseSmallT	correct	n/a	0.53125	no	n/a	n/a
548.1328125	n/a	140322	largeHSmallH	correct	congruent	0.46484	no	H	H
548.5976562	n/a	140441	responseSmallH	correct	n/a	0.46484	no	n/a	n/a
549.6796875	n/a	140718	largeTSmallH	error	incongruent	0.43359	no	T	H
550.1132812	n/a	140829	responseSmallT	error	n/a	0.43359	no	n/a	n/a
551.1875	n/a	141104	largeTSmallT	correct	congruent	0.48438	no	T	T
551.671875	n/a	141228	responseSmallT	correct	n/a	0.48438	no	n/a	n/a
552.7460938	n/a	141503	largeHSmallH	correct	congruent	0.52734	no	H	H
553.2734375	n/a	141638	responseSmallH	correct	n/a	0.52734	no	n/a	n/a
554.359375	n/a	141916	largeTSmallT	correct	congruent	0.48828	no	T	T
554.8476562	n/a	142041	responseSmallT	correct	n/a	0.48828	no	n/a	n/a
555.90625	n/a	142312	largeTSmallH	correct	incongruent	0.49219	no	T	H
556.3984375	n/a	142438	responseSmallH	correct	n/a	0.49219	no	n/a	n/a
557.4804688	n/a	142715	largeTSmallH	correct	incongruent	0.50781	no	T	H
557.9882812	n/a	142845	responseSmallH	correct	n/a	0.50781	no	n/a	n/a
559.0664062	n/a	143121	largeTSmallH	correct	incongruent	0.89844	no	T	H
559.9648438	n/a	143351	responseSmallH	correct	n/a	0.89844	no	n/a	n/a
561.0234375	n/a	143622	largeTSmallT	correct	congruent	0.44922	no	T	T
561.4726562	n/a	143737	responseSmallT	correct	n/a	0.44922	no	n/a	n/a
562.546875	n/a	144012	largeHSmallT	correct	incongruent	0.52344	no	H	T
563.0703125	n/a	144146	responseSmallT	correct	n/a	0.52344	no	n/a	n/a
564.1328125	n/a	144418	largeTSmallT	correct	congruent	0.58203	no	T	T
564.7148438	n/a	144567	responseSmallT	correct	n/a	0.58203	no	n/a	n/a
565.8203125	n/a	144850	largeHSmallH	correct	congruent	0.39844	no	H	H
566.21875	n/a	144952	responseSmallH	correct	n/a	0.39844	no	n/a	n/a
567.2773438	n/a	145223	largeTSmallH	correct	incongruent	0.54688	no	T	H
567.8242188	n/a	145363	responseSmallH	correct	n/a	0.54688	no	n/a	n/a
568.890625	n/a	145636	largeHSmallT	correct	incongruent	0.46875	no	H	T
569.359375	n/a	145756	responseSmallT	correct	n/a	0.46875	no	n/a	n/a
570.4375	n/a	146032	largeTSmallT	correct	congruent	0.51953	no	T	T
570.9570312	n/a	146165	responseSmallT	correct	n/a	0.51953	no	n/a	n/a
572.0234375	n/a	146438	largeHSmallT	correct	incongruent	0.58984	no	H	T
572.6132812	n/a	146589	responseSmallT	correct	n/a	0.58984	no	n/a	n/a
573.6796875	n/a	146862	largeHSmallT	error	incongruent	0.48047	no	H	T
574.1601562	n/a	146985	responseSmallH	error	n/a	0.48047	no	n/a	n/a
575.2265625	n/a	147258	largeHSmallT	correct	incongruent	0.43359	no	H	T
575.6601562	n/a	147369	responseSmallT	correct	n/a	0.43359	no	n/a	n/a
576.71875	n/a	147640	largeTSmallT	correct	congruent	0.46094	no	T	T
577.1796875	n/a	147758	responseSmallT	correct	n/a	0.46094	no	n/a	n/a
578.25	n/a	148032	largeHSmallH	correct	congruent	0.5	no	H	H
578.75	n/a	148160	responseSmallH	correct	n/a	0.5	no	n/a	n/a
579.8242188	n/a	148435	largeTSmallH	correct	incongruent	0.50391	no	T	H
580.328125	n/a	148564	responseSmallH	correct	n/a	0.50391	no	n/a	n/a
581.3984375	n/a	148838	largeTSmallT	correct	congruent	0.46875	no	T	T
581.8671875	n/a	148958	responseSmallT	correct	n/a	0.46875	no	n/a	n/a
582.9296875	n/a	149230	largeTSmallT	correct	congruent	0.44141	no	T	T
583.3710938	n/a	149343	responseSmallT	correct	n/a	0.44141	no	n/a	n/a
584.453125	n/a	149620	largeHSmallT	correct	incongruent	0.53125	no	H	T
584.984375	n/a	149756	responseSmallT	correct	n/a	0.53125	no	n/a	n/a
586.0507812	n/a	150029	largeHSmallH	correct	congruent	0.53516	no	H	H
586.5859375	n/a	150166	responseSmallH	correct	n/a	0.53516	no	n/a	n/a
587.6640625	n/a	150442	largeTSmallH	correct	incongruent	0.67578	no	T	H
588.3398438	n/a	150615	responseSmallH	correct	n/a	0.67578	no	n/a	n/a
589.4101562	n/a	150889	largeHSmallH	correct	congruent	0.5	no	H	H
589.9101562	n/a	151017	responseSmallH	correct	n/a	0.5	no	n/a	n/a
590.984375	n/a	151292	largeTSmallH	correct	incongruent	0.4375	no	T	H
591.421875	n/a	151404	responseSmallH	correct	n/a	0.4375	no	n/a	n/a
592.4921875	n/a	151678	largeTSmallH	correct	incongruent	0.48047	no	T	H
592.9726562	n/a	151801	responseSmallH	correct	n/a	0.48047	no	n/a	n/a
594.0390625	n/a	152074	largeTSmallH	correct	incongruent	0.47266	no	T	H
594.5117188	n/a	152195	responseSmallH	correct	n/a	0.47266	no	n/a	n/a
595.5859375	n/a	152470	largeHSmallH	correct	congruent	0.46094	no	H	H
596.046875	n/a	152588	responseSmallH	correct	n/a	0.46094	no	n/a	n/a
597.1171875	n/a	152862	largeTSmallH	correct	incongruent	0.45703	no	T	H
597.5742188	n/a	152979	responseSmallH	correct	n/a	0.45703	no	n/a	n/a
598.6367188	n/a	153251	largeTSmallT	correct	congruent	0.65625	no	T	T
599.2929688	n/a	153419	responseSmallT	correct	n/a	0.65625	no	n/a	n/a
600.3710938	n/a	153695	largeHSmallH	correct	congruent	0.44922	no	H	H
600.8203125	n/a	153810	responseSmallH	correct	n/a	0.44922	no	n/a	n/a
601.890625	n/a	154084	largeHSmallH	correct	congruent	0.49609	no	H	H
602.3867188	n/a	154211	responseSmallH	correct	n/a	0.49609	no	n/a	n/a
603.4648438	n/a	154487	largeTSmallT	correct	congruent	0.57031	no	T	T
604.0351562	n/a	154633	responseSmallT	correct	n/a	0.57031	no	n/a	n/a
605.1054688	n/a	154907	largeHSmallT	correct	incongruent	0.63281	no	H	T
605.7382812	n/a	155069	responseSmallT	correct	n/a	0.63281	no	n/a	n/a
606.8125	n/a	155344	largeTSmallH	correct	incongruent	0.62891	no	T	H
607.4414062	n/a	155505	responseSmallH	correct	n/a	0.62891	no	n/a	n/a
608.515625	n/a	155780	largeHSmallT	correct	incongruent	0.51562	no	H	T
609.03125	n/a	155912	responseSmallT	correct	n/a	0.51562	no	n/a	n/a
610.1054688	n/a	156187	largeTSmallT	correct	congruent	0.52734	no	T	T
610.6328125	n/a	156322	responseSmallT	correct	n/a	0.52734	no	n/a	n/a
611.8085938	n/a	156623	largeTSmallT	correct	congruent	0.48438	no	T	T
612.2929688	n/a	156747	responseSmallT	correct	n/a	0.48438	no	n/a	n/a
613.3710938	n/a	157023	largeHSmallH	correct	congruent	0.50781	no	H	H
613.8789062	n/a	157153	responseSmallH	correct	n/a	0.50781	no	n/a	n/a
614.9453125	n/a	157426	largeTSmallH	correct	incongruent	0.42969	no	T	H
615.375	n/a	157536	responseSmallH	correct	n/a	0.42969	no	n/a	n/a
616.4375	n/a	157808	largeTSmallT	correct	congruent	0.45312	no	T	T
616.890625	n/a	157924	responseSmallT	correct	n/a	0.45312	no	n/a	n/a
617.9570312	n/a	158197	largeHSmallH	correct	congruent	0.49609	no	H	H
618.453125	n/a	158324	responseSmallH	correct	n/a	0.49609	no	n/a	n/a
619.53125	n/a	158600	largeHSmallH	correct	congruent	0.44141	no	H	H
619.9726562	n/a	158713	responseSmallH	correct	n/a	0.44141	no	n/a	n/a
621.0390625	n/a	158986	largeHSmallT	correct	incongruent	0.46484	no	H	T
621.5039062	n/a	159105	responseSmallT	correct	n/a	0.46484	no	n/a	n/a
622.5703125	n/a	159378	largeHSmallT	error	incongruent	0.45703	no	H	T
623.0273438	n/a	159495	responseSmallH	error	n/a	0.45703	no	n/a	n/a
624.1054688	n/a	159771	largeHSmallH	correct	congruent	0.50391	no	H	H
624.609375	n/a	159900	responseSmallH	correct	n/a	0.50391	no	n/a	n/a
625.8242188	n/a	160211	largeHSmallT	correct	incongruent	0.53906	no	H	T
626.3632812	n/a	160349	responseSmallT	correct	n/a	0.53906	no	n/a	n/a
627.4375	n/a	160624	largeTSmallH	correct	incongruent	0.46094	no	T	H
627.8984375	n/a	160742	responseSmallH	correct	n/a	0.46094	no	n/a	n/a
628.96875	n/a	161016	largeHSmallH	correct	congruent	0.57812	no	H	H
629.546875	n/a	161164	responseSmallH	correct	n/a	0.57812	no	n/a	n/a
630.625	n/a	161440	largeHSmallT	correct	incongruent	0.54297	no	H	T
631.1679688	n/a	161579	responseSmallT	correct	n/a	0.54297	no	n/a	n/a
632.25	n/a	161856	largeHSmallT	correct	incongruent	0.4375	no	H	T
632.6875	n/a	161968	responseSmallT	correct	n/a	0.4375	no	n/a	n/a
633.7578125	n/a	162242	largeTSmallH	correct	incongruent	0.44531	no	T	H
634.203125	n/a	162356	responseSmallH	correct	n/a	0.44531	no	n/a	n/a
635.2773438	n/a	162631	largeTSmallT	correct	congruent	0.41016	no	T	T
635.6875	n/a	162736	responseSmallT	correct	n/a	0.41016	no	n/a	n/a
636.7578125	n/a	163010	largeTSmallT	correct	congruent	0.49609	no	T	T
637.2539062	n/a	163137	responseSmallT	correct	n/a	0.49609	no	n/a	n/a
638.328125	n/a	163412	largeTSmallT	correct	congruent	0.48828	no	T	T
638.8164062	n/a	163537	responseSmallT	correct	n/a	0.48828	no	n/a	n/a
639.890625	n/a	163812	largeHSmallT	error	incongruent	0.49609	no	H	T
640.3867188	n/a	163939	responseSmallH	error	n/a	0.49609	no	n/a	n/a
641.4765625	n/a	164218	largeHSmallH	correct	congruent	0.58594	no	H	H
642.0625	n/a	164368	responseSmallH	correct	n/a	0.58594	no	n/a	n/a
643.1289062	n/a	164641	largeHSmallH	correct	congruent	0.46875	no	H	H
643.5976562	n/a	164761	responseSmallH	correct	n/a	0.46875	no	n/a	n/a
644.6640625	n/a	165034	largeHSmallT	correct	incongruent	0.5	no	H	T
645.1640625	n/a	165162	responseSmallT	correct	n/a	0.5	no	n/a	n/a
646.2382812	n/a	165437	largeTSmallH	correct	incongruent	0.5625	no	T	H
646.8007812	n/a	165581	responseSmallH	correct	n/a	0.5625	no	n/a	n/a
647.875	n/a	165856	largeHSmallH	correct	congruent	0.49219	no	H	H
648.3671875	n/a	165982	responseSmallH	correct	n/a	0.49219	no	n/a	n/a
649.4375	n/a	166256	largeTSmallH	correct	incongruent	0.49609	no	T	H
649.9335938	n/a	166383	responseSmallH	correct	n/a	0.49609	no	n/a	n/a
651.0078125	n/a	166658	largeHSmallH	correct	congruent	0.51953	no	H	H
651.5273438	n/a	166791	responseSmallH	correct	n/a	0.51953	no	n/a	n/a
652.5976562	n/a	167065	largeHSmallH	correct	congruent	0.47656	no	H	H
653.0742188	n/a	167187	responseSmallH	correct	n/a	0.47656	no	n/a	n/a
654.1445312	n/a	167461	largeTSmallT	correct	congruent	0.52344	no	T	T
654.6679688	n/a	167595	responseSmallT	correct	n/a	0.52344	no	n/a	n/a
655.8164062	n/a	167889	largeHSmallT	correct	incongruent	0.59766	no	H	T
656.4140625	n/a	168042	responseSmallT	correct	n/a	0.59766	no	n/a	n/a
657.4882812	n/a	168317	largeHSmallT	correct	incongruent	0.42969	no	H	T
657.9179688	n/a	168427	responseSmallT	correct	n/a	0.42969	no	n/a	n/a
658.984375	n/a	168700	largeHSmallT	correct	incongruent	0.44141	no	H	T
659.4257812	n/a	168813	responseSmallT	correct	n/a	0.44141	no	n/a	n/a
660.5039062	n/a	169089	largeTSmallT	correct	congruent	0.42188	no	T	T
660.9257812	n/a	169197	responseSmallT	correct	n/a	0.42188	no	n/a	n/a
661.9960938	n/a	169471	largeTSmallT	correct	congruent	0.41797	no	T	T
662.4140625	n/a	169578	responseSmallT	correct	n/a	0.41797	no	n/a	n/a
663.4882812	n/a	169853	largeHSmallT	correct	incongruent	0.48047	no	H	T
663.96875	n/a	169976	responseSmallT	correct	n/a	0.48047	no	n/a	n/a
665.0351562	n/a	170249	largeHSmallH	correct	congruent	0.55469	no	H	H
665.5898438	n/a	170391	responseSmallH	correct	n/a	0.55469	no	n/a	n/a
666.6640625	n/a	170666	largeHSmallH	correct	congruent	0.51562	no	H	H
667.1796875	n/a	170798	responseSmallH	correct	n/a	0.51562	no	n/a	n/a
668.25	n/a	171072	largeHSmallT	error	incongruent	0.44922	no	H	T
668.6992188	n/a	171187	responseSmallH	error	n/a	0.44922	no	n/a	n/a
669.78125	n/a	171464	largeTSmallH	correct	incongruent	0.52734	no	T	H
670.3085938	n/a	171599	responseSmallH	correct	n/a	0.52734	no	n/a	n/a
671.3828125	n/a	171874	largeHSmallH	correct	congruent	0.53516	no	H	H
671.9179688	n/a	172011	responseSmallH	correct	n/a	0.53516	no	n/a	n/a
672.9960938	n/a	172287	largeHSmallT	correct	incongruent	0.43359	no	H	T
673.4296875	n/a	172398	responseSmallT	correct	n/a	0.43359	no	n/a	n/a
674.5039062	n/a	172673	largeTSmallH	correct	incongruent	0.51953	no	T	H
675.0234375	n/a	172806	responseSmallH	correct	n/a	0.51953	no	n/a	n/a
676.0898438	n/a	173079	largeHSmallH	correct	congruent	0.46875	no	H	H
676.5585938	n/a	173199	responseSmallH	correct	n/a	0.46875	no	n/a	n/a
677.6210938	n/a	173471	largeHSmallH	correct	congruent	0.61328	no	H	H
678.234375	n/a	173628	responseSmallH	correct	n/a	0.61328	no	n/a	n/a
679.3164062	n/a	173905	largeTSmallT	correct	congruent	0.57812	no	T	T
679.8945312	n/a	174053	responseSmallT	correct	n/a	0.57812	no	n/a	n/a
680.96875	n/a	174328	largeHSmallT	correct	incongruent	0.50391	no	H	T
681.4726562	n/a	174457	responseSmallT	correct	n/a	0.50391	no	n/a	n/a
682.5429688	n/a	174731	largeTSmallH	correct	incongruent	0.53125	no	T	H
683.0742188	n/a	174867	responseSmallH	correct	n/a	0.53125	no	n/a	n/a
691.9140625	n/a	177130	largeTSmallH	correct	incongruent	0.95312	no	T	H
692.8671875	n/a	177374	responseLargeT	correct	n/a	0.95312	no	n/a	n/a
693.9414062	n/a	177649	largeHSmallH	correct	congruent	0.52344	no	H	H
694.4648438	n/a	177783	responseLargeH	correct	n/a	0.52344	no	n/a	n/a
695.5273438	n/a	178055	largeHSmallT	error	incongruent	0.67969	no	H	T
696.2070312	n/a	178229	responseLargeT	error	n/a	0.67969	no	n/a	n/a
697.2734375	n/a	178502	largeTSmallH	correct	incongruent	0.67578	no	T	H
697.9492188	n/a	178675	responseLargeT	correct	n/a	0.67578	no	n/a	n/a
699.0078125	n/a	178946	largeTSmallT	correct	congruent	0.48438	no	T	T
699.4921875	n/a	179070	responseLargeT	correct	n/a	0.48438	no	n/a	n/a
700.5546875	n/a	179342	largeTSmallH	correct	incongruent	0.56641	no	T	H
701.1210938	n/a	179487	responseLargeT	correct	n/a	0.56641	no	n/a	n/a
702.1953125	n/a	179762	largeHSmallT	correct	incongruent	0.62109	no	H	T
702.8164062	n/a	179921	responseLargeH	correct	n/a	0.62109	no	n/a	n/a
703.875	n/a	180192	largeTSmallT	correct	congruent	0.38281	no	T	T
704.2578125	n/a	180290	responseLargeT	correct	n/a	0.38281	no	n/a	n/a
705.328125	n/a	180564	largeTSmallT	correct	congruent	0.5625	no	T	T
705.890625	n/a	180708	responseLargeT	correct	n/a	0.5625	no	n/a	n/a
706.96875	n/a	180984	largeTSmallT	n/a	congruent	n/a	n/a	T	T
708.4765625	n/a	181370	largeTSmallT	correct	congruent	0.38672	no	T	T
708.8632812	n/a	181469	responseLargeT	correct	n/a	0.38672	no	n/a	n/a
709.9296875	n/a	181742	largeTSmallT	correct	congruent	0.33984	no	T	T
710.2695312	n/a	181829	responseLargeT	correct	n/a	0.33984	no	n/a	n/a
711.3398438	n/a	182103	largeHSmallT	correct	incongruent	0.44922	no	H	T
711.7890625	n/a	182218	responseLargeH	correct	n/a	0.44922	no	n/a	n/a
712.8632812	n/a	182493	largeHSmallH	correct	congruent	0.51172	no	H	H
713.375	n/a	182624	responseLargeH	correct	n/a	0.51172	no	n/a	n/a
714.4335938	n/a	182895	largeHSmallT	error	incongruent	0.55469	no	H	T
714.9882812	n/a	183037	responseLargeT	error	n/a	0.55469	no	n/a	n/a
716.0625	n/a	183312	largeTSmallH	correct	incongruent	0.46094	no	T	H
716.5234375	n/a	183430	responseLargeT	correct	n/a	0.46094	no	n/a	n/a
717.59375	n/a	183704	largeTSmallH	correct	incongruent	0.41016	no	T	H
718.0039062	n/a	183809	responseLargeT	correct	n/a	0.41016	no	n/a	n/a
719.0742188	n/a	184083	largeTSmallT	correct	congruent	0.42578	no	T	T
719.5	n/a	184192	responseLargeT	correct	n/a	0.42578	no	n/a	n/a
720.5664062	n/a	184465	largeTSmallH	correct	incongruent	0.55859	no	T	H
721.125	n/a	184608	responseLargeT	correct	n/a	0.55859	no	n/a	n/a
722.1953125	n/a	184882	largeTSmallT	correct	congruent	0.41016	no	T	T
722.6054688	n/a	184987	responseLargeT	correct	n/a	0.41016	no	n/a	n/a
723.6757812	n/a	185261	largeHSmallH	correct	congruent	0.51562	no	H	H
724.1914062	n/a	185393	responseLargeH	correct	n/a	0.51562	no	n/a	n/a
725.2617188	n/a	185667	largeTSmallT	correct	congruent	0.49609	no	T	T
725.7578125	n/a	185794	responseLargeT	correct	n/a	0.49609	no	n/a	n/a
726.8359375	n/a	186070	largeHSmallT	correct	incongruent	0.39062	no	H	T
727.2265625	n/a	186170	responseLargeH	correct	n/a	0.39062	no	n/a	n/a
728.2890625	n/a	186442	largeHSmallT	correct	incongruent	0.39453	no	H	T
728.6835938	n/a	186543	responseLargeH	correct	n/a	0.39453	no	n/a	n/a
729.7539062	n/a	186817	largeTSmallH	correct	incongruent	0.46875	no	T	H
730.2226562	n/a	186937	responseLargeT	correct	n/a	0.46875	no	n/a	n/a
731.2890625	n/a	187210	largeTSmallT	correct	congruent	0.4375	no	T	T
731.7265625	n/a	187322	responseLargeT	correct	n/a	0.4375	no	n/a	n/a
732.7929688	n/a	187595	largeTSmallH	correct	incongruent	0.52344	no	T	H
733.3164062	n/a	187729	responseLargeT	correct	n/a	0.52344	no	n/a	n/a
734.3945312	n/a	188005	largeHSmallT	correct	incongruent	0.53906	no	H	T
734.9335938	n/a	188143	responseLargeH	correct	n/a	0.53906	no	n/a	n/a
735.9921875	n/a	188414	largeTSmallH	correct	incongruent	0.48828	no	T	H
736.4804688	n/a	188539	responseLargeT	correct	n/a	0.48828	no	n/a	n/a
737.5390625	n/a	188810	largeTSmallT	correct	congruent	0.48828	no	T	T
738.0273438	n/a	188935	responseLargeT	correct	n/a	0.48828	no	n/a	n/a
739.1015625	n/a	189210	largeHSmallT	correct	incongruent	0.83984	no	H	T
739.9414062	n/a	189425	responseLargeH	correct	n/a	0.83984	no	n/a	n/a
741.0078125	n/a	189698	largeHSmallT	correct	incongruent	0.41016	no	H	T
741.4179688	n/a	189803	responseLargeH	correct	n/a	0.41016	no	n/a	n/a
742.4882812	n/a	190077	largeTSmallH	correct	incongruent	0.54297	no	T	H
743.03125	n/a	190216	responseLargeT	correct	n/a	0.54297	no	n/a	n/a
744.1015625	n/a	190490	largeTSmallT	correct	congruent	0.46094	no	T	T
744.5625	n/a	190608	responseLargeT	correct	n/a	0.46094	no	n/a	n/a
745.6328125	n/a	190882	largeHSmallH	correct	congruent	0.57422	no	H	H
746.2070312	n/a	191029	responseLargeH	correct	n/a	0.57422	no	n/a	n/a
747.2734375	n/a	191302	largeHSmallT	correct	incongruent	0.51562	no	H	T
747.7890625	n/a	191434	responseLargeH	correct	n/a	0.51562	no	n/a	n/a
748.8476562	n/a	191705	largeHSmallT	correct	incongruent	0.42578	no	H	T
749.2734375	n/a	191814	responseLargeH	correct	n/a	0.42578	no	n/a	n/a
750.3398438	n/a	192087	largeHSmallH	correct	congruent	0.44531	no	H	H
750.7851562	n/a	192201	responseLargeH	correct	n/a	0.44531	no	n/a	n/a
751.8476562	n/a	192473	largeHSmallT	correct	incongruent	0.42578	no	H	T
752.2734375	n/a	192582	responseLargeH	correct	n/a	0.42578	no	n/a	n/a
753.3554688	n/a	192859	largeHSmallH	correct	congruent	0.41406	no	H	H
753.7695312	n/a	192965	responseLargeH	correct	n/a	0.41406	no	n/a	n/a
754.8476562	n/a	193241	largeHSmallT	correct	incongruent	0.42578	no	H	T
755.2734375	n/a	193350	responseLargeH	correct	n/a	0.42578	no	n/a	n/a
756.3398438	n/a	193623	largeTSmallT	correct	congruent	0.47266	no	T	T
756.8125	n/a	193744	responseLargeT	correct	n/a	0.47266	no	n/a	n/a
757.8867188	n/a	194019	largeHSmallH	correct	congruent	0.51953	no	H	H
758.40625	n/a	194152	responseLargeH	correct	n/a	0.51953	no	n/a	n/a
759.4726562	n/a	194425	largeHSmallT	correct	incongruent	0.47656	no	H	T
759.9492188	n/a	194547	responseLargeH	correct	n/a	0.47656	no	n/a	n/a
761.0195312	n/a	194821	largeTSmallT	correct	congruent	0.46094	no	T	T
761.4804688	n/a	194939	responseLargeT	correct	n/a	0.46094	no	n/a	n/a
762.5546875	n/a	195214	largeHSmallT	correct	incongruent	0.46484	no	H	T
763.0195312	n/a	195333	responseLargeH	correct	n/a	0.46484	no	n/a	n/a
764.1015625	n/a	195610	largeHSmallH	correct	congruent	0.45703	no	H	H
764.5585938	n/a	195727	responseLargeH	correct	n/a	0.45703	no	n/a	n/a
765.6210938	n/a	195999	largeHSmallH	correct	congruent	0.44531	no	H	H
766.0664062	n/a	196113	responseLargeH	correct	n/a	0.44531	no	n/a	n/a
767.140625	n/a	196388	largeTSmallT	correct	congruent	0.47266	no	T	T
767.6132812	n/a	196509	responseLargeT	correct	n/a	0.47266	no	n/a	n/a
768.6875	n/a	196784	largeHSmallH	correct	congruent	0.44141	no	H	H
769.1289062	n/a	196897	responseLargeH	correct	n/a	0.44141	no	n/a	n/a
770.1914062	n/a	197169	largeHSmallT	correct	incongruent	0.48438	no	H	T
770.6757812	n/a	197293	responseLargeH	correct	n/a	0.48438	no	n/a	n/a
771.7382812	n/a	197565	largeTSmallT	correct	congruent	0.45312	no	T	T
772.1914062	n/a	197681	responseLargeT	correct	n/a	0.45312	no	n/a	n/a
773.2734375	n/a	197958	largeTSmallT	correct	congruent	0.46875	no	T	T
773.7421875	n/a	198078	responseLargeT	correct	n/a	0.46875	no	n/a	n/a
774.8085938	n/a	198351	largeTSmallT	correct	congruent	0.39062	no	T	T
775.1992188	n/a	198451	responseLargeT	correct	n/a	0.39062	no	n/a	n/a
776.2617188	n/a	198723	largeHSmallT	correct	incongruent	0.46484	no	H	T
776.7265625	n/a	198842	responseLargeH	correct	n/a	0.46484	no	n/a	n/a
777.7929688	n/a	199115	largeTSmallH	correct	incongruent	0.45312	no	T	H
778.2460938	n/a	199231	responseLargeT	correct	n/a	0.45312	no	n/a	n/a
779.328125	n/a	199508	largeHSmallH	correct	congruent	0.46094	no	H	H
779.7890625	n/a	199626	responseLargeH	correct	n/a	0.46094	no	n/a	n/a
780.859375	n/a	199900	largeTSmallH	correct	incongruent	0.39062	no	T	H
781.25	n/a	200000	responseLargeT	correct	n/a	0.39062	no	n/a	n/a
782.3125	n/a	200272	largeTSmallH	correct	incongruent	0.48828	no	T	H
782.8007812	n/a	200397	responseLargeT	correct	n/a	0.48828	no	n/a	n/a
783.8710938	n/a	200671	largeTSmallH	correct	incongruent	0.40234	no	T	H
784.2734375	n/a	200774	responseLargeT	correct	n/a	0.40234	no	n/a	n/a
785.3398438	n/a	201047	largeHSmallH	correct	congruent	0.41797	no	H	H
785.7578125	n/a	201154	responseLargeH	correct	n/a	0.41797	no	n/a	n/a
786.8203125	n/a	201426	largeHSmallH	correct	congruent	0.39844	no	H	H
787.21875	n/a	201528	responseLargeH	correct	n/a	0.39844	no	n/a	n/a
788.2851562	n/a	201801	largeTSmallH	correct	incongruent	0.45703	no	T	H
788.7421875	n/a	201918	responseLargeT	correct	n/a	0.45703	no	n/a	n/a
789.8203125	n/a	202194	largeHSmallT	correct	incongruent	0.48828	no	H	T
790.3085938	n/a	202319	responseLargeH	correct	n/a	0.48828	no	n/a	n/a
791.3789062	n/a	202593	largeHSmallT	correct	incongruent	0.43359	no	H	T
791.8125	n/a	202704	responseLargeH	correct	n/a	0.43359	no	n/a	n/a
792.8710938	n/a	202975	largeTSmallT	correct	congruent	0.47266	no	T	T
793.34375	n/a	203096	responseLargeT	correct	n/a	0.47266	no	n/a	n/a
794.40625	n/a	203368	largeTSmallT	correct	congruent	0.49609	no	T	T
794.9023438	n/a	203495	responseLargeT	correct	n/a	0.49609	no	n/a	n/a
795.96875	n/a	203768	largeHSmallH	correct	congruent	0.46094	no	H	H
796.4296875	n/a	203886	responseLargeH	correct	n/a	0.46094	no	n/a	n/a
797.5	n/a	204160	largeTSmallT	correct	congruent	0.48828	no	T	T
797.9882812	n/a	204285	responseLargeT	correct	n/a	0.48828	no	n/a	n/a
799.0585938	n/a	204559	largeTSmallT	correct	congruent	0.44141	no	T	T
799.5	n/a	204672	responseLargeT	correct	n/a	0.44141	no	n/a	n/a
800.5664062	n/a	204945	largeHSmallT	correct	incongruent	0.45703	no	H	T
801.0234375	n/a	205062	responseLargeH	correct	n/a	0.45703	no	n/a	n/a
802.0976562	n/a	205337	largeHSmallH	correct	congruent	0.69531	no	H	H
802.7929688	n/a	205515	responseLargeH	correct	n/a	0.69531	no	n/a	n/a
803.859375	n/a	205788	largeTSmallH	correct	incongruent	0.48828	no	T	H
804.3476562	n/a	205913	responseLargeT	correct	n/a	0.48828	no	n/a	n/a
805.4179688	n/a	206187	largeHSmallT	correct	incongruent	0.45703	no	H	T
805.875	n/a	206304	responseLargeH	correct	n/a	0.45703	no	n/a	n/a
806.953125	n/a	206580	largeHSmallH	correct	congruent	0.46875	no	H	H
807.421875	n/a	206700	responseLargeH	correct	n/a	0.46875	no	n/a	n/a
808.5	n/a	206976	largeTSmallT	correct	congruent	0.48438	no	T	T
808.984375	n/a	207100	responseLargeT	correct	n/a	0.48438	no	n/a	n/a
810.0585938	n/a	207375	largeTSmallT	correct	congruent	0.44922	no	T	T
810.5078125	n/a	207490	responseLargeT	correct	n/a	0.44922	no	n/a	n/a
811.578125	n/a	207764	largeHSmallT	correct	incongruent	0.46094	no	H	T
812.0390625	n/a	207882	responseLargeH	correct	n/a	0.46094	no	n/a	n/a
813.1132812	n/a	208157	largeTSmallH	correct	incongruent	0.41797	no	T	H
813.53125	n/a	208264	responseLargeT	correct	n/a	0.41797	no	n/a	n/a
814.6054688	n/a	208539	largeHSmallT	correct	incongruent	0.72656	no	H	T
815.3320312	n/a	208725	responseLargeH	correct	n/a	0.72656	no	n/a	n/a
816.40625	n/a	209000	largeHSmallT	correct	incongruent	0.52734	no	H	T
816.9335938	n/a	209135	responseLargeH	correct	n/a	0.52734	no	n/a	n/a
818.0039062	n/a	209409	largeHSmallH	correct	congruent	0.40234	no	H	H
818.40625	n/a	209512	responseLargeH	correct	n/a	0.40234	no	n/a	n/a
819.4726562	n/a	209785	largeHSmallT	correct	incongruent	0.35938	no	H	T
819.8320312	n/a	209877	responseLargeH	correct	n/a	0.35938	no	n/a	n/a
820.8984375	n/a	210150	largeTSmallH	correct	incongruent	0.46484	no	T	H
821.3632812	n/a	210269	responseLargeT	correct	n/a	0.46484	no	n/a	n/a
822.4335938	n/a	210543	largeTSmallT	correct	congruent	0.35547	no	T	T
822.7890625	n/a	210634	responseLargeT	correct	n/a	0.35547	no	n/a	n/a
823.859375	n/a	210908	largeHSmallH	correct	congruent	0.42578	no	H	H
824.2851562	n/a	211017	responseLargeH	correct	n/a	0.42578	no	n/a	n/a
825.3515625	n/a	211290	largeTSmallH	correct	incongruent	0.33984	no	T	H
825.6914062	n/a	211377	responseLargeT	correct	n/a	0.33984	no	n/a	n/a
826.8125	n/a	211664	largeHSmallH	correct	congruent	0.51172	no	H	H
827.3242188	n/a	211795	responseLargeH	correct	n/a	0.51172	no	n/a	n/a
828.40625	n/a	212072	largeTSmallH	correct	incongruent	0.32031	no	T	H
828.7265625	n/a	212154	responseLargeT	correct	n/a	0.32031	no	n/a	n/a
829.8125	n/a	212432	largeHSmallT	correct	incongruent	0.36328	no	H	T
830.1757812	n/a	212525	responseLargeH	correct	n/a	0.36328	no	n/a	n/a
831.2578125	n/a	212802	largeTSmallT	correct	congruent	0.33984	no	T	T
831.5976562	n/a	212889	responseLargeT	correct	n/a	0.33984	no	n/a	n/a
832.8203125	n/a	213202	largeTSmallT	correct	congruent	0.51562	no	T	T
833.3359375	n/a	213334	responseLargeT	correct	n/a	0.51562	no	n/a	n/a
834.40625	n/a	213608	largeHSmallT	correct	incongruent	0.52344	no	H	T
834.9296875	n/a	213742	responseLargeH	correct	n/a	0.52344	no	n/a	n/a
835.9921875	n/a	214014	largeTSmallH	correct	incongruent	0.42578	no	T	H
836.4179688	n/a	214123	responseLargeT	correct	n/a	0.42578	no	n/a	n/a
837.5	n/a	214400	largeHSmallT	correct	incongruent	0.5	no	H	T
838	n/a	214528	responseLargeH	correct	n/a	0.5	no	n/a	n/a
839.0703125	n/a	214802	largeTSmallT	correct	congruent	0.375	no	T	T
839.4453125	n/a	214898	responseLargeT	correct	n/a	0.375	no	n/a	n/a
840.5234375	n/a	215174	largeTSmallT	correct	congruent	0.44141	no	T	T
840.9648438	n/a	215287	responseLargeT	correct	n/a	0.44141	no	n/a	n/a
842.03125	n/a	215560	largeTSmallT	correct	congruent	0.39062	no	T	T
842.421875	n/a	215660	responseLargeT	correct	n/a	0.39062	no	n/a	n/a
843.4960938	n/a	215935	largeTSmallH	correct	incongruent	0.56641	no	T	H
844.0625	n/a	216080	responseLargeT	correct	n/a	0.56641	no	n/a	n/a
845.1367188	n/a	216355	largeTSmallT	correct	congruent	0.38281	no	T	T
845.5195312	n/a	216453	responseLargeT	correct	n/a	0.38281	no	n/a	n/a
846.5898438	n/a	216727	largeTSmallT	correct	congruent	0.35938	no	T	T
846.9492188	n/a	216819	responseLargeT	correct	n/a	0.35938	no	n/a	n/a
848.03125	n/a	217096	largeHSmallH	correct	congruent	0.53125	no	H	H
848.5625	n/a	217232	responseLargeH	correct	n/a	0.53125	no	n/a	n/a
849.6328125	n/a	217506	largeHSmallH	correct	congruent	0.44531	no	H	H
850.078125	n/a	217620	responseLargeH	correct	n/a	0.44531	no	n/a	n/a
851.1523438	n/a	217895	largeTSmallT	correct	congruent	0.47266	no	T	T
851.625	n/a	218016	responseLargeT	correct	n/a	0.47266	no	n/a	n/a
852.7109375	n/a	218294	largeHSmallH	correct	congruent	0.48047	no	H	H
853.1914062	n/a	218417	responseLargeH	correct	n/a	0.48047	no	n/a	n/a
854.2695312	n/a	218693	largeTSmallH	correct	incongruent	0.39844	no	T	H
854.6679688	n/a	218795	responseLargeT	correct	n/a	0.39844	no	n/a	n/a
855.75	n/a	219072	largeHSmallH	correct	congruent	0.42578	no	H	H
856.1757812	n/a	219181	responseLargeH	correct	n/a	0.42578	no	n/a	n/a
857.2460938	n/a	219455	largeHSmallT	error	incongruent	0.33594	no	H	T
857.5820312	n/a	219541	responseLargeT	error	n/a	0.33594	no	n/a	n/a
858.6445312	n/a	219813	largeTSmallT	correct	congruent	0.4375	no	T	T
859.0820312	n/a	219925	responseLargeT	correct	n/a	0.4375	no	n/a	n/a
860.1640625	n/a	220202	largeTSmallT	correct	congruent	0.45312	no	T	T
860.6171875	n/a	220318	responseLargeT	correct	n/a	0.45312	no	n/a	n/a
861.6835938	n/a	220591	largeTSmallH	correct	incongruent	0.41406	no	T	H
862.0976562	n/a	220697	responseLargeT	correct	n/a	0.41406	no	n/a	n/a
863.1757812	n/a	220973	largeHSmallH	correct	congruent	0.50391	no	H	H
863.6796875	n/a	221102	responseLargeH	correct	n/a	0.50391	no	n/a	n/a
864.75	n/a	221376	largeHSmallT	correct	incongruent	0.37891	no	H	T
865.1289062	n/a	221473	responseLargeH	correct	n/a	0.37891	no	n/a	n/a
866.1914062	n/a	221745	largeHSmallH	correct	congruent	0.43359	no	H	H
866.625	n/a	221856	responseLargeH	correct	n/a	0.43359	no	n/a	n/a
867.6992188	n/a	222131	largeHSmallH	correct	congruent	0.39062	no	H	H
868.0898438	n/a	222231	responseLargeH	correct	n/a	0.39062	no	n/a	n/a
869.1640625	n/a	222506	largeTSmallH	correct	incongruent	0.53125	no	T	H
869.6953125	n/a	222642	responseLargeT	correct	n/a	0.53125	no	n/a	n/a
870.765625	n/a	222916	largeHSmallT	correct	incongruent	0.40234	no	H	T
871.1679688	n/a	223019	responseLargeH	correct	n/a	0.40234	no	n/a	n/a
872.2304688	n/a	223291	largeTSmallT	correct	congruent	0.47266	no	T	T
872.703125	n/a	223412	responseLargeT	correct	n/a	0.47266	no	n/a	n/a
873.7773438	n/a	223687	largeTSmallH	correct	incongruent	0.48438	no	T	H
874.2617188	n/a	223811	responseLargeT	correct	n/a	0.48438	no	n/a	n/a
875.3359375	n/a	224086	largeHSmallH	correct	congruent	0.51562	no	H	H
875.8515625	n/a	224218	responseLargeH	correct	n/a	0.51562	no	n/a	n/a
876.921875	n/a	224492	largeHSmallH	correct	congruent	0.375	no	H	H
877.296875	n/a	224588	responseLargeH	correct	n/a	0.375	no	n/a	n/a
878.3632812	n/a	224861	largeTSmallT	correct	congruent	0.42578	no	T	T
878.7890625	n/a	224970	responseLargeT	correct	n/a	0.42578	no	n/a	n/a
879.8710938	n/a	225247	largeTSmallH	correct	incongruent	0.39062	no	T	H
880.2617188	n/a	225347	responseLargeT	correct	n/a	0.39062	no	n/a	n/a
881.3242188	n/a	225619	largeTSmallT	correct	congruent	0.34766	no	T	T
881.671875	n/a	225708	responseLargeT	correct	n/a	0.34766	no	n/a	n/a
882.75	n/a	225984	largeHSmallH	correct	congruent	0.48438	no	H	H
883.234375	n/a	226108	responseLargeH	correct	n/a	0.48438	no	n/a	n/a
884.3085938	n/a	226383	largeTSmallH	correct	incongruent	0.46094	no	T	H
884.7695312	n/a	226501	responseLargeT	correct	n/a	0.46094	no	n/a	n/a
885.84375	n/a	226776	largeTSmallT	correct	congruent	0.57422	no	T	T
886.4179688	n/a	226923	responseLargeT	correct	n/a	0.57422	no	n/a	n/a
887.4960938	n/a	227199	largeTSmallH	correct	incongruent	0.40234	no	T	H
887.8984375	n/a	227302	responseLargeT	correct	n/a	0.40234	no	n/a	n/a
888.9765625	n/a	227578	largeHSmallH	correct	congruent	0.48438	no	H	H
889.4609375	n/a	227702	responseLargeH	correct	n/a	0.48438	no	n/a	n/a
890.5351562	n/a	227977	largeTSmallT	correct	congruent	0.47266	no	T	T
891.0078125	n/a	228098	responseLargeT	correct	n/a	0.47266	no	n/a	n/a
892.0820312	n/a	228373	largeHSmallH	correct	congruent	0.41406	no	H	H
892.4960938	n/a	228479	responseLargeH	correct	n/a	0.41406	no	n/a	n/a
893.578125	n/a	228756	largeTSmallH	correct	incongruent	0.38672	no	T	H
893.9648438	n/a	228855	responseLargeT	correct	n/a	0.38672	no	n/a	n/a
895.0429688	n/a	229131	largeTSmallT	correct	congruent	0.40234	no	T	T
895.4453125	n/a	229234	responseLargeT	correct	n/a	0.40234	no	n/a	n/a
896.5117188	n/a	229507	largeTSmallT	correct	congruent	0.41016	no	T	T
896.921875	n/a	229612	responseLargeT	correct	n/a	0.41016	no	n/a	n/a
897.9882812	n/a	229885	largeTSmallH	correct	incongruent	0.38672	no	T	H
898.375	n/a	229984	responseLargeT	correct	n/a	0.38672	no	n/a	n/a
899.4414062	n/a	230257	largeHSmallT	correct	incongruent	0.45703	no	H	T
899.8984375	n/a	230374	responseLargeH	correct	n/a	0.45703	no	n/a	n/a
900.9765625	n/a	230650	largeTSmallH	correct	incongruent	0.42188	no	T	H
901.3984375	n/a	230758	responseLargeT	correct	n/a	0.42188	no	n/a	n/a
902.46875	n/a	231032	largeHSmallT	correct	incongruent	0.41797	no	H	T
902.8867188	n/a	231139	responseLargeH	correct	n/a	0.41797	no	n/a	n/a
903.9648438	n/a	231415	largeHSmallT	error	incongruent	0.375	no	H	T
904.3398438	n/a	231511	responseLargeT	error	n/a	0.375	no	n/a	n/a
905.4179688	n/a	231787	largeTSmallT	correct	congruent	0.47656	no	T	T
905.8945312	n/a	231909	responseLargeT	correct	n/a	0.47656	no	n/a	n/a
906.9648438	n/a	232183	largeTSmallH	correct	incongruent	0.54688	no	T	H
907.5117188	n/a	232323	responseLargeT	correct	n/a	0.54688	no	n/a	n/a
908.578125	n/a	232596	largeHSmallH	correct	congruent	0.46875	no	H	H
909.046875	n/a	232716	responseLargeH	correct	n/a	0.46875	no	n/a	n/a
910.109375	n/a	232988	largeHSmallT	error	incongruent	0.42578	no	H	T
910.5351562	n/a	233097	responseLargeT	error	n/a	0.42578	no	n/a	n/a
911.6015625	n/a	233370	largeHSmallT	correct	incongruent	0.82031	no	H	T
912.421875	n/a	233580	responseLargeH	correct	n/a	0.82031	no	n/a	n/a
913.4960938	n/a	233855	largeHSmallT	correct	incongruent	0.45312	no	H	T
913.9492188	n/a	233971	responseLargeH	correct	n/a	0.45312	no	n/a	n/a
915.03125	n/a	234248	largeTSmallT	correct	congruent	0.46094	no	T	T
915.4921875	n/a	234366	responseLargeT	correct	n/a	0.46094	no	n/a	n/a
916.5742188	n/a	234643	largeTSmallH	correct	incongruent	0.44922	no	T	H
917.0234375	n/a	234758	responseLargeT	correct	n/a	0.44922	no	n/a	n/a
918.0976562	n/a	235033	largeTSmallH	correct	incongruent	0.41406	no	T	H
918.5117188	n/a	235139	responseLargeT	correct	n/a	0.41406	no	n/a	n/a
919.5742188	n/a	235411	largeTSmallH	correct	incongruent	0.38672	no	T	H
919.9609375	n/a	235510	responseLargeT	correct	n/a	0.38672	no	n/a	n/a
921.0273438	n/a	235783	largeHSmallH	correct	congruent	0.51953	no	H	H
921.546875	n/a	235916	responseLargeH	correct	n/a	0.51953	no	n/a	n/a
922.6289062	n/a	236193	largeHSmallH	correct	congruent	0.60547	no	H	H
923.234375	n/a	236348	responseLargeH	correct	n/a	0.60547	no	n/a	n/a
924.3085938	n/a	236623	largeHSmallT	error	incongruent	0.62109	no	H	T
924.9296875	n/a	236782	responseLargeT	error	n/a	0.62109	no	n/a	n/a
926.0039062	n/a	237057	largeHSmallT	correct	incongruent	0.64844	no	H	T
926.6523438	n/a	237223	responseLargeH	correct	n/a	0.64844	no	n/a	n/a
927.7226562	n/a	237497	largeTSmallT	correct	congruent	0.51562	no	T	T
928.2382812	n/a	237629	responseLargeT	correct	n/a	0.51562	no	n/a	n/a
929.3085938	n/a	237903	largeHSmallH	correct	congruent	0.51562	no	H	H
929.8242188	n/a	238035	responseLargeH	correct	n/a	0.51562	no	n/a	n/a
930.8945312	n/a	238309	largeTSmallH	correct	incongruent	0.49609	no	T	H
931.390625	n/a	238436	responseLargeT	correct	n/a	0.49609	no	n/a	n/a
932.46875	n/a	238712	largeHSmallT	correct	incongruent	0.54297	no	H	T
933.0117188	n/a	238851	responseLargeH	correct	n/a	0.54297	no	n/a	n/a
934.0820312	n/a	239125	largeHSmallT	correct	incongruent	0.52344	no	H	T
934.6054688	n/a	239259	responseLargeH	correct	n/a	0.52344	no	n/a	n/a
935.8164062	n/a	239569	largeHSmallH	correct	congruent	0.36719	no	H	H
936.1835938	n/a	239663	responseLargeH	correct	n/a	0.36719	no	n/a	n/a
937.2539062	n/a	239937	largeHSmallT	correct	incongruent	0.64062	no	H	T
937.8945312	n/a	240101	responseLargeH	correct	n/a	0.64062	no	n/a	n/a
938.9765625	n/a	240378	largeTSmallH	correct	incongruent	0.67578	no	T	H
939.6523438	n/a	240551	responseLargeT	correct	n/a	0.67578	no	n/a	n/a
940.8007812	n/a	240845	largeHSmallT	correct	incongruent	0.45703	no	H	T
941.2578125	n/a	240962	responseLargeH	correct	n/a	0.45703	no	n/a	n/a
942.3203125	n/a	241234	largeHSmallH	correct	congruent	0.49609	no	H	H
942.8164062	n/a	241361	responseLargeH	correct	n/a	0.49609	no	n/a	n/a
943.8828125	n/a	241634	largeTSmallH	correct	incongruent	0.39844	no	T	H
944.28125	n/a	241736	responseLargeT	correct	n/a	0.39844	no	n/a	n/a
945.3476562	n/a	242009	largeTSmallT	error	congruent	0.34375	no	T	T
945.6914062	n/a	242097	responseLargeH	error	n/a	0.34375	no	n/a	n/a
946.8007812	n/a	242381	largeHSmallT	correct	incongruent	0.61328	no	H	T
947.4140625	n/a	242538	responseLargeH	correct	n/a	0.61328	no	n/a	n/a
948.4804688	n/a	242811	largeHSmallT	correct	incongruent	0.51562	no	H	T
948.9960938	n/a	242943	responseLargeH	correct	n/a	0.51562	no	n/a	n/a
950.0703125	n/a	243218	largeHSmallH	correct	congruent	0.42969	no	H	H
950.5	n/a	243328	responseLargeH	correct	n/a	0.42969	no	n/a	n/a
951.5742188	n/a	243603	largeHSmallT	correct	incongruent	0.41406	no	H	T
951.9882812	n/a	243709	responseLargeH	correct	n/a	0.41406	no	n/a	n/a
953.0546875	n/a	243982	largeTSmallH	correct	incongruent	0.45312	no	T	H
953.5078125	n/a	244098	responseLargeT	correct	n/a	0.45312	no	n/a	n/a
954.5742188	n/a	244371	largeTSmallT	correct	congruent	0.34375	no	T	T
954.9179688	n/a	244459	responseLargeT	correct	n/a	0.34375	no	n/a	n/a
955.9882812	n/a	244733	largeTSmallT	correct	congruent	0.33984	no	T	T
956.328125	n/a	244820	responseLargeT	correct	n/a	0.33984	no	n/a	n/a
957.4023438	n/a	245095	largeHSmallH	correct	congruent	0.49219	no	H	H
957.8945312	n/a	245221	responseLargeH	correct	n/a	0.49219	no	n/a	n/a
958.9765625	n/a	245498	largeHSmallH	correct	congruent	0.44141	no	H	H
959.4179688	n/a	245611	responseLargeH	correct	n/a	0.44141	no	n/a	n/a
960.4804688	n/a	245883	largeHSmallH	correct	congruent	0.39062	no	H	H
960.8710938	n/a	245983	responseLargeH	correct	n/a	0.39062	no	n/a	n/a
961.9335938	n/a	246255	largeHSmallH	correct	congruent	0.375	no	H	H
962.3085938	n/a	246351	responseLargeH	correct	n/a	0.375	no	n/a	n/a
963.3632812	n/a	246621	largeHSmallH	correct	congruent	0.45703	no	H	H
963.8203125	n/a	246738	responseLargeH	correct	n/a	0.45703	no	n/a	n/a
964.8828125	n/a	247010	largeHSmallH	correct	congruent	0.35938	no	H	H
965.2421875	n/a	247102	responseLargeH	correct	n/a	0.35938	no	n/a	n/a
966.3203125	n/a	247378	largeTSmallH	correct	incongruent	0.5	no	T	H
966.8203125	n/a	247506	responseLargeT	correct	n/a	0.5	no	n/a	n/a
967.8945312	n/a	247781	largeTSmallH	correct	incongruent	0.34375	no	T	H
968.2382812	n/a	247869	responseLargeT	correct	n/a	0.34375	no	n/a	n/a
969.3203125	n/a	248146	largeTSmallH	correct	incongruent	0.37891	no	T	H
969.6992188	n/a	248243	responseLargeT	correct	n/a	0.37891	no	n/a	n/a
970.8007812	n/a	248525	largeHSmallH	error	congruent	0.33203	no	H	H
971.1328125	n/a	248610	responseLargeT	error	n/a	0.33203	no	n/a	n/a
972.203125	n/a	248884	largeTSmallH	correct	incongruent	0.41406	no	T	H
972.6171875	n/a	248990	responseLargeT	correct	n/a	0.41406	no	n/a	n/a
973.8007812	n/a	249293	largeTSmallH	correct	incongruent	0.41016	no	T	H
974.2109375	n/a	249398	responseLargeT	correct	n/a	0.41016	no	n/a	n/a
975.28125	n/a	249672	largeHSmallH	correct	congruent	0.50391	no	H	H
975.7851562	n/a	249801	responseLargeH	correct	n/a	0.50391	no	n/a	n/a
976.8554688	n/a	250075	largeHSmallH	correct	congruent	0.51562	no	H	H
977.3710938	n/a	250207	responseLargeH	correct	n/a	0.51562	no	n/a	n/a
978.4414062	n/a	250481	largeHSmallT	correct	incongruent	0.43359	no	H	T
978.875	n/a	250592	responseLargeH	correct	n/a	0.43359	no	n/a	n/a
979.9492188	n/a	250867	largeTSmallH	correct	incongruent	0.47266	no	T	H
980.421875	n/a	250988	responseLargeT	correct	n/a	0.47266	no	n/a	n/a
981.4960938	n/a	251263	largeTSmallH	correct	incongruent	0.32812	no	T	H
981.8242188	n/a	251347	responseLargeT	correct	n/a	0.32812	no	n/a	n/a
982.90625	n/a	251624	largeHSmallH	correct	congruent	0.48047	no	H	H
983.3867188	n/a	251747	responseLargeH	correct	n/a	0.48047	no	n/a	n/a
984.46875	n/a	252024	largeHSmallH	correct	congruent	0.39844	no	H	H
984.8671875	n/a	252126	responseLargeH	correct	n/a	0.39844	no	n/a	n/a
985.9492188	n/a	252403	largeTSmallH	correct	incongruent	0.49609	no	T	H
986.4453125	n/a	252530	responseLargeT	correct	n/a	0.49609	no	n/a	n/a
987.5195312	n/a	252805	largeHSmallH	correct	congruent	0.48047	no	H	H
988	n/a	252928	responseLargeH	correct	n/a	0.48047	no	n/a	n/a
989.0664062	n/a	253201	largeTSmallT	correct	congruent	0.50781	no	T	T
989.5742188	n/a	253331	responseLargeT	correct	n/a	0.50781	no	n/a	n/a
990.640625	n/a	253604	largeTSmallH	correct	incongruent	0.56641	no	T	H
991.2070312	n/a	253749	responseLargeT	correct	n/a	0.56641	no	n/a	n/a
992.28125	n/a	254024	largeTSmallT	correct	congruent	0.46484	no	T	T
992.7460938	n/a	254143	responseLargeT	correct	n/a	0.46484	no	n/a	n/a
993.828125	n/a	254420	largeTSmallH	correct	incongruent	0.49609	no	T	H
994.3242188	n/a	254547	responseLargeT	correct	n/a	0.49609	no	n/a	n/a
995.4023438	n/a	254823	largeHSmallT	correct	incongruent	0.5	no	H	T
995.9023438	n/a	254951	responseLargeH	correct	n/a	0.5	no	n/a	n/a
996.9726562	n/a	255225	largeHSmallT	correct	incongruent	0.60156	no	H	T
997.5742188	n/a	255379	responseLargeH	correct	n/a	0.60156	no	n/a	n/a
998.640625	n/a	255652	largeHSmallT	correct	incongruent	0.47656	no	H	T
999.1171875	n/a	255774	responseLargeH	correct	n/a	0.47656	no	n/a	n/a
1003.082031	n/a	256789	largeTSmallT	correct	congruent	0.46875	no	T	T
1003.550781	n/a	256909	responseSmallT	correct	n/a	0.46875	no	n/a	n/a
1004.613281	n/a	257181	largeTSmallH	error	incongruent	0.38672	no	T	H
1005	n/a	257280	responseSmallT	error	n/a	0.38672	no	n/a	n/a
1006.066406	n/a	257553	largeTSmallT	correct	congruent	0.71875	no	T	T
1006.785156	n/a	257737	responseSmallT	correct	n/a	0.71875	no	n/a	n/a
1007.867188	n/a	258014	largeTSmallT	correct	congruent	0.52344	no	T	T
1008.390625	n/a	258148	responseSmallT	correct	n/a	0.52344	no	n/a	n/a
1009.46875	n/a	258424	largeTSmallT	correct	congruent	0.46094	no	T	T
1009.929688	n/a	258542	responseSmallT	correct	n/a	0.46094	no	n/a	n/a
1011	n/a	258816	largeTSmallT	correct	congruent	0.41797	no	T	T
1011.417969	n/a	258923	responseSmallT	correct	n/a	0.41797	no	n/a	n/a
1012.492188	n/a	259198	largeTSmallH	correct	incongruent	0.55469	no	T	H
1013.046875	n/a	259340	responseSmallH	correct	n/a	0.55469	no	n/a	n/a
1014.121094	n/a	259615	largeHSmallT	error	incongruent	0.57031	no	H	T
1014.691406	n/a	259761	responseSmallH	error	n/a	0.57031	no	n/a	n/a
1015.800781	n/a	260045	largeHSmallH	correct	congruent	0.80469	no	H	H
1016.605469	n/a	260251	responseSmallH	correct	n/a	0.80469	no	n/a	n/a
1017.667969	n/a	260523	largeHSmallH	correct	congruent	0.83594	no	H	H
1018.503906	n/a	260737	responseSmallH	correct	n/a	0.83594	no	n/a	n/a
1019.574219	n/a	261011	largeHSmallH	correct	congruent	0.45703	no	H	H
1020.03125	n/a	261128	responseSmallH	correct	n/a	0.45703	no	n/a	n/a
1021.105469	n/a	261403	largeHSmallH	correct	congruent	0.43359	no	H	H
1021.539062	n/a	261514	responseSmallH	correct	n/a	0.43359	no	n/a	n/a
1022.601562	n/a	261786	largeHSmallT	correct	incongruent	0.67188	no	H	T
1023.273438	n/a	261958	responseSmallT	correct	n/a	0.67188	no	n/a	n/a
1024.332031	n/a	262229	largeTSmallT	correct	congruent	0.51953	no	T	T
1024.851562	n/a	262362	responseSmallT	correct	n/a	0.51953	no	n/a	n/a
1025.917969	n/a	262635	largeHSmallH	correct	congruent	0.71875	no	H	H
1026.636719	n/a	262819	responseSmallH	correct	n/a	0.71875	no	n/a	n/a
1027.804688	n/a	263118	largeHSmallH	correct	congruent	0.73047	no	H	H
1028.535156	n/a	263305	responseSmallH	correct	n/a	0.73047	no	n/a	n/a
1029.613281	n/a	263581	largeTSmallH	correct	incongruent	0.67578	no	T	H
1030.289062	n/a	263754	responseSmallH	correct	n/a	0.67578	no	n/a	n/a
1031.359375	n/a	264028	largeHSmallH	correct	congruent	0.55859	no	H	H
1031.917969	n/a	264171	responseSmallH	correct	n/a	0.55859	no	n/a	n/a
1033	n/a	264448	largeTSmallT	correct	congruent	0.51562	no	T	T
1033.515625	n/a	264580	responseSmallT	correct	n/a	0.51562	no	n/a	n/a
1034.585938	n/a	264854	largeTSmallT	correct	congruent	0.44141	no	T	T
1035.027344	n/a	264967	responseSmallT	correct	n/a	0.44141	no	n/a	n/a
1036.09375	n/a	265240	largeHSmallH	correct	congruent	0.53516	no	H	H
1036.628906	n/a	265377	responseSmallH	correct	n/a	0.53516	no	n/a	n/a
1037.800781	n/a	265677	largeTSmallH	correct	incongruent	0.62109	no	T	H
1038.421875	n/a	265836	responseSmallH	correct	n/a	0.62109	no	n/a	n/a
1039.507812	n/a	266114	largeHSmallT	correct	incongruent	0.52344	no	H	T
1040.03125	n/a	266248	responseSmallT	correct	n/a	0.52344	no	n/a	n/a
1041.105469	n/a	266523	largeHSmallH	correct	congruent	0.57422	no	H	H
1041.679688	n/a	266670	responseSmallH	correct	n/a	0.57422	no	n/a	n/a
1042.800781	n/a	266957	largeTSmallT	correct	congruent	0.57422	no	T	T
1043.375	n/a	267104	responseSmallT	correct	n/a	0.57422	no	n/a	n/a
1044.4375	n/a	267376	largeHSmallT	correct	incongruent	0.59766	no	H	T
1045.035156	n/a	267529	responseSmallT	correct	n/a	0.59766	no	n/a	n/a
1046.121094	n/a	267807	largeHSmallT	correct	incongruent	0.51172	no	H	T
1046.632812	n/a	267938	responseSmallT	correct	n/a	0.51172	no	n/a	n/a
1047.707031	n/a	268213	largeTSmallT	correct	congruent	0.49609	no	T	T
1048.203125	n/a	268340	responseSmallT	correct	n/a	0.49609	no	n/a	n/a
1049.28125	n/a	268616	largeHSmallT	correct	incongruent	0.45703	no	H	T
1049.738281	n/a	268733	responseSmallT	correct	n/a	0.45703	no	n/a	n/a
1050.8125	n/a	269008	largeHSmallT	correct	incongruent	0.47656	no	H	T
1051.289062	n/a	269130	responseSmallT	correct	n/a	0.47656	no	n/a	n/a
1052.371094	n/a	269407	largeHSmallT	correct	incongruent	0.5	no	H	T
1052.871094	n/a	269535	responseSmallT	correct	n/a	0.5	no	n/a	n/a
1053.945312	n/a	269810	largeTSmallH	correct	incongruent	0.50781	no	T	H
1054.453125	n/a	269940	responseSmallH	correct	n/a	0.50781	no	n/a	n/a
1055.519531	n/a	270213	largeTSmallT	correct	congruent	0.54297	no	T	T
1056.0625	n/a	270352	responseSmallT	correct	n/a	0.54297	no	n/a	n/a
1057.144531	n/a	270629	largeTSmallH	correct	incongruent	0.64062	no	T	H
1057.785156	n/a	270793	responseSmallH	correct	n/a	0.64062	no	n/a	n/a
1058.867188	n/a	271070	largeHSmallT	error	incongruent	0.49219	no	H	T
1059.359375	n/a	271196	responseSmallH	error	n/a	0.49219	no	n/a	n/a
1060.4375	n/a	271472	largeTSmallT	correct	congruent	0.49219	no	T	T
1060.929688	n/a	271598	responseSmallT	correct	n/a	0.49219	no	n/a	n/a
1062	n/a	271872	largeTSmallH	correct	incongruent	0.51562	no	T	H
1062.515625	n/a	272004	responseSmallH	correct	n/a	0.51562	no	n/a	n/a
1063.585938	n/a	272278	largeHSmallT	correct	incongruent	0.71484	no	H	T
1064.300781	n/a	272461	responseSmallT	correct	n/a	0.71484	no	n/a	n/a
1065.371094	n/a	272735	largeHSmallH	correct	congruent	0.55078	no	H	H
1065.921875	n/a	272876	responseSmallH	correct	n/a	0.55078	no	n/a	n/a
1066.984375	n/a	273148	largeTSmallT	correct	congruent	0.42188	no	T	T
1067.40625	n/a	273256	responseSmallT	correct	n/a	0.42188	no	n/a	n/a
1068.480469	n/a	273531	largeTSmallT	correct	congruent	0.53906	no	T	T
1069.019531	n/a	273669	responseSmallT	correct	n/a	0.53906	no	n/a	n/a
1070.09375	n/a	273944	largeTSmallH	correct	incongruent	0.51172	no	T	H
1070.605469	n/a	274075	responseSmallH	correct	n/a	0.51172	no	n/a	n/a
1071.679688	n/a	274350	largeHSmallH	correct	congruent	0.625	no	H	H
1072.304688	n/a	274510	responseSmallH	correct	n/a	0.625	no	n/a	n/a
1073.386719	n/a	274787	largeHSmallT	error	incongruent	0.53906	no	H	T
1073.925781	n/a	274925	responseSmallH	error	n/a	0.53906	no	n/a	n/a
1074.984375	n/a	275196	largeHSmallT	correct	incongruent	0.52344	no	H	T
1075.507812	n/a	275330	responseSmallT	correct	n/a	0.52344	no	n/a	n/a
1076.585938	n/a	275606	largeTSmallH	correct	incongruent	0.49609	no	T	H
1077.082031	n/a	275733	responseSmallH	correct	n/a	0.49609	no	n/a	n/a
1078.160156	n/a	276009	largeTSmallH	correct	incongruent	0.43359	no	T	H
1078.59375	n/a	276120	responseSmallH	correct	n/a	0.43359	no	n/a	n/a
1079.8125	n/a	276432	largeHSmallH	correct	congruent	0.47266	no	H	H
1080.285156	n/a	276553	responseSmallH	correct	n/a	0.47266	no	n/a	n/a
1081.359375	n/a	276828	largeHSmallT	correct	incongruent	0.53125	no	H	T
1081.890625	n/a	276964	responseSmallT	correct	n/a	0.53125	no	n/a	n/a
1082.957031	n/a	277237	largeTSmallT	correct	congruent	0.46875	no	T	T
1083.425781	n/a	277357	responseSmallT	correct	n/a	0.46875	no	n/a	n/a
1084.492188	n/a	277630	largeTSmallH	correct	incongruent	0.63672	no	T	H
1085.128906	n/a	277793	responseSmallH	correct	n/a	0.63672	no	n/a	n/a
1086.210938	n/a	278070	largeTSmallH	correct	incongruent	0.49609	no	T	H
1086.707031	n/a	278197	responseSmallH	correct	n/a	0.49609	no	n/a	n/a
1087.792969	n/a	278475	largeHSmallH	correct	congruent	0.5	no	H	H
1088.292969	n/a	278603	responseSmallH	correct	n/a	0.5	no	n/a	n/a
1089.359375	n/a	278876	largeHSmallT	correct	incongruent	0.62891	no	H	T
1089.988281	n/a	279037	responseSmallT	correct	n/a	0.62891	no	n/a	n/a
1091.050781	n/a	279309	largeTSmallT	correct	congruent	0.53906	no	T	T
1091.589844	n/a	279447	responseSmallT	correct	n/a	0.53906	no	n/a	n/a
1092.664062	n/a	279722	largeTSmallT	correct	congruent	0.45703	no	T	T
1093.121094	n/a	279839	responseSmallT	correct	n/a	0.45703	no	n/a	n/a
1094.199219	n/a	280115	largeTSmallH	correct	incongruent	0.47656	no	T	H
1094.675781	n/a	280237	responseSmallH	correct	n/a	0.47656	no	n/a	n/a
1095.757812	n/a	280514	largeTSmallH	correct	incongruent	0.55078	no	T	H
1096.308594	n/a	280655	responseSmallH	correct	n/a	0.55078	no	n/a	n/a
1097.371094	n/a	280927	largeHSmallH	correct	congruent	0.67188	no	H	H
1098.042969	n/a	281099	responseSmallH	correct	n/a	0.67188	no	n/a	n/a
1099.117188	n/a	281374	largeTSmallT	correct	congruent	0.66406	no	T	T
1099.78125	n/a	281544	responseSmallT	correct	n/a	0.66406	no	n/a	n/a
1100.945312	n/a	281842	largeTSmallH	correct	incongruent	0.52344	no	T	H
1101.46875	n/a	281976	responseSmallH	correct	n/a	0.52344	no	n/a	n/a
1102.53125	n/a	282248	largeTSmallH	correct	incongruent	0.52344	no	T	H
1103.054688	n/a	282382	responseSmallH	correct	n/a	0.52344	no	n/a	n/a
1104.132812	n/a	282658	largeHSmallT	correct	incongruent	0.52344	no	H	T
1104.65625	n/a	282792	responseSmallT	correct	n/a	0.52344	no	n/a	n/a
1105.796875	n/a	283084	largeTSmallT	correct	congruent	0.5625	no	T	T
1106.359375	n/a	283228	responseSmallT	correct	n/a	0.5625	no	n/a	n/a
1107.4375	n/a	283504	largeTSmallT	correct	congruent	0.54297	no	T	T
1107.980469	n/a	283643	responseSmallT	correct	n/a	0.54297	no	n/a	n/a
1109.050781	n/a	283917	largeHSmallT	correct	incongruent	0.49219	no	H	T
1109.542969	n/a	284043	responseSmallT	correct	n/a	0.49219	no	n/a	n/a
1110.625	n/a	284320	largeTSmallT	correct	congruent	0.58984	no	T	T
1111.214844	n/a	284471	responseSmallT	correct	n/a	0.58984	no	n/a	n/a
1112.289062	n/a	284746	largeTSmallH	correct	incongruent	0.52734	no	T	H
1112.816406	n/a	284881	responseSmallH	correct	n/a	0.52734	no	n/a	n/a
1113.890625	n/a	285156	largeHSmallT	correct	incongruent	0.625	no	H	T
1114.515625	n/a	285316	responseSmallT	correct	n/a	0.625	no	n/a	n/a
1115.597656	n/a	285593	largeHSmallT	correct	incongruent	0.41797	no	H	T
1116.015625	n/a	285700	responseSmallT	correct	n/a	0.41797	no	n/a	n/a
1117.089844	n/a	285975	largeTSmallH	correct	incongruent	0.50391	no	T	H
1117.59375	n/a	286104	responseSmallH	correct	n/a	0.50391	no	n/a	n/a
1118.8125	n/a	286416	largeHSmallT	correct	incongruent	0.50391	no	H	T
1119.316406	n/a	286545	responseSmallT	correct	n/a	0.50391	no	n/a	n/a
1120.382812	n/a	286818	largeHSmallT	correct	incongruent	0.49609	no	H	T
1120.878906	n/a	286945	responseSmallT	correct	n/a	0.49609	no	n/a	n/a
1121.945312	n/a	287218	largeHSmallT	correct	incongruent	0.44141	no	H	T
1122.386719	n/a	287331	responseSmallT	correct	n/a	0.44141	no	n/a	n/a
1123.464844	n/a	287607	largeHSmallH	correct	congruent	0.5	no	H	H
1123.964844	n/a	287735	responseSmallH	correct	n/a	0.5	no	n/a	n/a
1125.039062	n/a	288010	largeHSmallH	correct	congruent	0.57812	no	H	H
1125.617188	n/a	288158	responseSmallH	correct	n/a	0.57812	no	n/a	n/a
1126.796875	n/a	288460	largeTSmallH	correct	incongruent	0.63672	no	T	H
1127.433594	n/a	288623	responseSmallH	correct	n/a	0.63672	no	n/a	n/a
1128.515625	n/a	288900	largeTSmallT	correct	congruent	0.53125	no	T	T
1129.046875	n/a	289036	responseSmallT	correct	n/a	0.53125	no	n/a	n/a
1130.117188	n/a	289310	largeHSmallT	correct	incongruent	0.47266	no	H	T
1130.589844	n/a	289431	responseSmallT	correct	n/a	0.47266	no	n/a	n/a
1131.664062	n/a	289706	largeHSmallH	correct	congruent	0.48438	no	H	H
1132.148438	n/a	289830	responseSmallH	correct	n/a	0.48438	no	n/a	n/a
1133.222656	n/a	290105	largeTSmallH	correct	incongruent	0.44531	no	T	H
1133.667969	n/a	290219	responseSmallH	correct	n/a	0.44531	no	n/a	n/a
1134.730469	n/a	290491	largeHSmallH	correct	congruent	0.42188	no	H	H
1135.152344	n/a	290599	responseSmallH	correct	n/a	0.42188	no	n/a	n/a
1136.222656	n/a	290873	largeTSmallT	correct	congruent	0.40625	no	T	T
1136.628906	n/a	290977	responseSmallT	correct	n/a	0.40625	no	n/a	n/a
1137.703125	n/a	291252	largeTSmallH	error	incongruent	0.45312	no	T	H
1138.15625	n/a	291368	responseSmallT	error	n/a	0.45312	no	n/a	n/a
1139.238281	n/a	291645	largeTSmallH	correct	incongruent	0.47656	no	T	H
1139.714844	n/a	291767	responseSmallH	correct	n/a	0.47656	no	n/a	n/a
1140.785156	n/a	292041	largeHSmallH	correct	congruent	0.45312	no	H	H
1141.238281	n/a	292157	responseSmallH	correct	n/a	0.45312	no	n/a	n/a
1142.304688	n/a	292430	largeTSmallH	correct	incongruent	0.46875	no	T	H
1142.773438	n/a	292550	responseSmallH	correct	n/a	0.46875	no	n/a	n/a
1143.851562	n/a	292826	largeTSmallH	correct	incongruent	0.43359	no	T	H
1144.285156	n/a	292937	responseSmallH	correct	n/a	0.43359	no	n/a	n/a
1145.355469	n/a	293211	largeHSmallH	error	congruent	0.48438	no	H	H
1145.839844	n/a	293335	responseSmallT	error	n/a	0.48438	no	n/a	n/a
1146.902344	n/a	293607	largeTSmallT	correct	congruent	0.875	no	T	T
1147.777344	n/a	293831	responseSmallT	correct	n/a	0.875	no	n/a	n/a
1148.851562	n/a	294106	largeHSmallH	correct	congruent	0.51953	no	H	H
1149.371094	n/a	294239	responseSmallH	correct	n/a	0.51953	no	n/a	n/a
1150.449219	n/a	294515	largeHSmallT	correct	incongruent	0.53906	no	H	T
1150.988281	n/a	294653	responseSmallT	correct	n/a	0.53906	no	n/a	n/a
1152.050781	n/a	294925	largeTSmallH	correct	incongruent	0.55469	no	T	H
1152.605469	n/a	295067	responseSmallH	correct	n/a	0.55469	no	n/a	n/a
1153.792969	n/a	295371	largeTSmallT	correct	congruent	0.73828	no	T	T
1154.53125	n/a	295560	responseSmallT	correct	n/a	0.73828	no	n/a	n/a
1155.609375	n/a	295836	largeTSmallH	correct	incongruent	0.61719	no	T	H
1156.226562	n/a	295994	responseSmallH	correct	n/a	0.61719	no	n/a	n/a
1157.289062	n/a	296266	largeHSmallT	correct	incongruent	0.5625	no	H	T
1157.851562	n/a	296410	responseSmallT	correct	n/a	0.5625	no	n/a	n/a
1158.917969	n/a	296683	largeTSmallH	correct	incongruent	0.41406	no	T	H
1159.332031	n/a	296789	responseSmallH	correct	n/a	0.41406	no	n/a	n/a
1160.394531	n/a	297061	largeHSmallH	correct	congruent	0.60938	no	H	H
1161.003906	n/a	297217	responseSmallH	correct	n/a	0.60938	no	n/a	n/a
1162.0625	n/a	297488	largeTSmallT	correct	congruent	0.40234	no	T	T
1162.464844	n/a	297591	responseSmallT	correct	n/a	0.40234	no	n/a	n/a
1163.53125	n/a	297864	largeTSmallH	correct	incongruent	0.46484	no	T	H
1163.996094	n/a	297983	responseSmallH	correct	n/a	0.46484	no	n/a	n/a
1165.0625	n/a	298256	largeHSmallH	correct	congruent	0.49609	no	H	H
1165.558594	n/a	298383	responseSmallH	correct	n/a	0.49609	no	n/a	n/a
1166.621094	n/a	298655	largeHSmallH	correct	congruent	0.58594	no	H	H
1167.207031	n/a	298805	responseSmallH	correct	n/a	0.58594	no	n/a	n/a
1168.277344	n/a	299079	largeTSmallH	correct	incongruent	0.54688	no	T	H
1168.824219	n/a	299219	responseSmallH	correct	n/a	0.54688	no	n/a	n/a
1169.902344	n/a	299495	largeHSmallT	correct	incongruent	0.55078	no	H	T
1170.453125	n/a	299636	responseSmallT	correct	n/a	0.55078	no	n/a	n/a
1171.53125	n/a	299912	largeHSmallT	correct	incongruent	0.54297	no	H	T
1172.074219	n/a	300051	responseSmallT	correct	n/a	0.54297	no	n/a	n/a
1173.144531	n/a	300325	largeHSmallH	correct	congruent	0.49609	no	H	H
1173.640625	n/a	300452	responseSmallH	correct	n/a	0.49609	no	n/a	n/a
1174.789062	n/a	300746	largeHSmallT	correct	incongruent	0.66016	no	H	T
1175.449219	n/a	300915	responseSmallT	correct	n/a	0.66016	no	n/a	n/a
1176.515625	n/a	301188	largeTSmallT	correct	congruent	0.49609	no	T	T
1177.011719	n/a	301315	responseSmallT	correct	n/a	0.49609	no	n/a	n/a
1178.089844	n/a	301591	largeHSmallH	correct	congruent	0.52344	no	H	H
1178.613281	n/a	301725	responseSmallH	correct	n/a	0.52344	no	n/a	n/a
1179.675781	n/a	301997	largeTSmallH	correct	incongruent	0.625	no	T	H
1180.300781	n/a	302157	responseSmallH	correct	n/a	0.625	no	n/a	n/a
1181.367188	n/a	302430	largeTSmallT	correct	congruent	0.43359	no	T	T
1181.800781	n/a	302541	responseSmallT	correct	n/a	0.43359	no	n/a	n/a
1182.875	n/a	302816	largeHSmallT	error	incongruent	0.48047	no	H	T
1183.355469	n/a	302939	responseSmallH	error	n/a	0.48047	no	n/a	n/a
1184.421875	n/a	303212	largeTSmallH	correct	incongruent	0.5625	no	T	H
1184.984375	n/a	303356	responseSmallH	correct	n/a	0.5625	no	n/a	n/a
1186.050781	n/a	303629	largeHSmallH	correct	congruent	0.46484	no	H	H
1186.515625	n/a	303748	responseSmallH	correct	n/a	0.46484	no	n/a	n/a
1187.59375	n/a	304024	largeTSmallT	correct	congruent	0.45312	no	T	T
1188.046875	n/a	304140	responseSmallT	correct	n/a	0.45312	no	n/a	n/a
1189.117188	n/a	304414	largeHSmallT	correct	incongruent	0.71484	no	H	T
1189.832031	n/a	304597	responseSmallT	correct	n/a	0.71484	no	n/a	n/a
1190.902344	n/a	304871	largeTSmallT	correct	congruent	0.57031	no	T	T
1191.472656	n/a	305017	responseSmallT	correct	n/a	0.57031	no	n/a	n/a
1192.527344	n/a	305287	largeTSmallT	correct	congruent	0.41016	no	T	T
1192.9375	n/a	305392	responseSmallT	correct	n/a	0.41016	no	n/a	n/a
1194.007812	n/a	305666	largeHSmallH	correct	congruent	0.45703	no	H	H
1194.464844	n/a	305783	responseSmallH	correct	n/a	0.45703	no	n/a	n/a
1195.527344	n/a	306055	largeHSmallH	correct	congruent	0.44141	no	H	H
1195.96875	n/a	306168	responseSmallH	correct	n/a	0.44141	no	n/a	n/a
1197.046875	n/a	306444	largeHSmallT	correct	incongruent	0.63672	no	H	T
1197.683594	n/a	306607	responseSmallT	correct	n/a	0.63672	no	n/a	n/a
1198.796875	n/a	306892	largeTSmallT	correct	congruent	0.42578	no	T	T
1199.222656	n/a	307001	responseSmallT	correct	n/a	0.42578	no	n/a	n/a
1200.289062	n/a	307274	largeTSmallT	correct	congruent	0.41406	no	T	T
1200.703125	n/a	307380	responseSmallT	correct	n/a	0.41406	no	n/a	n/a
1201.792969	n/a	307659	largeHSmallT	correct	incongruent	0.41797	no	H	T
1202.210938	n/a	307766	responseSmallT	correct	n/a	0.41797	no	n/a	n/a
1203.289062	n/a	308042	largeHSmallH	correct	congruent	0.71094	no	H	H
1204	n/a	308224	responseSmallH	correct	n/a	0.71094	no	n/a	n/a
1205.074219	n/a	308499	largeTSmallH	correct	incongruent	0.51562	no	T	H
1205.589844	n/a	308631	responseSmallH	correct	n/a	0.51562	no	n/a	n/a
1206.675781	n/a	308909	largeTSmallT	correct	congruent	0.54688	no	T	T
1207.222656	n/a	309049	responseSmallT	correct	n/a	0.54688	no	n/a	n/a
1208.289062	n/a	309322	largeHSmallT	correct	incongruent	0.42969	no	H	T
1208.71875	n/a	309432	responseSmallT	correct	n/a	0.42969	no	n/a	n/a
1209.796875	n/a	309708	largeTSmallT	correct	congruent	0.37891	no	T	T
1210.175781	n/a	309805	responseSmallT	correct	n/a	0.37891	no	n/a	n/a
1211.234375	n/a	310076	largeHSmallT	correct	incongruent	0.38281	no	H	T
