onset	duration	sample	value	stimulus	response_type	response_time
43.51171875	n/a	11139	A	nontarget	n/a	n/a
45.2578125	n/a	11586	A	target	hit	707.0312
45.96484375	n/a	11767	rt	n/a	hit	707.0312
46.92578125	n/a	12013	C	nontarget	n/a	n/a
48.5078125	n/a	12418	C	target	hit	601.5625
49.109375	n/a	12572	rt	n/a	hit	601.5625
50.08203125	n/a	12821	D	nontarget	n/a	n/a
51.65625	n/a	13224	A	nontarget	n/a	n/a
53.2265625	n/a	13626	A	target	hit	644.5312
53.87109375	n/a	13791	rt	n/a	hit	644.5312
54.8046875	n/a	14030	B	nontarget	n/a	n/a
56.375	n/a	14432	C	nontarget	n/a	n/a
57.96484375	n/a	14839	B	nontarget	n/a	n/a
59.53515625	n/a	15241	B	target	hit	753.9062
60.2890625	n/a	15434	rt	n/a	hit	753.9062
61.109375	n/a	15644	D	nontarget	n/a	n/a
62.6796875	n/a	16046	C	nontarget	n/a	n/a
64.2578125	n/a	16450	B	nontarget	n/a	n/a
65.828125	n/a	16852	D	nontarget	n/a	n/a
67.390625	n/a	17252	A	nontarget	n/a	n/a
68.97265625	n/a	17657	D	nontarget	n/a	n/a
70.55078125	n/a	18061	D	target	hit	757.8125
71.30859375	n/a	18255	rt	n/a	hit	757.8125
72.12109375	n/a	18463	C	nontarget	n/a	n/a
73.6953125	n/a	18866	A	nontarget	n/a	n/a
75.26953125	n/a	19269	B	nontarget	n/a	n/a
76.83984375	n/a	19671	D	nontarget	n/a	n/a
78.4140625	n/a	20074	A	nontarget	n/a	n/a
79.9765625	n/a	20474	B	nontarget	n/a	n/a
81.5625	n/a	20880	D	nontarget	n/a	n/a
83.13671875	n/a	21283	A	nontarget	n/a	n/a
84.7109375	n/a	21686	D	nontarget	n/a	n/a
86.28125	n/a	22088	D	target	hit	683.5938
86.96484375	n/a	22263	rt	n/a	hit	683.5938
87.85546875	n/a	22491	D	target	hit	820.3125
88.67578125	n/a	22701	rt	n/a	hit	820.3125
89.44140625	n/a	22897	C	nontarget	n/a	n/a
91.015625	n/a	23300	C	target	hit	582.0312
91.59765625	n/a	23449	rt	n/a	hit	582.0312
92.58984375	n/a	23703	A	nontarget	n/a	n/a
94.16015625	n/a	24105	B	nontarget	n/a	n/a
95.734375	n/a	24508	D	nontarget	n/a	n/a
97.3203125	n/a	24914	C	nontarget	n/a	n/a
98.89453125	n/a	25317	C	target	hit	789.0625
99.68359375	n/a	25519	rt	n/a	hit	789.0625
100.46875	n/a	25720	B	nontarget	n/a	n/a
102.0390625	n/a	26122	C	nontarget	n/a	n/a
103.6171875	n/a	26526	D	nontarget	n/a	n/a
105.1875	n/a	26928	C	nontarget	n/a	n/a
106.7734375	n/a	27334	B	nontarget	n/a	n/a
108.3515625	n/a	27738	C	nontarget	n/a	n/a
109.921875	n/a	28140	D	nontarget	n/a	n/a
111.4960938	n/a	28543	B	nontarget	n/a	n/a
113.0703125	n/a	28946	C	nontarget	n/a	n/a
114.640625	n/a	29348	B	nontarget	n/a	n/a
116.2148438	n/a	29751	C	nontarget	n/a	n/a
117.7890625	n/a	30154	A	nontarget	n/a	n/a
119.359375	n/a	30556	B	nontarget	n/a	n/a
120.9335938	n/a	30959	D	nontarget	n/a	n/a
122.5078125	n/a	31362	B	nontarget	n/a	n/a
124.078125	n/a	31764	B	target	hit	800.7812
124.8789062	n/a	31969	rt	n/a	hit	800.7812
125.6679688	n/a	32171	B	target	hit	726.5625
126.3945312	n/a	32357	rt	n/a	hit	726.5625
127.2421875	n/a	32574	A	nontarget	n/a	n/a
128.8125	n/a	32976	D	nontarget	n/a	n/a
130.390625	n/a	33380	C	nontarget	n/a	n/a
131.9609375	n/a	33782	C	target	hit	765.625
132.7265625	n/a	33978	rt	n/a	hit	765.625
133.53125	n/a	34184	B	nontarget	n/a	n/a
135.09375	n/a	34584	B	target	hit	503.9062
135.5976562	n/a	34713	rt	n/a	hit	503.9062
136.6796875	n/a	34990	C	nontarget	n/a	n/a
138.2539062	n/a	35393	D	nontarget	n/a	n/a
139.8320312	n/a	35797	C	nontarget	false_alarm	718.75
140.5507812	n/a	35981	rt	n/a	false_alarm	718.75
141.3984375	n/a	36198	D	nontarget	n/a	n/a
142.9726562	n/a	36601	D	target	hit	832.0312
143.8046875	n/a	36814	rt	n/a	hit	832.0312
144.546875	n/a	37004	C	nontarget	n/a	n/a
146.1328125	n/a	37410	A	nontarget	n/a	n/a
147.7070312	n/a	37813	C	nontarget	n/a	n/a
149.2773438	n/a	38215	A	nontarget	n/a	n/a
150.8554688	n/a	38619	A	target	hit	542.9688
151.3984375	n/a	38758	rt	n/a	hit	542.9688
152.4296875	n/a	39022	C	nontarget	n/a	n/a
154.0117188	n/a	39427	A	nontarget	n/a	n/a
155.5898438	n/a	39831	C	nontarget	n/a	n/a
157.1601562	n/a	40233	B	nontarget	n/a	n/a
158.734375	n/a	40636	A	nontarget	n/a	n/a
160.3085938	n/a	41039	D	nontarget	n/a	n/a
161.8789062	n/a	41441	B	nontarget	n/a	n/a
163.4648438	n/a	41847	A	nontarget	n/a	n/a
165.0390625	n/a	42250	D	nontarget	n/a	n/a
166.6132812	n/a	42653	D	target	hit	828.125
167.4414062	n/a	42865	rt	n/a	hit	828.125
168.1875	n/a	43056	D	target	hit	781.25
168.96875	n/a	43256	rt	n/a	hit	781.25
169.7578125	n/a	43458	D	target	hit	875
170.6328125	n/a	43682	rt	n/a	hit	875
171.3320312	n/a	43861	C	nontarget	n/a	n/a
172.9179688	n/a	44267	D	nontarget	n/a	n/a
174.4921875	n/a	44670	C	nontarget	n/a	n/a
176.0703125	n/a	45074	C	target	hit	921.875
176.9921875	n/a	45310	rt	n/a	hit	921.875
177.6367188	n/a	45475	C	target	hit	605.4688
178.2421875	n/a	45630	rt	n/a	hit	605.4688
179.2148438	n/a	45879	C	target	hit	515.625
179.7304688	n/a	46011	rt	n/a	hit	515.625
180.7890625	n/a	46282	D	nontarget	n/a	n/a
182.3710938	n/a	46687	B	nontarget	n/a	n/a
183.9492188	n/a	47091	C	nontarget	n/a	n/a
185.5195312	n/a	47493	C	target	hit	816.4062
186.3359375	n/a	47702	rt	n/a	hit	816.4062
187.09375	n/a	47896	A	nontarget	n/a	n/a
188.6679688	n/a	48299	C	nontarget	n/a	n/a
190.2382812	n/a	48701	D	nontarget	n/a	n/a
191.796875	n/a	49100	B	nontarget	n/a	n/a
193.359375	n/a	49500	C	nontarget	n/a	n/a
194.9453125	n/a	49906	B	nontarget	n/a	n/a
196.5195312	n/a	50309	C	nontarget	n/a	n/a
198.09375	n/a	50712	A	nontarget	n/a	n/a
199.6679688	n/a	51115	D	nontarget	n/a	n/a
201.2382812	n/a	51517	B	nontarget	n/a	n/a
202.8125	n/a	51920	A	nontarget	n/a	n/a
204.375	n/a	52320	B	nontarget	n/a	n/a
205.9570312	n/a	52725	A	nontarget	n/a	n/a
207.53125	n/a	53128	A	target	hit	742.1875
208.2734375	n/a	53318	rt	n/a	hit	742.1875
209.109375	n/a	53532	A	target	hit	699.2188
209.8085938	n/a	53711	rt	n/a	hit	699.2188
210.6757812	n/a	53933	D	nontarget	n/a	n/a
212.25	n/a	54336	D	target	miss	n/a
213.8359375	n/a	54742	D	target	hit	878.9062
214.7148438	n/a	54967	rt	n/a	hit	878.9062
215.4140625	n/a	55146	D	target	hit	574.2188
215.9882812	n/a	55293	rt	n/a	hit	574.2188
216.9882812	n/a	55549	A	nontarget	n/a	n/a
218.5585938	n/a	55951	D	nontarget	n/a	n/a
220.1328125	n/a	56354	D	target	hit	1128.9062
221.2617188	n/a	56643	rt	n/a	hit	1128.9062
221.7070312	n/a	56757	B	nontarget	n/a	n/a
223.2890625	n/a	57162	B	target	hit	726.5625
224.015625	n/a	57348	rt	n/a	hit	726.5625
224.8671875	n/a	57566	D	nontarget	n/a	n/a
226.4375	n/a	57968	B	nontarget	n/a	n/a
228.0117188	n/a	58371	B	target	hit	945.3125
228.9570312	n/a	58613	rt	n/a	hit	945.3125
229.5859375	n/a	58774	B	target	hit	570.3125
230.15625	n/a	58920	rt	n/a	hit	570.3125
231.15625	n/a	59176	A	nontarget	n/a	n/a
232.7421875	n/a	59582	C	nontarget	n/a	n/a
234.3203125	n/a	59986	D	nontarget	n/a	n/a
235.890625	n/a	60388	A	nontarget	n/a	n/a
237.46875	n/a	60792	B	nontarget	n/a	n/a
239.0351562	n/a	61193	A	nontarget	n/a	n/a
240.6132812	n/a	61597	B	nontarget	n/a	n/a
242.1953125	n/a	62002	D	nontarget	n/a	n/a
243.7734375	n/a	62406	B	nontarget	n/a	n/a
245.3476562	n/a	62809	A	nontarget	n/a	n/a
246.9179688	n/a	63211	A	target	hit	554.6875
247.4726562	n/a	63353	rt	n/a	hit	554.6875
248.4921875	n/a	63614	B	nontarget	n/a	n/a
250.078125	n/a	64020	C	nontarget	n/a	n/a
251.6523438	n/a	64423	B	nontarget	n/a	n/a
253.2265625	n/a	64826	D	nontarget	n/a	n/a
254.796875	n/a	65228	A	nontarget	n/a	n/a
256.3710938	n/a	65631	D	nontarget	n/a	n/a
257.9453125	n/a	66034	A	nontarget	n/a	n/a
259.515625	n/a	66436	A	target	hit	875
260.390625	n/a	66660	rt	n/a	hit	875
261.0898438	n/a	66839	A	target	hit	886.7188
261.9765625	n/a	67066	rt	n/a	hit	886.7188
262.6679688	n/a	67243	D	nontarget	n/a	n/a
264.2382812	n/a	67645	D	target	miss	n/a
265.8125	n/a	68048	C	nontarget	miss	n/a
267.3867188	n/a	68451	C	target	hit	1000
268.3867188	n/a	68707	rt	n/a	hit	1000
268.9570312	n/a	68853	D	nontarget	n/a	n/a
270.5429688	n/a	69259	D	target	hit	1132.8125
271.6757812	n/a	69549	rt	n/a	hit	1132.8125
272.1171875	n/a	69662	D	target	hit	1070.3125
273.1875	n/a	69936	rt	n/a	hit	1070.3125
273.6914062	n/a	70065	A	nontarget	n/a	n/a
275.265625	n/a	70468	B	nontarget	n/a	n/a
276.8359375	n/a	70870	C	nontarget	n/a	n/a
278.4101562	n/a	71273	A	nontarget	n/a	n/a
279.9960938	n/a	71679	D	nontarget	n/a	n/a
281.5703125	n/a	72082	B	nontarget	n/a	n/a
283.1445312	n/a	72485	D	nontarget	n/a	n/a
284.7148438	n/a	72887	C	nontarget	n/a	n/a
286.2890625	n/a	73290	B	nontarget	n/a	n/a
287.8632812	n/a	73693	B	target	miss	n/a
289.4492188	n/a	74099	D	nontarget	miss	n/a
291.0273438	n/a	74503	A	nontarget	n/a	n/a
292.5976562	n/a	74905	A	target	hit	718.75
293.3164062	n/a	75089	rt	n/a	hit	718.75
294.171875	n/a	75308	C	nontarget	n/a	n/a
295.7460938	n/a	75711	C	target	hit	949.2188
296.6953125	n/a	75954	rt	n/a	hit	949.2188
297.3164062	n/a	76113	C	target	hit	804.6875
298.1210938	n/a	76319	rt	n/a	hit	804.6875
298.8789062	n/a	76513	C	target	hit	898.4375
299.7773438	n/a	76743	rt	n/a	hit	898.4375
300.4648438	n/a	76919	A	nontarget	n/a	n/a
302.0390625	n/a	77322	C	nontarget	n/a	n/a
303.609375	n/a	77724	C	target	hit	859.375
304.46875	n/a	77944	rt	n/a	hit	859.375
305.1875	n/a	78128	D	nontarget	n/a	n/a
306.7539062	n/a	78529	B	nontarget	n/a	n/a
308.34375	n/a	78936	A	nontarget	n/a	n/a
309.9140625	n/a	79338	B	nontarget	n/a	n/a
311.4921875	n/a	79742	B	target	hit	671.875
312.1640625	n/a	79914	rt	n/a	hit	671.875
313.0625	n/a	80144	D	nontarget	n/a	n/a
314.6367188	n/a	80547	A	nontarget	n/a	n/a
316.2109375	n/a	80950	D	nontarget	n/a	n/a
317.796875	n/a	81356	B	nontarget	n/a	n/a
319.3710938	n/a	81759	C	nontarget	n/a	n/a
320.9453125	n/a	82162	D	nontarget	n/a	n/a
322.515625	n/a	82564	A	nontarget	n/a	n/a
324.0898438	n/a	82967	B	nontarget	n/a	n/a
325.6640625	n/a	83370	C	nontarget	n/a	n/a
327.25	n/a	83776	B	nontarget	n/a	n/a
328.8242188	n/a	84179	A	nontarget	n/a	n/a
330.3945312	n/a	84581	A	target	hit	761.7188
331.15625	n/a	84776	rt	n/a	hit	761.7188
331.96875	n/a	84984	A	target	hit	660.1562
332.6289062	n/a	85153	rt	n/a	hit	660.1562
333.5429688	n/a	85387	A	target	hit	593.75
334.1367188	n/a	85539	rt	n/a	hit	593.75
335.1132812	n/a	85789	C	nontarget	n/a	n/a
336.6875	n/a	86192	C	target	miss	n/a
338.265625	n/a	86596	C	target	hit	70.3125
338.3359375	n/a	86614	rt	n/a	hit	70.3125
339.8359375	n/a	86998	D	nontarget	n/a	n/a
341.4101562	n/a	87401	B	nontarget	n/a	n/a
342.984375	n/a	87804	A	nontarget	n/a	n/a
344.5546875	n/a	88206	A	target	hit	843.75
345.3984375	n/a	88422	rt	n/a	hit	843.75
346.140625	n/a	88612	C	nontarget	n/a	n/a
347.7148438	n/a	89015	B	nontarget	n/a	n/a
349.2890625	n/a	89418	D	nontarget	n/a	n/a
350.8632812	n/a	89821	C	nontarget	n/a	n/a
352.4335938	n/a	90223	D	nontarget	n/a	n/a
354.0078125	n/a	90626	B	nontarget	n/a	n/a
355.59375	n/a	91032	D	nontarget	n/a	n/a
357.171875	n/a	91436	D	target	hit	988.2812
358.1601562	n/a	91689	rt	n/a	hit	988.2812
358.7421875	n/a	91838	C	nontarget	n/a	n/a
360.3125	n/a	92240	A	nontarget	n/a	n/a
361.890625	n/a	92644	C	nontarget	n/a	n/a
363.4648438	n/a	93047	C	target	hit	679.6875
364.1445312	n/a	93221	rt	n/a	hit	679.6875
365.046875	n/a	93452	B	nontarget	n/a	n/a
366.625	n/a	93856	D	nontarget	n/a	n/a
368.1953125	n/a	94258	D	target	hit	1265.625
369.4609375	n/a	94582	rt	n/a	hit	1265.625
369.7695312	n/a	94661	C	nontarget	n/a	n/a
371.34375	n/a	95064	D	nontarget	n/a	n/a
372.9140625	n/a	95466	B	nontarget	n/a	n/a
374.4882812	n/a	95869	D	nontarget	n/a	n/a
376.0625	n/a	96272	B	nontarget	n/a	n/a
377.6328125	n/a	96674	A	nontarget	n/a	n/a
379.2070312	n/a	97077	B	nontarget	n/a	n/a
380.7851562	n/a	97481	D	nontarget	n/a	n/a
382.3554688	n/a	97883	C	nontarget	n/a	n/a
383.9296875	n/a	98286	A	nontarget	n/a	n/a
385.5	n/a	98688	C	nontarget	n/a	n/a
387.0742188	n/a	99091	D	nontarget	n/a	n/a
388.6484375	n/a	99494	A	nontarget	n/a	n/a
390.2226562	n/a	99897	B	nontarget	n/a	n/a
391.7929688	n/a	100299	C	nontarget	n/a	n/a
393.3710938	n/a	100703	D	nontarget	n/a	n/a
394.953125	n/a	101108	D	target	hit	921.875
395.875	n/a	101344	rt	n/a	hit	921.875
396.5273438	n/a	101511	C	nontarget	n/a	n/a
398.1015625	n/a	101914	C	target	hit	1125
399.2265625	n/a	102202	rt	n/a	hit	1125
399.671875	n/a	102316	A	nontarget	n/a	n/a
401.25	n/a	102720	A	target	hit	546.875
401.796875	n/a	102860	rt	n/a	hit	546.875
402.8242188	n/a	103123	A	target	hit	652.3438
403.4765625	n/a	103290	rt	n/a	hit	652.3438
404.40625	n/a	103528	B	nontarget	n/a	n/a
405.984375	n/a	103932	A	nontarget	n/a	n/a
407.5546875	n/a	104334	C	nontarget	n/a	n/a
409.1289062	n/a	104737	B	nontarget	n/a	n/a
410.703125	n/a	105140	D	nontarget	n/a	n/a
412.2734375	n/a	105542	C	nontarget	n/a	n/a
413.8476562	n/a	105945	A	nontarget	n/a	n/a
415.421875	n/a	106348	B	nontarget	n/a	n/a
416.9921875	n/a	106750	B	target	hit	746.0938
417.7382812	n/a	106941	rt	n/a	hit	746.0938
418.5664062	n/a	107153	D	nontarget	n/a	n/a
420.140625	n/a	107556	A	nontarget	n/a	n/a
421.7109375	n/a	107958	C	nontarget	n/a	n/a
423.3007812	n/a	108365	C	target	miss	n/a
424.875	n/a	108768	A	nontarget	miss	n/a
426.4453125	n/a	109170	D	nontarget	n/a	n/a
428.0234375	n/a	109574	B	nontarget	n/a	n/a
429.59375	n/a	109976	A	nontarget	n/a	n/a
431.1679688	n/a	110379	D	nontarget	n/a	n/a
432.7421875	n/a	110782	D	target	hit	996.0938
433.7382812	n/a	111037	rt	n/a	hit	996.0938
434.3242188	n/a	111187	D	target	hit	726.5625
435.0507812	n/a	111373	rt	n/a	hit	726.5625
435.9023438	n/a	111591	C	nontarget	n/a	n/a
437.4726562	n/a	111993	C	target	hit	558.5938
438.03125	n/a	112136	rt	n/a	hit	558.5938
439.046875	n/a	112396	B	nontarget	n/a	n/a
440.6328125	n/a	112802	C	nontarget	n/a	n/a
442.2070312	n/a	113205	B	nontarget	n/a	n/a
443.78125	n/a	113608	D	nontarget	n/a	n/a
445.3515625	n/a	114010	C	nontarget	n/a	n/a
446.9257812	n/a	114413	A	nontarget	n/a	n/a
448.5	n/a	114816	A	target	hit	648.4375
449.1484375	n/a	114982	rt	n/a	hit	648.4375
450.0859375	n/a	115222	C	nontarget	n/a	n/a
451.6640625	n/a	115626	B	nontarget	n/a	n/a
453.2304688	n/a	116027	C	nontarget	n/a	n/a
454.8085938	n/a	116431	C	target	hit	558.5938
455.3671875	n/a	116574	rt	n/a	hit	558.5938
456.3789062	n/a	116833	C	target	hit	671.875
457.0507812	n/a	117005	rt	n/a	hit	671.875
457.953125	n/a	117236	A	nontarget	n/a	n/a
459.5273438	n/a	117639	B	nontarget	n/a	n/a
461.1132812	n/a	118045	C	nontarget	n/a	n/a
462.6875	n/a	118448	D	nontarget	n/a	n/a
464.2617188	n/a	118851	A	nontarget	n/a	n/a
465.8320312	n/a	119253	B	nontarget	n/a	n/a
467.40625	n/a	119656	A	nontarget	n/a	n/a
468.9921875	n/a	120062	A	target	hit	968.75
469.9609375	n/a	120310	rt	n/a	hit	968.75
470.5664062	n/a	120465	A	target	hit	527.3438
471.09375	n/a	120600	rt	n/a	hit	527.3438
472.140625	n/a	120868	C	nontarget	n/a	n/a
473.7109375	n/a	121270	A	nontarget	n/a	n/a
475.2851562	n/a	121673	D	nontarget	n/a	n/a
476.859375	n/a	122076	D	target	hit	960.9375
477.8203125	n/a	122322	rt	n/a	hit	960.9375
478.4296875	n/a	122478	C	nontarget	n/a	n/a
480.0039062	n/a	122881	C	target	hit	781.25
480.7851562	n/a	123081	rt	n/a	hit	781.25
481.5820312	n/a	123285	B	nontarget	n/a	n/a
483.1523438	n/a	123687	B	target	hit	816.4062
483.96875	n/a	123896	rt	n/a	hit	816.4062
