onset	duration	sample	value	response_type	congruence	response_time	response_out_of_range	largeletter	smallletter
30.74609375	n/a	7871	largeTSmallT	correct	congruent	1.3281	no	T	T
32.07421875	n/a	8211	responseLargeT	correct	n/a	1.3281	no	n/a	n/a
33.1328125	n/a	8482	largeHSmallH	correct	congruent	1.2422	no	H	H
34.375	n/a	8800	responseLargeH	correct	n/a	1.2422	no	n/a	n/a
35.4375	n/a	9072	largeTSmallH	correct	incongruent	1.2773	no	T	H
36.71484375	n/a	9399	responseLargeT	correct	n/a	1.2773	no	n/a	n/a
37.78515625	n/a	9673	largeHSmallT	correct	incongruent	1.293	no	H	T
39.078125	n/a	10004	responseLargeH	correct	n/a	1.293	no	n/a	n/a
40.14453125	n/a	10277	largeTSmallT	correct	congruent	0.66406	no	T	T
40.80859375	n/a	10447	responseLargeT	correct	n/a	0.66406	no	n/a	n/a
41.86328125	n/a	10717	largeHSmallH	correct	congruent	0.51953	no	H	H
42.3828125	n/a	10850	responseLargeH	correct	n/a	0.51953	no	n/a	n/a
43.44921875	n/a	11123	largeTSmallT	correct	congruent	0.48828	no	T	T
43.9375	n/a	11248	responseLargeT	correct	n/a	0.48828	no	n/a	n/a
45.01171875	n/a	11523	largeTSmallT	correct	congruent	0.53125	no	T	T
45.54296875	n/a	11659	responseLargeT	correct	n/a	0.53125	no	n/a	n/a
46.609375	n/a	11932	largeTSmallH	correct	incongruent	0.91406	no	T	H
47.5234375	n/a	12166	responseLargeT	correct	n/a	0.91406	no	n/a	n/a
48.59765625	n/a	12441	largeHSmallH	correct	congruent	0.48828	no	H	H
49.0859375	n/a	12566	responseLargeH	correct	n/a	0.48828	no	n/a	n/a
50.15625	n/a	12840	largeTSmallH	correct	incongruent	0.48047	no	T	H
50.63671875	n/a	12963	responseLargeT	correct	n/a	0.48047	no	n/a	n/a
51.703125	n/a	13236	largeTSmallT	correct	congruent	0.52344	no	T	T
52.2265625	n/a	13370	responseLargeT	correct	n/a	0.52344	no	n/a	n/a
53.2890625	n/a	13642	largeHSmallT	correct	incongruent	0.75391	no	H	T
54.04296875	n/a	13835	responseLargeH	correct	n/a	0.75391	no	n/a	n/a
55.1171875	n/a	14110	largeTSmallH	correct	incongruent	0.46875	no	T	H
55.5859375	n/a	14230	responseLargeT	correct	n/a	0.46875	no	n/a	n/a
56.6640625	n/a	14506	largeTSmallH	correct	incongruent	0.54688	no	T	H
57.2109375	n/a	14646	responseLargeT	correct	n/a	0.54688	no	n/a	n/a
58.27734375	n/a	14919	largeHSmallH	correct	congruent	0.44531	no	H	H
58.72265625	n/a	15033	responseLargeH	correct	n/a	0.44531	no	n/a	n/a
59.796875	n/a	15308	largeTSmallH	error	incongruent	0.62109	no	T	H
60.41796875	n/a	15467	responseLargeH	error	n/a	0.62109	no	n/a	n/a
61.4765625	n/a	15738	largeHSmallH	correct	congruent	0.61328	no	H	H
62.08984375	n/a	15895	responseLargeH	correct	n/a	0.61328	no	n/a	n/a
63.171875	n/a	16172	largeHSmallH	correct	congruent	0.58984	no	H	H
63.76171875	n/a	16323	responseLargeH	correct	n/a	0.58984	no	n/a	n/a
64.8359375	n/a	16598	largeHSmallT	correct	incongruent	0.50781	no	H	T
65.34375	n/a	16728	responseLargeH	correct	n/a	0.50781	no	n/a	n/a
66.41015625	n/a	17001	largeTSmallH	correct	incongruent	0.50391	no	T	H
66.9140625	n/a	17130	responseLargeT	correct	n/a	0.50391	no	n/a	n/a
67.984375	n/a	17404	largeTSmallT	correct	congruent	0.48047	no	T	T
68.46484375	n/a	17527	responseLargeT	correct	n/a	0.48047	no	n/a	n/a
69.53125	n/a	17800	largeHSmallH	correct	congruent	0.5	no	H	H
70.03125	n/a	17928	responseLargeH	correct	n/a	0.5	no	n/a	n/a
71.10546875	n/a	18203	largeTSmallH	correct	incongruent	0.60938	no	T	H
71.71484375	n/a	18359	responseLargeT	correct	n/a	0.60938	no	n/a	n/a
72.796875	n/a	18636	largeHSmallT	correct	incongruent	0.57422	no	H	T
73.37109375	n/a	18783	responseLargeH	correct	n/a	0.57422	no	n/a	n/a
74.4375	n/a	19056	largeTSmallT	correct	congruent	0.55469	no	T	T
74.9921875	n/a	19198	responseLargeT	correct	n/a	0.55469	no	n/a	n/a
76.0625	n/a	19472	largeHSmallT	correct	incongruent	0.625	no	H	T
76.6875	n/a	19632	responseLargeH	correct	n/a	0.625	no	n/a	n/a
77.7578125	n/a	19906	largeHSmallH	correct	congruent	0.50781	no	H	H
78.265625	n/a	20036	responseLargeH	correct	n/a	0.50781	no	n/a	n/a
79.34375	n/a	20312	largeTSmallH	correct	incongruent	0.52344	no	T	H
79.8671875	n/a	20446	responseLargeT	correct	n/a	0.52344	no	n/a	n/a
80.9296875	n/a	20718	largeHSmallT	correct	incongruent	0.41797	no	H	T
81.34765625	n/a	20825	responseLargeH	correct	n/a	0.41797	no	n/a	n/a
82.41015625	n/a	21097	largeHSmallH	correct	congruent	0.55078	no	H	H
82.9609375	n/a	21238	responseLargeH	correct	n/a	0.55078	no	n/a	n/a
84.0234375	n/a	21510	largeTSmallH	correct	incongruent	0.52344	no	T	H
84.546875	n/a	21644	responseLargeT	correct	n/a	0.52344	no	n/a	n/a
85.609375	n/a	21916	largeHSmallH	correct	congruent	0.49609	no	H	H
86.10546875	n/a	22043	responseLargeH	correct	n/a	0.49609	no	n/a	n/a
87.171875	n/a	22316	largeHSmallT	correct	incongruent	0.60938	no	H	T
87.78125	n/a	22472	responseLargeH	correct	n/a	0.60938	no	n/a	n/a
88.86328125	n/a	22749	largeTSmallT	correct	congruent	0.46484	no	T	T
89.328125	n/a	22868	responseLargeT	correct	n/a	0.46484	no	n/a	n/a
90.3984375	n/a	23142	largeTSmallH	correct	incongruent	0.55078	no	T	H
90.94921875	n/a	23283	responseLargeT	correct	n/a	0.55078	no	n/a	n/a
92.0234375	n/a	23558	largeHSmallT	correct	incongruent	0.66406	no	H	T
92.6875	n/a	23728	responseLargeH	correct	n/a	0.66406	no	n/a	n/a
93.7578125	n/a	24002	largeHSmallH	correct	congruent	0.53125	no	H	H
94.2890625	n/a	24138	responseLargeH	correct	n/a	0.53125	no	n/a	n/a
95.35546875	n/a	24411	largeTSmallT	correct	congruent	0.46094	no	T	T
95.81640625	n/a	24529	responseLargeT	correct	n/a	0.46094	no	n/a	n/a
96.890625	n/a	24804	largeTSmallT	correct	congruent	0.49219	no	T	T
97.3828125	n/a	24930	responseLargeT	correct	n/a	0.49219	no	n/a	n/a
98.44921875	n/a	25203	largeHSmallT	correct	incongruent	0.49609	no	H	T
98.9453125	n/a	25330	responseLargeH	correct	n/a	0.49609	no	n/a	n/a
100.0117188	n/a	25603	largeHSmallH	correct	congruent	0.67578	no	H	H
100.6875	n/a	25776	responseLargeH	correct	n/a	0.67578	no	n/a	n/a
101.7578125	n/a	26050	largeTSmallH	correct	incongruent	0.64453	no	T	H
102.4023438	n/a	26215	responseLargeT	correct	n/a	0.64453	no	n/a	n/a
103.4765625	n/a	26490	largeHSmallH	correct	congruent	0.50391	no	H	H
103.9804688	n/a	26619	responseLargeH	correct	n/a	0.50391	no	n/a	n/a
105.0507812	n/a	26893	largeHSmallH	correct	congruent	0.46094	no	H	H
105.5117188	n/a	27011	responseLargeH	correct	n/a	0.46094	no	n/a	n/a
106.5820312	n/a	27285	largeTSmallH	correct	incongruent	0.5	no	T	H
107.0820312	n/a	27413	responseLargeT	correct	n/a	0.5	no	n/a	n/a
108.15625	n/a	27688	largeHSmallT	correct	incongruent	0.5625	no	H	T
108.71875	n/a	27832	responseLargeH	correct	n/a	0.5625	no	n/a	n/a
109.796875	n/a	28108	largeHSmallT	correct	incongruent	0.66797	no	H	T
110.4648438	n/a	28279	responseLargeH	correct	n/a	0.66797	no	n/a	n/a
111.5429688	n/a	28555	largeHSmallH	correct	congruent	0.625	no	H	H
112.1679688	n/a	28715	responseLargeH	correct	n/a	0.625	no	n/a	n/a
113.234375	n/a	28988	largeTSmallH	correct	incongruent	0.57031	no	T	H
113.8046875	n/a	29134	responseLargeT	correct	n/a	0.57031	no	n/a	n/a
114.875	n/a	29408	largeTSmallT	correct	congruent	0.47266	no	T	T
115.3476562	n/a	29529	responseLargeT	correct	n/a	0.47266	no	n/a	n/a
116.421875	n/a	29804	largeTSmallH	error	incongruent	0.51562	no	T	H
116.9375	n/a	29936	responseLargeH	error	n/a	0.51562	no	n/a	n/a
118.0078125	n/a	30210	largeTSmallH	correct	incongruent	0.55078	no	T	H
118.5585938	n/a	30351	responseLargeT	correct	n/a	0.55078	no	n/a	n/a
119.6210938	n/a	30623	largeTSmallH	correct	incongruent	1.043	no	T	H
120.6640625	n/a	30890	responseLargeT	correct	n/a	1.043	no	n/a	n/a
121.7304688	n/a	31163	largeTSmallT	correct	congruent	0.75391	no	T	T
122.484375	n/a	31356	responseLargeT	correct	n/a	0.75391	no	n/a	n/a
123.5546875	n/a	31630	largeHSmallT	correct	incongruent	0.54688	no	H	T
124.1015625	n/a	31770	responseLargeH	correct	n/a	0.54688	no	n/a	n/a
125.1679688	n/a	32043	largeTSmallH	correct	incongruent	0.53906	no	T	H
125.7070312	n/a	32181	responseLargeT	correct	n/a	0.53906	no	n/a	n/a
126.78125	n/a	32456	largeTSmallT	correct	congruent	0.50391	no	T	T
127.2851562	n/a	32585	responseLargeT	correct	n/a	0.50391	no	n/a	n/a
128.3554688	n/a	32859	largeTSmallT	correct	congruent	0.46094	no	T	T
128.8164062	n/a	32977	responseLargeT	correct	n/a	0.46094	no	n/a	n/a
129.890625	n/a	33252	largeHSmallT	correct	incongruent	0.60156	no	H	T
130.4921875	n/a	33406	responseLargeH	correct	n/a	0.60156	no	n/a	n/a
131.5546875	n/a	33678	largeTSmallH	correct	incongruent	0.51172	no	T	H
132.0664062	n/a	33809	responseLargeT	correct	n/a	0.51172	no	n/a	n/a
133.1289062	n/a	34081	largeHSmallT	correct	incongruent	0.59375	no	H	T
133.7226562	n/a	34233	responseLargeH	correct	n/a	0.59375	no	n/a	n/a
134.78125	n/a	34504	largeHSmallT	correct	incongruent	0.52344	no	H	T
135.3046875	n/a	34638	responseLargeH	correct	n/a	0.52344	no	n/a	n/a
136.3828125	n/a	34914	largeTSmallH	correct	incongruent	0.53125	no	T	H
136.9140625	n/a	35050	responseLargeT	correct	n/a	0.53125	no	n/a	n/a
137.9804688	n/a	35323	largeHSmallT	correct	incongruent	0.66797	no	H	T
138.6484375	n/a	35494	responseLargeH	correct	n/a	0.66797	no	n/a	n/a
139.7148438	n/a	35767	largeHSmallH	correct	congruent	0.55078	no	H	H
140.265625	n/a	35908	responseLargeH	correct	n/a	0.55078	no	n/a	n/a
141.34375	n/a	36184	largeTSmallT	correct	congruent	0.53906	no	T	T
141.8828125	n/a	36322	responseLargeT	correct	n/a	0.53906	no	n/a	n/a
142.9570312	n/a	36597	largeTSmallH	correct	incongruent	0.5	no	T	H
143.4570312	n/a	36725	responseLargeT	correct	n/a	0.5	no	n/a	n/a
144.515625	n/a	36996	largeHSmallH	correct	congruent	0.57422	no	H	H
145.0898438	n/a	37143	responseLargeH	correct	n/a	0.57422	no	n/a	n/a
146.15625	n/a	37416	largeTSmallH	correct	incongruent	0.44141	no	T	H
146.5976562	n/a	37529	responseLargeT	correct	n/a	0.44141	no	n/a	n/a
147.6757812	n/a	37805	largeHSmallH	correct	congruent	0.39453	no	H	H
148.0703125	n/a	37906	responseLargeH	correct	n/a	0.39453	no	n/a	n/a
149.140625	n/a	38180	largeHSmallT	correct	incongruent	0.52344	no	H	T
149.6640625	n/a	38314	responseLargeH	correct	n/a	0.52344	no	n/a	n/a
150.7304688	n/a	38587	largeTSmallT	correct	congruent	0.46094	no	T	T
151.1914062	n/a	38705	responseLargeT	correct	n/a	0.46094	no	n/a	n/a
152.2617188	n/a	38979	largeTSmallH	correct	incongruent	0.51172	no	T	H
152.7734375	n/a	39110	responseLargeT	correct	n/a	0.51172	no	n/a	n/a
153.8476562	n/a	39385	largeHSmallT	correct	incongruent	0.58203	no	H	T
154.4296875	n/a	39534	responseLargeH	correct	n/a	0.58203	no	n/a	n/a
155.5039062	n/a	39809	largeHSmallT	correct	incongruent	0.46875	no	H	T
155.9726562	n/a	39929	responseLargeH	correct	n/a	0.46875	no	n/a	n/a
157.046875	n/a	40204	largeHSmallT	correct	incongruent	0.52734	no	H	T
157.5742188	n/a	40339	responseLargeH	correct	n/a	0.52734	no	n/a	n/a
158.6367188	n/a	40611	largeTSmallH	correct	incongruent	0.66406	no	T	H
159.3007812	n/a	40781	responseLargeT	correct	n/a	0.66406	no	n/a	n/a
160.3671875	n/a	41054	largeHSmallH	correct	congruent	0.49609	no	H	H
160.8632812	n/a	41181	responseLargeH	correct	n/a	0.49609	no	n/a	n/a
161.9296875	n/a	41454	largeHSmallT	correct	incongruent	0.46094	no	H	T
162.390625	n/a	41572	responseLargeH	correct	n/a	0.46094	no	n/a	n/a
163.4609375	n/a	41846	largeTSmallT	correct	congruent	0.45312	no	T	T
163.9140625	n/a	41962	responseLargeT	correct	n/a	0.45312	no	n/a	n/a
164.9804688	n/a	42235	largeHSmallT	correct	incongruent	0.57812	no	H	T
165.5585938	n/a	42383	responseLargeH	correct	n/a	0.57812	no	n/a	n/a
166.6210938	n/a	42655	largeTSmallT	correct	congruent	0.41406	no	T	T
167.0351562	n/a	42761	responseLargeT	correct	n/a	0.41406	no	n/a	n/a
168.1015625	n/a	43034	largeHSmallH	correct	congruent	0.47266	no	H	H
168.5742188	n/a	43155	responseLargeH	correct	n/a	0.47266	no	n/a	n/a
169.6367188	n/a	43427	largeHSmallT	correct	incongruent	0.47266	no	H	T
170.109375	n/a	43548	responseLargeH	correct	n/a	0.47266	no	n/a	n/a
171.1796875	n/a	43822	largeHSmallH	correct	congruent	0.57812	no	H	H
171.7578125	n/a	43970	responseLargeH	correct	n/a	0.57812	no	n/a	n/a
172.8359375	n/a	44246	largeHSmallH	correct	congruent	0.50391	no	H	H
173.3398438	n/a	44375	responseLargeH	correct	n/a	0.50391	no	n/a	n/a
174.40625	n/a	44648	largeTSmallH	correct	incongruent	0.54297	no	T	H
174.9492188	n/a	44787	responseLargeT	correct	n/a	0.54297	no	n/a	n/a
176.0195312	n/a	45061	largeHSmallT	correct	incongruent	0.37109	no	H	T
176.390625	n/a	45156	responseLargeH	correct	n/a	0.37109	no	n/a	n/a
177.4492188	n/a	45427	largeTSmallT	correct	congruent	0.46875	no	T	T
177.9179688	n/a	45547	responseLargeT	correct	n/a	0.46875	no	n/a	n/a
178.9804688	n/a	45819	largeTSmallH	correct	incongruent	0.53906	no	T	H
179.5195312	n/a	45957	responseLargeT	correct	n/a	0.53906	no	n/a	n/a
180.5820312	n/a	46229	largeTSmallT	correct	congruent	0.48828	no	T	T
181.0703125	n/a	46354	responseLargeT	correct	n/a	0.48828	no	n/a	n/a
182.140625	n/a	46628	largeTSmallH	correct	incongruent	0.51953	no	T	H
182.6601562	n/a	46761	responseLargeT	correct	n/a	0.51953	no	n/a	n/a
183.7421875	n/a	47038	largeHSmallH	correct	congruent	0.5	no	H	H
184.2421875	n/a	47166	responseLargeH	correct	n/a	0.5	no	n/a	n/a
185.3164062	n/a	47441	largeHSmallT	error	incongruent	0.37891	no	H	T
185.6953125	n/a	47538	responseLargeT	error	n/a	0.37891	no	n/a	n/a
186.7695312	n/a	47813	largeHSmallH	correct	congruent	0.46094	no	H	H
187.2304688	n/a	47931	responseLargeH	correct	n/a	0.46094	no	n/a	n/a
188.2890625	n/a	48202	largeTSmallT	correct	congruent	0.49219	no	T	T
188.78125	n/a	48328	responseLargeT	correct	n/a	0.49219	no	n/a	n/a
189.8476562	n/a	48601	largeHSmallT	correct	incongruent	0.47656	no	H	T
190.3242188	n/a	48723	responseLargeH	correct	n/a	0.47656	no	n/a	n/a
191.3945312	n/a	48997	largeHSmallH	correct	congruent	0.44141	no	H	H
191.8359375	n/a	49110	responseLargeH	correct	n/a	0.44141	no	n/a	n/a
192.9140625	n/a	49386	largeTSmallH	correct	incongruent	0.50391	no	T	H
193.4179688	n/a	49515	responseLargeT	correct	n/a	0.50391	no	n/a	n/a
194.4882812	n/a	49789	largeHSmallH	correct	congruent	0.44922	no	H	H
194.9375	n/a	49904	responseLargeH	correct	n/a	0.44922	no	n/a	n/a
196.0078125	n/a	50178	largeHSmallH	correct	congruent	0.40625	no	H	H
196.4140625	n/a	50282	responseLargeH	correct	n/a	0.40625	no	n/a	n/a
197.4882812	n/a	50557	largeTSmallH	correct	incongruent	0.52344	no	T	H
198.0117188	n/a	50691	responseLargeT	correct	n/a	0.52344	no	n/a	n/a
199.0859375	n/a	50966	largeTSmallT	correct	congruent	0.58984	no	T	T
199.6757812	n/a	51117	responseLargeT	correct	n/a	0.58984	no	n/a	n/a
200.7421875	n/a	51390	largeHSmallT	correct	incongruent	0.52734	no	H	T
201.2695312	n/a	51525	responseLargeH	correct	n/a	0.52734	no	n/a	n/a
202.3398438	n/a	51799	largeHSmallH	correct	congruent	0.50781	no	H	H
202.8476562	n/a	51929	responseLargeH	correct	n/a	0.50781	no	n/a	n/a
203.9140625	n/a	52202	largeHSmallT	correct	incongruent	0.57422	no	H	T
204.4882812	n/a	52349	responseLargeH	correct	n/a	0.57422	no	n/a	n/a
205.5664062	n/a	52625	largeTSmallH	correct	incongruent	0.60938	no	T	H
206.1757812	n/a	52781	responseLargeT	correct	n/a	0.60938	no	n/a	n/a
207.2460938	n/a	53055	largeTSmallT	correct	congruent	0.64453	no	T	T
207.890625	n/a	53220	responseLargeT	correct	n/a	0.64453	no	n/a	n/a
208.96875	n/a	53496	largeTSmallT	correct	congruent	0.53906	no	T	T
209.5078125	n/a	53634	responseLargeT	correct	n/a	0.53906	no	n/a	n/a
210.5664062	n/a	53905	largeHSmallH	correct	congruent	0.46875	no	H	H
211.0351562	n/a	54025	responseLargeH	correct	n/a	0.46875	no	n/a	n/a
212.1015625	n/a	54298	largeTSmallT	correct	congruent	0.53125	no	T	T
212.6328125	n/a	54434	responseLargeT	correct	n/a	0.53125	no	n/a	n/a
213.703125	n/a	54708	largeTSmallT	correct	congruent	0.47266	no	T	T
214.1757812	n/a	54829	responseLargeT	correct	n/a	0.47266	no	n/a	n/a
215.2460938	n/a	55103	largeHSmallT	correct	incongruent	0.69922	no	H	T
215.9453125	n/a	55282	responseLargeH	correct	n/a	0.69922	no	n/a	n/a
217.0078125	n/a	55554	largeHSmallT	correct	incongruent	0.64453	no	H	T
217.6523438	n/a	55719	responseLargeH	correct	n/a	0.64453	no	n/a	n/a
218.7265625	n/a	55994	largeTSmallT	correct	congruent	0.51562	no	T	T
219.2421875	n/a	56126	responseLargeT	correct	n/a	0.51562	no	n/a	n/a
220.328125	n/a	56404	largeTSmallT	correct	congruent	0.45312	no	T	T
220.78125	n/a	56520	responseLargeT	correct	n/a	0.45312	no	n/a	n/a
221.8476562	n/a	56793	largeTSmallH	correct	incongruent	0.62891	no	T	H
222.4765625	n/a	56954	responseLargeT	correct	n/a	0.62891	no	n/a	n/a
223.5546875	n/a	57230	largeTSmallT	correct	congruent	0.44922	no	T	T
224.0039062	n/a	57345	responseLargeT	correct	n/a	0.44922	no	n/a	n/a
225.0742188	n/a	57619	largeHSmallH	correct	congruent	0.50781	no	H	H
225.5820312	n/a	57749	responseLargeH	correct	n/a	0.50781	no	n/a	n/a
226.6601562	n/a	58025	largeTSmallT	correct	congruent	0.46875	no	T	T
227.1289062	n/a	58145	responseLargeT	correct	n/a	0.46875	no	n/a	n/a
228.1953125	n/a	58418	largeTSmallT	correct	congruent	0.46484	no	T	T
228.6601562	n/a	58537	responseLargeT	correct	n/a	0.46484	no	n/a	n/a
229.7265625	n/a	58810	largeHSmallT	correct	incongruent	0.64062	no	H	T
230.3671875	n/a	58974	responseLargeH	correct	n/a	0.64062	no	n/a	n/a
231.4492188	n/a	59251	largeTSmallT	correct	congruent	0.41016	no	T	T
231.859375	n/a	59356	responseLargeT	correct	n/a	0.41016	no	n/a	n/a
232.9257812	n/a	59629	largeHSmallH	correct	congruent	0.52734	no	H	H
233.453125	n/a	59764	responseLargeH	correct	n/a	0.52734	no	n/a	n/a
234.515625	n/a	60036	largeTSmallT	correct	congruent	0.35156	no	T	T
234.8671875	n/a	60126	responseLargeT	correct	n/a	0.35156	no	n/a	n/a
235.9414062	n/a	60401	largeTSmallT	error	congruent	0.36328	no	T	T
236.3046875	n/a	60494	responseLargeH	error	n/a	0.36328	no	n/a	n/a
237.3671875	n/a	60766	largeTSmallH	correct	incongruent	0.63281	no	T	H
238	n/a	60928	responseLargeT	correct	n/a	0.63281	no	n/a	n/a
239.0742188	n/a	61203	largeTSmallT	correct	congruent	0.53125	no	T	T
239.6054688	n/a	61339	responseLargeT	correct	n/a	0.53125	no	n/a	n/a
240.6757812	n/a	61613	largeTSmallT	correct	congruent	0.38672	no	T	T
241.0625	n/a	61712	responseLargeT	correct	n/a	0.38672	no	n/a	n/a
242.1289062	n/a	61985	largeTSmallH	error	incongruent	0.59766	no	T	H
242.7265625	n/a	62138	responseLargeH	error	n/a	0.59766	no	n/a	n/a
243.7929688	n/a	62411	largeHSmallH	correct	congruent	0.53516	no	H	H
244.328125	n/a	62548	responseLargeH	correct	n/a	0.53516	no	n/a	n/a
245.40625	n/a	62824	largeTSmallH	correct	incongruent	0.48828	no	T	H
245.8945312	n/a	62949	responseLargeT	correct	n/a	0.48828	no	n/a	n/a
246.96875	n/a	63224	largeTSmallH	correct	incongruent	0.55859	no	T	H
247.5273438	n/a	63367	responseLargeT	correct	n/a	0.55859	no	n/a	n/a
248.6054688	n/a	63643	largeHSmallH	correct	congruent	0.5	no	H	H
249.1054688	n/a	63771	responseLargeH	correct	n/a	0.5	no	n/a	n/a
250.1796875	n/a	64046	largeTSmallT	correct	congruent	0.375	no	T	T
250.5546875	n/a	64142	responseLargeT	correct	n/a	0.375	no	n/a	n/a
251.6328125	n/a	64418	largeTSmallH	correct	incongruent	0.49609	no	T	H
252.1289062	n/a	64545	responseLargeT	correct	n/a	0.49609	no	n/a	n/a
253.2070312	n/a	64821	largeHSmallT	correct	incongruent	0.52344	no	H	T
253.7304688	n/a	64955	responseLargeH	correct	n/a	0.52344	no	n/a	n/a
254.7929688	n/a	65227	largeHSmallH	correct	congruent	0.46875	no	H	H
255.2617188	n/a	65347	responseLargeH	correct	n/a	0.46875	no	n/a	n/a
256.328125	n/a	65620	largeTSmallT	correct	congruent	0.51562	no	T	T
256.84375	n/a	65752	responseLargeT	correct	n/a	0.51562	no	n/a	n/a
257.9140625	n/a	66026	largeHSmallH	correct	congruent	0.60156	no	H	H
258.515625	n/a	66180	responseLargeH	correct	n/a	0.60156	no	n/a	n/a
259.59375	n/a	66456	largeTSmallT	correct	congruent	0.41406	no	T	T
260.0078125	n/a	66562	responseLargeT	correct	n/a	0.41406	no	n/a	n/a
261.0859375	n/a	66838	largeHSmallH	correct	congruent	0.42188	no	H	H
261.5078125	n/a	66946	responseLargeH	correct	n/a	0.42188	no	n/a	n/a
262.5820312	n/a	67221	largeHSmallT	error	incongruent	0.37109	no	H	T
262.953125	n/a	67316	responseLargeT	error	n/a	0.37109	no	n/a	n/a
264.0351562	n/a	67593	largeTSmallT	correct	congruent	0.51172	no	T	T
264.546875	n/a	67724	responseLargeT	correct	n/a	0.51172	no	n/a	n/a
265.6054688	n/a	67995	largeHSmallH	correct	congruent	0.35938	no	H	H
265.9648438	n/a	68087	responseLargeH	correct	n/a	0.35938	no	n/a	n/a
267.046875	n/a	68364	largeTSmallH	correct	incongruent	0.58594	no	T	H
267.6328125	n/a	68514	responseLargeT	correct	n/a	0.58594	no	n/a	n/a
268.6992188	n/a	68787	largeHSmallT	correct	incongruent	0.39844	no	H	T
269.0976562	n/a	68889	responseLargeH	correct	n/a	0.39844	no	n/a	n/a
270.1679688	n/a	69163	largeHSmallT	error	incongruent	0.35938	no	H	T
270.5273438	n/a	69255	responseLargeT	error	n/a	0.35938	no	n/a	n/a
271.59375	n/a	69528	largeHSmallH	correct	congruent	0.48828	no	H	H
272.0820312	n/a	69653	responseLargeH	correct	n/a	0.48828	no	n/a	n/a
273.1523438	n/a	69927	largeTSmallH	correct	incongruent	0.42969	no	T	H
273.5820312	n/a	70037	responseLargeT	correct	n/a	0.42969	no	n/a	n/a
274.6601562	n/a	70313	largeHSmallT	correct	incongruent	0.60547	no	H	T
275.265625	n/a	70468	responseLargeH	correct	n/a	0.60547	no	n/a	n/a
276.3398438	n/a	70743	largeHSmallH	correct	congruent	0.45703	no	H	H
276.796875	n/a	70860	responseLargeH	correct	n/a	0.45703	no	n/a	n/a
277.875	n/a	71136	largeHSmallT	correct	incongruent	0.4375	no	H	T
278.3125	n/a	71248	responseLargeH	correct	n/a	0.4375	no	n/a	n/a
279.3789062	n/a	71521	largeTSmallT	correct	congruent	0.5	no	T	T
279.8789062	n/a	71649	responseLargeT	correct	n/a	0.5	no	n/a	n/a
280.9414062	n/a	71921	largeTSmallH	correct	incongruent	0.4375	no	T	H
281.3789062	n/a	72033	responseLargeT	correct	n/a	0.4375	no	n/a	n/a
282.4453125	n/a	72306	largeHSmallT	error	incongruent	0.52734	no	H	T
282.9726562	n/a	72441	responseLargeT	error	n/a	0.52734	no	n/a	n/a
284.046875	n/a	72716	largeHSmallH	correct	congruent	0.54688	no	H	H
284.59375	n/a	72856	responseLargeH	correct	n/a	0.54688	no	n/a	n/a
285.671875	n/a	73132	largeHSmallT	correct	incongruent	0.48438	no	H	T
286.15625	n/a	73256	responseLargeH	correct	n/a	0.48438	no	n/a	n/a
287.234375	n/a	73532	largeHSmallH	correct	congruent	0.41797	no	H	H
287.6523438	n/a	73639	responseLargeH	correct	n/a	0.41797	no	n/a	n/a
288.7265625	n/a	73914	largeHSmallT	correct	incongruent	0.43359	no	H	T
289.1601562	n/a	74025	responseLargeH	correct	n/a	0.43359	no	n/a	n/a
290.21875	n/a	74296	largeHSmallT	correct	incongruent	0.42188	no	H	T
290.640625	n/a	74404	responseLargeH	correct	n/a	0.42188	no	n/a	n/a
291.7109375	n/a	74678	largeTSmallH	correct	incongruent	0.41406	no	T	H
292.125	n/a	74784	responseLargeT	correct	n/a	0.41406	no	n/a	n/a
293.1914062	n/a	75057	largeHSmallT	correct	incongruent	0.38281	no	H	T
293.5742188	n/a	75155	responseLargeH	correct	n/a	0.38281	no	n/a	n/a
294.6445312	n/a	75429	largeTSmallT	correct	congruent	0.53125	no	T	T
295.1757812	n/a	75565	responseLargeT	correct	n/a	0.53125	no	n/a	n/a
296.2460938	n/a	75839	largeHSmallH	correct	congruent	0.41406	no	H	H
296.6601562	n/a	75945	responseLargeH	correct	n/a	0.41406	no	n/a	n/a
297.7265625	n/a	76218	largeHSmallT	correct	incongruent	0.41016	no	H	T
298.1367188	n/a	76323	responseLargeH	correct	n/a	0.41016	no	n/a	n/a
299.21875	n/a	76600	largeHSmallT	correct	incongruent	0.44141	no	H	T
299.6601562	n/a	76713	responseLargeH	correct	n/a	0.44141	no	n/a	n/a
300.7265625	n/a	76986	largeHSmallT	correct	incongruent	0.39844	no	H	T
301.125	n/a	77088	responseLargeH	correct	n/a	0.39844	no	n/a	n/a
302.1914062	n/a	77361	largeTSmallT	correct	congruent	0.54297	no	T	T
302.734375	n/a	77500	responseLargeT	correct	n/a	0.54297	no	n/a	n/a
303.8203125	n/a	77778	largeTSmallT	correct	congruent	0.53125	no	T	T
304.3515625	n/a	77914	responseLargeT	correct	n/a	0.53125	no	n/a	n/a
305.4179688	n/a	78187	largeHSmallH	correct	congruent	0.45312	no	H	H
305.8710938	n/a	78303	responseLargeH	correct	n/a	0.45312	no	n/a	n/a
306.953125	n/a	78580	largeTSmallH	error	incongruent	0.39844	no	T	H
307.3515625	n/a	78682	responseLargeH	error	n/a	0.39844	no	n/a	n/a
308.4179688	n/a	78955	largeHSmallH	correct	congruent	0.48828	no	H	H
308.90625	n/a	79080	responseLargeH	correct	n/a	0.48828	no	n/a	n/a
309.9804688	n/a	79355	largeTSmallT	correct	congruent	0.49219	no	T	T
310.4726562	n/a	79481	responseLargeT	correct	n/a	0.49219	no	n/a	n/a
311.5507812	n/a	79757	largeTSmallH	correct	incongruent	0.49219	no	T	H
312.0429688	n/a	79883	responseLargeT	correct	n/a	0.49219	no	n/a	n/a
313.1132812	n/a	80157	largeTSmallT	correct	congruent	0.57031	no	T	T
313.6835938	n/a	80303	responseLargeT	correct	n/a	0.57031	no	n/a	n/a
314.7539062	n/a	80577	largeTSmallH	correct	incongruent	0.53906	no	T	H
315.2929688	n/a	80715	responseLargeT	correct	n/a	0.53906	no	n/a	n/a
316.3671875	n/a	80990	largeTSmallH	correct	incongruent	0.51562	no	T	H
316.8828125	n/a	81122	responseLargeT	correct	n/a	0.51562	no	n/a	n/a
317.9648438	n/a	81399	largeHSmallH	correct	congruent	0.72266	no	H	H
318.6875	n/a	81584	responseLargeH	correct	n/a	0.72266	no	n/a	n/a
319.7539062	n/a	81857	largeTSmallH	correct	incongruent	0.58203	no	T	H
320.3359375	n/a	82006	responseLargeT	correct	n/a	0.58203	no	n/a	n/a
321.40625	n/a	82280	largeHSmallH	correct	congruent	0.49219	no	H	H
321.8984375	n/a	82406	responseLargeH	correct	n/a	0.49219	no	n/a	n/a
322.9648438	n/a	82679	largeTSmallT	correct	congruent	0.44922	no	T	T
323.4140625	n/a	82794	responseLargeT	correct	n/a	0.44922	no	n/a	n/a
324.484375	n/a	83068	largeTSmallT	correct	congruent	0.5625	no	T	T
325.046875	n/a	83212	responseLargeT	correct	n/a	0.5625	no	n/a	n/a
326.125	n/a	83488	largeHSmallT	correct	incongruent	0.54297	no	H	T
326.6679688	n/a	83627	responseLargeH	correct	n/a	0.54297	no	n/a	n/a
327.7382812	n/a	83901	largeHSmallH	correct	congruent	0.5625	no	H	H
328.3007812	n/a	84045	responseLargeH	correct	n/a	0.5625	no	n/a	n/a
329.3671875	n/a	84318	largeHSmallH	correct	congruent	0.48047	no	H	H
329.8476562	n/a	84441	responseLargeH	correct	n/a	0.48047	no	n/a	n/a
330.9257812	n/a	84717	largeTSmallT	correct	congruent	0.51562	no	T	T
331.4414062	n/a	84849	responseLargeT	correct	n/a	0.51562	no	n/a	n/a
332.5117188	n/a	85123	largeTSmallH	correct	incongruent	0.47656	no	T	H
332.9882812	n/a	85245	responseLargeT	correct	n/a	0.47656	no	n/a	n/a
334.0585938	n/a	85519	largeHSmallH	correct	congruent	0.48047	no	H	H
334.5390625	n/a	85642	responseLargeH	correct	n/a	0.48047	no	n/a	n/a
335.6054688	n/a	85915	largeHSmallT	correct	incongruent	0.5	no	H	T
336.1054688	n/a	86043	responseLargeH	correct	n/a	0.5	no	n/a	n/a
337.1796875	n/a	86318	largeTSmallT	correct	congruent	0.52734	no	T	T
337.7070312	n/a	86453	responseLargeT	correct	n/a	0.52734	no	n/a	n/a
338.7773438	n/a	86727	largeHSmallT	correct	incongruent	0.45703	no	H	T
339.234375	n/a	86844	responseLargeH	correct	n/a	0.45703	no	n/a	n/a
340.296875	n/a	87116	largeHSmallH	correct	congruent	0.56641	no	H	H
340.8632812	n/a	87261	responseLargeH	correct	n/a	0.56641	no	n/a	n/a
341.9375	n/a	87536	largeTSmallH	correct	incongruent	0.49609	no	T	H
342.4335938	n/a	87663	responseLargeT	correct	n/a	0.49609	no	n/a	n/a
343.5	n/a	87936	largeTSmallH	correct	incongruent	0.59766	no	T	H
344.0976562	n/a	88089	responseLargeT	correct	n/a	0.59766	no	n/a	n/a
345.1640625	n/a	88362	largeTSmallH	correct	incongruent	0.53906	no	T	H
345.703125	n/a	88500	responseLargeT	correct	n/a	0.53906	no	n/a	n/a
346.7773438	n/a	88775	largeHSmallT	correct	incongruent	0.59375	no	H	T
347.3710938	n/a	88927	responseLargeH	correct	n/a	0.59375	no	n/a	n/a
348.4453125	n/a	89202	largeTSmallH	correct	incongruent	0.49219	no	T	H
348.9375	n/a	89328	responseLargeT	correct	n/a	0.49219	no	n/a	n/a
350.0039062	n/a	89601	largeHSmallT	correct	incongruent	0.57422	no	H	T
350.578125	n/a	89748	responseLargeH	correct	n/a	0.57422	no	n/a	n/a
361.9375	n/a	92656	largeTSmallT	correct	congruent	0.83594	no	T	T
362.7734375	n/a	92870	responseSmallT	correct	n/a	0.83594	no	n/a	n/a
363.84375	n/a	93144	largeHSmallT	correct	incongruent	0.64453	no	H	T
364.4882812	n/a	93309	responseSmallT	correct	n/a	0.64453	no	n/a	n/a
365.5507812	n/a	93581	largeHSmallT	correct	incongruent	0.50781	no	H	T
366.0585938	n/a	93711	responseSmallT	correct	n/a	0.50781	no	n/a	n/a
367.1367188	n/a	93987	largeTSmallT	correct	congruent	0.49609	no	T	T
367.6328125	n/a	94114	responseSmallT	correct	n/a	0.49609	no	n/a	n/a
368.7109375	n/a	94390	largeHSmallT	correct	incongruent	0.52344	no	H	T
369.234375	n/a	94524	responseSmallT	correct	n/a	0.52344	no	n/a	n/a
370.296875	n/a	94796	largeHSmallT	correct	incongruent	0.57812	no	H	T
370.875	n/a	94944	responseSmallT	correct	n/a	0.57812	no	n/a	n/a
371.9375	n/a	95216	largeHSmallT	correct	incongruent	0.51562	no	H	T
372.453125	n/a	95348	responseSmallT	correct	n/a	0.51562	no	n/a	n/a
373.5234375	n/a	95622	largeTSmallT	correct	congruent	0.50391	no	T	T
374.0273438	n/a	95751	responseSmallT	correct	n/a	0.50391	no	n/a	n/a
375.109375	n/a	96028	largeTSmallT	correct	congruent	0.46484	no	T	T
375.5742188	n/a	96147	responseSmallT	correct	n/a	0.46484	no	n/a	n/a
376.6445312	n/a	96421	largeTSmallH	correct	incongruent	0.49609	no	T	H
377.140625	n/a	96548	responseSmallH	correct	n/a	0.49609	no	n/a	n/a
378.203125	n/a	96820	largeHSmallH	correct	congruent	0.44531	no	H	H
378.6484375	n/a	96934	responseSmallH	correct	n/a	0.44531	no	n/a	n/a
379.7226562	n/a	97209	largeTSmallH	error	incongruent	0.53125	no	T	H
380.2539062	n/a	97345	responseSmallT	error	n/a	0.53125	no	n/a	n/a
381.3242188	n/a	97619	largeHSmallH	correct	congruent	0.43359	no	H	H
381.7578125	n/a	97730	responseSmallH	correct	n/a	0.43359	no	n/a	n/a
382.8320312	n/a	98005	largeHSmallH	correct	congruent	0.4375	no	H	H
383.2695312	n/a	98117	responseSmallH	correct	n/a	0.4375	no	n/a	n/a
384.3359375	n/a	98390	largeHSmallT	correct	incongruent	0.59375	no	H	T
384.9296875	n/a	98542	responseSmallT	correct	n/a	0.59375	no	n/a	n/a
385.9921875	n/a	98814	largeTSmallH	correct	incongruent	0.50781	no	T	H
386.5	n/a	98944	responseSmallH	correct	n/a	0.50781	no	n/a	n/a
387.578125	n/a	99220	largeHSmallH	correct	congruent	0.49219	no	H	H
388.0703125	n/a	99346	responseSmallH	correct	n/a	0.49219	no	n/a	n/a
389.1484375	n/a	99622	largeTSmallH	correct	incongruent	0.48828	no	T	H
389.6367188	n/a	99747	responseSmallH	correct	n/a	0.48828	no	n/a	n/a
390.7109375	n/a	100022	largeTSmallH	correct	incongruent	0.46484	no	T	H
391.1757812	n/a	100141	responseSmallH	correct	n/a	0.46484	no	n/a	n/a
392.2578125	n/a	100418	largeTSmallH	correct	incongruent	0.43359	no	T	H
392.6914062	n/a	100529	responseSmallH	correct	n/a	0.43359	no	n/a	n/a
393.7617188	n/a	100803	largeHSmallT	correct	incongruent	0.625	no	H	T
394.3867188	n/a	100963	responseSmallT	correct	n/a	0.625	no	n/a	n/a
395.4570312	n/a	101237	largeTSmallT	correct	congruent	0.55469	no	T	T
396.0117188	n/a	101379	responseSmallT	correct	n/a	0.55469	no	n/a	n/a
397.0820312	n/a	101653	largeTSmallT	correct	congruent	0.53516	no	T	T
397.6171875	n/a	101790	responseSmallT	correct	n/a	0.53516	no	n/a	n/a
398.6953125	n/a	102066	largeTSmallT	correct	congruent	0.5625	no	T	T
399.2578125	n/a	102210	responseSmallT	correct	n/a	0.5625	no	n/a	n/a
400.3359375	n/a	102486	largeTSmallT	correct	congruent	0.57812	no	T	T
400.9140625	n/a	102634	responseSmallT	correct	n/a	0.57812	no	n/a	n/a
401.9882812	n/a	102909	largeHSmallT	correct	incongruent	0.61328	no	H	T
402.6015625	n/a	103066	responseSmallT	correct	n/a	0.61328	no	n/a	n/a
403.671875	n/a	103340	largeHSmallT	correct	incongruent	0.53516	no	H	T
404.2070312	n/a	103477	responseSmallT	correct	n/a	0.53516	no	n/a	n/a
405.2851562	n/a	103753	largeTSmallT	correct	congruent	0.64844	no	T	T
405.9335938	n/a	103919	responseSmallT	correct	n/a	0.64844	no	n/a	n/a
407.0039062	n/a	104193	largeHSmallT	correct	incongruent	0.57031	no	H	T
407.5742188	n/a	104339	responseSmallT	correct	n/a	0.57031	no	n/a	n/a
408.6445312	n/a	104613	largeTSmallT	correct	congruent	0.52734	no	T	T
409.171875	n/a	104748	responseSmallT	correct	n/a	0.52734	no	n/a	n/a
410.2304688	n/a	105019	largeTSmallH	correct	incongruent	0.70703	no	T	H
410.9375	n/a	105200	responseSmallH	correct	n/a	0.70703	no	n/a	n/a
412.015625	n/a	105476	largeTSmallH	correct	incongruent	0.51953	no	T	H
412.5351562	n/a	105609	responseSmallH	correct	n/a	0.51953	no	n/a	n/a
413.6015625	n/a	105882	largeHSmallH	correct	congruent	0.5625	no	H	H
414.1640625	n/a	106026	responseSmallH	correct	n/a	0.5625	no	n/a	n/a
415.2304688	n/a	106299	largeTSmallH	correct	incongruent	0.49219	no	T	H
415.7226562	n/a	106425	responseSmallH	correct	n/a	0.49219	no	n/a	n/a
416.7890625	n/a	106698	largeTSmallH	correct	incongruent	0.48828	no	T	H
417.2773438	n/a	106823	responseSmallH	correct	n/a	0.48828	no	n/a	n/a
418.3515625	n/a	107098	largeHSmallH	correct	congruent	0.45312	no	H	H
418.8046875	n/a	107214	responseSmallH	correct	n/a	0.45312	no	n/a	n/a
419.8828125	n/a	107490	largeTSmallT	correct	congruent	0.57031	no	T	T
420.453125	n/a	107636	responseSmallT	correct	n/a	0.57031	no	n/a	n/a
421.5078125	n/a	107906	largeTSmallT	correct	congruent	0.68359	no	T	T
422.1914062	n/a	108081	responseSmallT	correct	n/a	0.68359	no	n/a	n/a
423.2695312	n/a	108357	largeHSmallH	correct	congruent	0.44141	no	H	H
423.7109375	n/a	108470	responseSmallH	correct	n/a	0.44141	no	n/a	n/a
424.7773438	n/a	108743	largeHSmallH	correct	congruent	0.49609	no	H	H
425.2734375	n/a	108870	responseSmallH	correct	n/a	0.49609	no	n/a	n/a
426.3359375	n/a	109142	largeHSmallH	correct	congruent	0.48047	no	H	H
426.8164062	n/a	109265	responseSmallH	correct	n/a	0.48047	no	n/a	n/a
427.8945312	n/a	109541	largeHSmallT	correct	incongruent	0.63672	no	H	T
428.53125	n/a	109704	responseSmallT	correct	n/a	0.63672	no	n/a	n/a
429.6015625	n/a	109978	largeHSmallT	correct	incongruent	0.80469	no	H	T
430.40625	n/a	110184	responseSmallT	correct	n/a	0.80469	no	n/a	n/a
431.484375	n/a	110460	largeTSmallT	correct	congruent	0.52734	no	T	T
432.0117188	n/a	110595	responseSmallT	correct	n/a	0.52734	no	n/a	n/a
433.0703125	n/a	110866	largeHSmallH	correct	congruent	0.50781	no	H	H
433.578125	n/a	110996	responseSmallH	correct	n/a	0.50781	no	n/a	n/a
434.65625	n/a	111272	largeHSmallH	correct	congruent	0.51562	no	H	H
435.171875	n/a	111404	responseSmallH	correct	n/a	0.51562	no	n/a	n/a
436.2421875	n/a	111678	largeTSmallH	correct	incongruent	0.57031	no	T	H
436.8125	n/a	111824	responseSmallH	correct	n/a	0.57031	no	n/a	n/a
437.8828125	n/a	112098	largeHSmallH	correct	congruent	0.53906	no	H	H
438.421875	n/a	112236	responseSmallH	correct	n/a	0.53906	no	n/a	n/a
439.484375	n/a	112508	largeHSmallT	correct	incongruent	0.58984	no	H	T
440.0742188	n/a	112659	responseSmallT	correct	n/a	0.58984	no	n/a	n/a
441.1367188	n/a	112931	largeTSmallH	correct	incongruent	0.53516	no	T	H
441.671875	n/a	113068	responseSmallH	correct	n/a	0.53516	no	n/a	n/a
442.75	n/a	113344	largeTSmallT	correct	congruent	0.47266	no	T	T
443.2226562	n/a	113465	responseSmallT	correct	n/a	0.47266	no	n/a	n/a
444.296875	n/a	113740	largeHSmallT	correct	incongruent	0.55859	no	H	T
444.8554688	n/a	113883	responseSmallT	correct	n/a	0.55859	no	n/a	n/a
445.9335938	n/a	114159	largeHSmallT	correct	incongruent	0.5625	no	H	T
446.4960938	n/a	114303	responseSmallT	correct	n/a	0.5625	no	n/a	n/a
447.5625	n/a	114576	largeHSmallT	correct	incongruent	0.50781	no	H	T
448.0703125	n/a	114706	responseSmallT	correct	n/a	0.50781	no	n/a	n/a
449.1484375	n/a	114982	largeHSmallH	error	congruent	0.43359	no	H	H
449.5820312	n/a	115093	responseSmallT	error	n/a	0.43359	no	n/a	n/a
450.65625	n/a	115368	largeHSmallT	correct	incongruent	0.51172	no	H	T
451.1679688	n/a	115499	responseSmallT	correct	n/a	0.51172	no	n/a	n/a
452.2539062	n/a	115777	largeHSmallH	correct	congruent	0.54297	no	H	H
452.796875	n/a	115916	responseSmallH	correct	n/a	0.54297	no	n/a	n/a
453.8671875	n/a	116190	largeHSmallT	correct	incongruent	0.62109	no	H	T
454.4882812	n/a	116349	responseSmallT	correct	n/a	0.62109	no	n/a	n/a
455.5625	n/a	116624	largeHSmallH	correct	congruent	0.48047	no	H	H
456.0429688	n/a	116747	responseSmallH	correct	n/a	0.48047	no	n/a	n/a
457.1210938	n/a	117023	largeHSmallT	correct	incongruent	0.63281	no	H	T
457.7539062	n/a	117185	responseSmallT	correct	n/a	0.63281	no	n/a	n/a
458.828125	n/a	117460	largeHSmallT	correct	incongruent	0.5	no	H	T
459.328125	n/a	117588	responseSmallT	correct	n/a	0.5	no	n/a	n/a
460.4023438	n/a	117863	largeTSmallH	correct	incongruent	0.62109	no	T	H
461.0234375	n/a	118022	responseSmallH	correct	n/a	0.62109	no	n/a	n/a
462.09375	n/a	118296	largeTSmallH	correct	incongruent	0.48047	no	T	H
462.5742188	n/a	118419	responseSmallH	correct	n/a	0.48047	no	n/a	n/a
463.65625	n/a	118696	largeTSmallT	correct	congruent	0.53125	no	T	T
464.1875	n/a	118832	responseSmallT	correct	n/a	0.53125	no	n/a	n/a
465.2539062	n/a	119105	largeHSmallH	correct	congruent	0.36719	no	H	H
465.6210938	n/a	119199	responseSmallH	correct	n/a	0.36719	no	n/a	n/a
466.6953125	n/a	119474	largeHSmallH	correct	congruent	0.43359	no	H	H
467.1289062	n/a	119585	responseSmallH	correct	n/a	0.43359	no	n/a	n/a
468.203125	n/a	119860	largeHSmallH	correct	congruent	0.44922	no	H	H
468.6523438	n/a	119975	responseSmallH	correct	n/a	0.44922	no	n/a	n/a
469.7226562	n/a	120249	largeHSmallH	correct	congruent	0.4375	no	H	H
470.1601562	n/a	120361	responseSmallH	correct	n/a	0.4375	no	n/a	n/a
471.2421875	n/a	120638	largeHSmallH	correct	congruent	0.37891	no	H	H
471.6210938	n/a	120735	responseSmallH	correct	n/a	0.37891	no	n/a	n/a
472.6953125	n/a	121010	largeTSmallH	correct	incongruent	0.62109	no	T	H
473.3164062	n/a	121169	responseSmallH	correct	n/a	0.62109	no	n/a	n/a
474.3867188	n/a	121443	largeTSmallT	correct	congruent	0.58594	no	T	T
474.9726562	n/a	121593	responseSmallT	correct	n/a	0.58594	no	n/a	n/a
476.0429688	n/a	121867	largeTSmallT	correct	congruent	0.51562	no	T	T
476.5585938	n/a	121999	responseSmallT	correct	n/a	0.51562	no	n/a	n/a
477.6289062	n/a	122273	largeTSmallH	correct	incongruent	0.68359	no	T	H
478.3125	n/a	122448	responseSmallH	correct	n/a	0.68359	no	n/a	n/a
479.375	n/a	122720	largeHSmallH	correct	congruent	0.44922	no	H	H
479.8242188	n/a	122835	responseSmallH	correct	n/a	0.44922	no	n/a	n/a
480.8945312	n/a	123109	largeHSmallH	correct	congruent	0.48828	no	H	H
481.3828125	n/a	123234	responseSmallH	correct	n/a	0.48828	no	n/a	n/a
482.453125	n/a	123508	largeTSmallH	correct	incongruent	0.47656	no	T	H
482.9296875	n/a	123630	responseSmallH	correct	n/a	0.47656	no	n/a	n/a
484	n/a	123904	largeTSmallT	correct	congruent	0.98047	no	T	T
484.9804688	n/a	124155	responseSmallT	correct	n/a	0.98047	no	n/a	n/a
486.0546875	n/a	124430	largeTSmallT	correct	congruent	0.53906	no	T	T
486.59375	n/a	124568	responseSmallT	correct	n/a	0.53906	no	n/a	n/a
487.65625	n/a	124840	largeTSmallH	correct	incongruent	0.50781	no	T	H
488.1640625	n/a	124970	responseSmallH	correct	n/a	0.50781	no	n/a	n/a
489.2421875	n/a	125246	largeTSmallH	correct	incongruent	0.76172	no	T	H
490.0039062	n/a	125441	responseSmallH	correct	n/a	0.76172	no	n/a	n/a
491.0820312	n/a	125717	largeTSmallT	correct	congruent	0.51172	no	T	T
491.59375	n/a	125848	responseSmallT	correct	n/a	0.51172	no	n/a	n/a
492.6679688	n/a	126123	largeHSmallH	correct	congruent	0.50391	no	H	H
493.171875	n/a	126252	responseSmallH	correct	n/a	0.50391	no	n/a	n/a
494.2421875	n/a	126526	largeTSmallH	correct	incongruent	0.42578	no	T	H
494.6679688	n/a	126635	responseSmallH	correct	n/a	0.42578	no	n/a	n/a
495.734375	n/a	126908	largeTSmallT	correct	congruent	0.5625	no	T	T
496.296875	n/a	127052	responseSmallT	correct	n/a	0.5625	no	n/a	n/a
497.359375	n/a	127324	largeHSmallH	correct	congruent	0.48828	no	H	H
497.8476562	n/a	127449	responseSmallH	correct	n/a	0.48828	no	n/a	n/a
498.921875	n/a	127724	largeHSmallT	correct	incongruent	0.64453	no	H	T
499.5664062	n/a	127889	responseSmallT	correct	n/a	0.64453	no	n/a	n/a
500.640625	n/a	128164	largeHSmallH	correct	congruent	0.39062	no	H	H
501.03125	n/a	128264	responseSmallH	correct	n/a	0.39062	no	n/a	n/a
502.109375	n/a	128540	largeTSmallT	correct	congruent	0.40625	no	T	T
502.515625	n/a	128644	responseSmallT	correct	n/a	0.40625	no	n/a	n/a
503.5859375	n/a	128918	largeHSmallH	correct	congruent	0.47266	no	H	H
504.0585938	n/a	129039	responseSmallH	correct	n/a	0.47266	no	n/a	n/a
505.1328125	n/a	129314	largeTSmallH	error	incongruent	0.37109	no	T	H
505.5039062	n/a	129409	responseSmallT	error	n/a	0.37109	no	n/a	n/a
506.5859375	n/a	129686	largeTSmallH	correct	incongruent	0.62109	no	T	H
507.2070312	n/a	129845	responseSmallH	correct	n/a	0.62109	no	n/a	n/a
508.28125	n/a	130120	largeTSmallT	correct	congruent	0.56641	no	T	T
508.8476562	n/a	130265	responseSmallT	correct	n/a	0.56641	no	n/a	n/a
509.921875	n/a	130540	largeHSmallT	error	incongruent	0.67188	no	H	T
510.59375	n/a	130712	responseSmallH	error	n/a	0.67188	no	n/a	n/a
511.6679688	n/a	130987	largeTSmallH	correct	incongruent	0.64453	no	T	H
512.3125	n/a	131152	responseSmallH	correct	n/a	0.64453	no	n/a	n/a
513.3867188	n/a	131427	largeHSmallT	correct	incongruent	0.54297	no	H	T
513.9296875	n/a	131566	responseSmallT	correct	n/a	0.54297	no	n/a	n/a
515.015625	n/a	131844	largeTSmallH	correct	incongruent	0.67188	no	T	H
515.6875	n/a	132016	responseSmallH	correct	n/a	0.67188	no	n/a	n/a
516.7617188	n/a	132291	largeTSmallH	correct	incongruent	0.51562	no	T	H
517.2773438	n/a	132423	responseSmallH	correct	n/a	0.51562	no	n/a	n/a
518.3476562	n/a	132697	largeHSmallT	correct	incongruent	0.62109	no	H	T
518.96875	n/a	132856	responseSmallT	correct	n/a	0.62109	no	n/a	n/a
520.0273438	n/a	133127	largeTSmallT	correct	congruent	0.55469	no	T	T
520.5820312	n/a	133269	responseSmallT	correct	n/a	0.55469	no	n/a	n/a
521.6523438	n/a	133543	largeHSmallH	correct	congruent	0.47266	no	H	H
522.125	n/a	133664	responseSmallH	correct	n/a	0.47266	no	n/a	n/a
523.1992188	n/a	133939	largeTSmallT	correct	congruent	0.58984	no	T	T
523.7890625	n/a	134090	responseSmallT	correct	n/a	0.58984	no	n/a	n/a
524.8671875	n/a	134366	largeHSmallT	correct	incongruent	0.74609	no	H	T
525.6132812	n/a	134557	responseSmallT	correct	n/a	0.74609	no	n/a	n/a
526.6953125	n/a	134834	largeHSmallT	correct	incongruent	0.60156	no	H	T
527.296875	n/a	134988	responseSmallT	correct	n/a	0.60156	no	n/a	n/a
528.359375	n/a	135260	largeTSmallT	correct	congruent	0.55469	no	T	T
528.9140625	n/a	135402	responseSmallT	correct	n/a	0.55469	no	n/a	n/a
529.9882812	n/a	135677	largeTSmallT	correct	congruent	0.65625	no	T	T
530.6445312	n/a	135845	responseSmallT	correct	n/a	0.65625	no	n/a	n/a
531.71875	n/a	136120	largeTSmallH	correct	incongruent	0.58594	no	T	H
532.3046875	n/a	136270	responseSmallH	correct	n/a	0.58594	no	n/a	n/a
533.375	n/a	136544	largeHSmallH	correct	congruent	0.68359	no	H	H
534.0585938	n/a	136719	responseSmallH	correct	n/a	0.68359	no	n/a	n/a
535.1328125	n/a	136994	largeTSmallH	correct	incongruent	0.55859	no	T	H
535.6914062	n/a	137137	responseSmallH	correct	n/a	0.55859	no	n/a	n/a
536.7734375	n/a	137414	largeHSmallH	correct	congruent	0.53906	no	H	H
537.3125	n/a	137552	responseSmallH	correct	n/a	0.53906	no	n/a	n/a
538.375	n/a	137824	largeHSmallT	correct	incongruent	0.61328	no	H	T
538.9882812	n/a	137981	responseSmallT	correct	n/a	0.61328	no	n/a	n/a
540.0664062	n/a	138257	largeTSmallT	correct	congruent	0.55859	no	T	T
540.625	n/a	138400	responseSmallT	correct	n/a	0.55859	no	n/a	n/a
541.6914062	n/a	138673	largeTSmallH	correct	incongruent	0.52734	no	T	H
542.21875	n/a	138808	responseSmallH	correct	n/a	0.52734	no	n/a	n/a
543.2929688	n/a	139083	largeHSmallT	correct	incongruent	0.57812	no	H	T
543.8710938	n/a	139231	responseSmallT	correct	n/a	0.57812	no	n/a	n/a
544.9453125	n/a	139506	largeHSmallH	correct	congruent	0.52734	no	H	H
545.4726562	n/a	139641	responseSmallH	correct	n/a	0.52734	no	n/a	n/a
546.53125	n/a	139912	largeHSmallT	error	incongruent	0.55469	no	H	T
547.0859375	n/a	140054	responseSmallH	error	n/a	0.55469	no	n/a	n/a
548.1601562	n/a	140329	largeTSmallT	correct	congruent	0.47656	no	T	T
548.6367188	n/a	140451	responseSmallT	correct	n/a	0.47656	no	n/a	n/a
549.7070312	n/a	140725	largeHSmallT	correct	incongruent	0.69922	no	H	T
550.40625	n/a	140904	responseSmallT	correct	n/a	0.69922	no	n/a	n/a
551.4804688	n/a	141179	largeHSmallH	correct	congruent	0.78125	no	H	H
552.2617188	n/a	141379	responseSmallH	correct	n/a	0.78125	no	n/a	n/a
553.3320312	n/a	141653	largeTSmallH	correct	incongruent	0.57812	no	T	H
553.9101562	n/a	141801	responseSmallH	correct	n/a	0.57812	no	n/a	n/a
554.9726562	n/a	142073	largeHSmallT	correct	incongruent	0.57422	no	H	T
555.546875	n/a	142220	responseSmallT	correct	n/a	0.57422	no	n/a	n/a
556.6132812	n/a	142493	largeTSmallT	correct	congruent	0.5625	no	T	T
557.1757812	n/a	142637	responseSmallT	correct	n/a	0.5625	no	n/a	n/a
558.2539062	n/a	142913	largeHSmallT	correct	incongruent	0.58594	no	H	T
558.8398438	n/a	143063	responseSmallT	correct	n/a	0.58594	no	n/a	n/a
559.9179688	n/a	143339	largeTSmallT	correct	congruent	0.62109	no	T	T
560.5390625	n/a	143498	responseSmallT	correct	n/a	0.62109	no	n/a	n/a
561.5976562	n/a	143769	largeTSmallH	error	incongruent	0.42969	no	T	H
562.0273438	n/a	143879	responseSmallT	error	n/a	0.42969	no	n/a	n/a
563.1054688	n/a	144155	largeHSmallT	error	incongruent	0.64844	no	H	T
563.7539062	n/a	144321	responseSmallH	error	n/a	0.64844	no	n/a	n/a
564.8125	n/a	144592	largeTSmallH	correct	incongruent	0.50391	no	T	H
565.3164062	n/a	144721	responseSmallH	correct	n/a	0.50391	no	n/a	n/a
566.3984375	n/a	144998	largeTSmallH	correct	incongruent	0.60156	no	T	H
567	n/a	145152	responseSmallH	correct	n/a	0.60156	no	n/a	n/a
568.0664062	n/a	145425	largeTSmallH	correct	incongruent	0.53125	no	T	H
568.5976562	n/a	145561	responseSmallH	correct	n/a	0.53125	no	n/a	n/a
569.6640625	n/a	145834	largeTSmallH	correct	incongruent	0.53906	no	T	H
570.203125	n/a	145972	responseSmallH	correct	n/a	0.53906	no	n/a	n/a
571.2773438	n/a	146247	largeHSmallH	correct	congruent	0.45312	no	H	H
571.7304688	n/a	146363	responseSmallH	correct	n/a	0.45312	no	n/a	n/a
572.8007812	n/a	146637	largeTSmallH	correct	incongruent	0.39844	no	T	H
573.1992188	n/a	146739	responseSmallH	correct	n/a	0.39844	no	n/a	n/a
574.265625	n/a	147012	largeTSmallT	error	congruent	0.41016	no	T	T
574.6757812	n/a	147117	responseSmallH	error	n/a	0.41016	no	n/a	n/a
575.7578125	n/a	147394	largeHSmallT	correct	incongruent	0.53906	no	H	T
576.296875	n/a	147532	responseSmallT	correct	n/a	0.53906	no	n/a	n/a
577.359375	n/a	147804	largeHSmallT	correct	incongruent	0.45703	no	H	T
577.8164062	n/a	147921	responseSmallT	correct	n/a	0.45703	no	n/a	n/a
578.890625	n/a	148196	largeTSmallH	correct	incongruent	0.69922	no	T	H
579.5898438	n/a	148375	responseSmallH	correct	n/a	0.69922	no	n/a	n/a
580.6640625	n/a	148650	largeHSmallT	correct	incongruent	0.59766	no	H	T
581.2617188	n/a	148803	responseSmallT	correct	n/a	0.59766	no	n/a	n/a
582.3320312	n/a	149077	largeTSmallH	correct	incongruent	0.5	no	T	H
582.8320312	n/a	149205	responseSmallH	correct	n/a	0.5	no	n/a	n/a
583.890625	n/a	149476	largeTSmallT	correct	congruent	0.44922	no	T	T
584.3398438	n/a	149591	responseSmallT	correct	n/a	0.44922	no	n/a	n/a
585.4101562	n/a	149865	largeHSmallT	error	incongruent	0.55078	no	H	T
585.9609375	n/a	150006	responseSmallH	error	n/a	0.55078	no	n/a	n/a
587.0234375	n/a	150278	largeHSmallT	correct	incongruent	0.55469	no	H	T
587.578125	n/a	150420	responseSmallT	correct	n/a	0.55469	no	n/a	n/a
588.6523438	n/a	150695	largeHSmallT	correct	incongruent	0.52734	no	H	T
589.1796875	n/a	150830	responseSmallT	correct	n/a	0.52734	no	n/a	n/a
590.2382812	n/a	151101	largeTSmallH	correct	incongruent	0.5625	no	T	H
590.8007812	n/a	151245	responseSmallH	correct	n/a	0.5625	no	n/a	n/a
591.8632812	n/a	151517	largeTSmallT	correct	congruent	0.48438	no	T	T
592.3476562	n/a	151641	responseSmallT	correct	n/a	0.48438	no	n/a	n/a
593.4101562	n/a	151913	largeHSmallH	correct	congruent	0.54688	no	H	H
593.9570312	n/a	152053	responseSmallH	correct	n/a	0.54688	no	n/a	n/a
595.0390625	n/a	152330	largeHSmallT	correct	incongruent	0.77344	no	H	T
595.8125	n/a	152528	responseSmallT	correct	n/a	0.77344	no	n/a	n/a
596.890625	n/a	152804	largeHSmallT	correct	incongruent	0.59766	no	H	T
597.4882812	n/a	152957	responseSmallT	correct	n/a	0.59766	no	n/a	n/a
598.5585938	n/a	153231	largeTSmallT	correct	congruent	0.78125	no	T	T
599.3398438	n/a	153431	responseSmallT	correct	n/a	0.78125	no	n/a	n/a
600.4101562	n/a	153705	largeTSmallH	correct	incongruent	0.50781	no	T	H
600.9179688	n/a	153835	responseSmallH	correct	n/a	0.50781	no	n/a	n/a
602	n/a	154112	largeHSmallH	correct	congruent	0.6875	no	H	H
602.6875	n/a	154288	responseSmallH	correct	n/a	0.6875	no	n/a	n/a
603.7578125	n/a	154562	largeTSmallT	correct	congruent	0.52344	no	T	T
604.28125	n/a	154696	responseSmallT	correct	n/a	0.52344	no	n/a	n/a
605.34375	n/a	154968	largeTSmallT	correct	congruent	0.52734	no	T	T
605.8710938	n/a	155103	responseSmallT	correct	n/a	0.52734	no	n/a	n/a
606.9453125	n/a	155378	largeTSmallT	correct	congruent	0.53125	no	T	T
607.4765625	n/a	155514	responseSmallT	correct	n/a	0.53125	no	n/a	n/a
608.5429688	n/a	155787	largeTSmallT	correct	congruent	0.51172	no	T	T
609.0546875	n/a	155918	responseSmallT	correct	n/a	0.51172	no	n/a	n/a
610.1171875	n/a	156190	largeHSmallH	correct	congruent	0.46094	no	H	H
610.578125	n/a	156308	responseSmallH	correct	n/a	0.46094	no	n/a	n/a
611.6523438	n/a	156583	largeTSmallT	correct	congruent	0.57422	no	T	T
612.2265625	n/a	156730	responseSmallT	correct	n/a	0.57422	no	n/a	n/a
613.3046875	n/a	157006	largeTSmallH	correct	incongruent	0.45312	no	T	H
613.7578125	n/a	157122	responseSmallH	correct	n/a	0.45312	no	n/a	n/a
614.8359375	n/a	157398	largeTSmallT	correct	congruent	0.5	no	T	T
615.3359375	n/a	157526	responseSmallT	correct	n/a	0.5	no	n/a	n/a
616.4101562	n/a	157801	largeTSmallH	correct	incongruent	0.51953	no	T	H
616.9296875	n/a	157934	responseSmallH	correct	n/a	0.51953	no	n/a	n/a
617.9960938	n/a	158207	largeHSmallT	correct	incongruent	0.53125	no	H	T
618.5273438	n/a	158343	responseSmallT	correct	n/a	0.53125	no	n/a	n/a
619.609375	n/a	158620	largeTSmallH	correct	incongruent	0.42578	no	T	H
620.0351562	n/a	158729	responseSmallH	correct	n/a	0.42578	no	n/a	n/a
621.1054688	n/a	159003	largeTSmallT	correct	congruent	0.42578	no	T	T
621.53125	n/a	159112	responseSmallT	correct	n/a	0.42578	no	n/a	n/a
622.5976562	n/a	159385	largeTSmallH	correct	incongruent	0.44141	no	T	H
623.0390625	n/a	159498	responseSmallH	correct	n/a	0.44141	no	n/a	n/a
624.1171875	n/a	159774	largeTSmallT	correct	congruent	0.41016	no	T	T
624.5273438	n/a	159879	responseSmallT	correct	n/a	0.41016	no	n/a	n/a
625.5976562	n/a	160153	largeTSmallH	correct	incongruent	0.46094	no	T	H
626.0585938	n/a	160271	responseSmallH	correct	n/a	0.46094	no	n/a	n/a
627.1328125	n/a	160546	largeHSmallT	correct	incongruent	0.51172	no	H	T
627.6445312	n/a	160677	responseSmallT	correct	n/a	0.51172	no	n/a	n/a
628.71875	n/a	160952	largeHSmallT	error	incongruent	0.46094	no	H	T
629.1796875	n/a	161070	responseSmallH	error	n/a	0.46094	no	n/a	n/a
630.25	n/a	161344	largeHSmallH	correct	congruent	0.42188	no	H	H
630.671875	n/a	161452	responseSmallH	correct	n/a	0.42188	no	n/a	n/a
631.7421875	n/a	161726	largeHSmallT	correct	incongruent	0.39453	no	H	T
632.1367188	n/a	161827	responseSmallT	correct	n/a	0.39453	no	n/a	n/a
633.2109375	n/a	162102	largeTSmallT	correct	congruent	0.60156	no	T	T
633.8125	n/a	162256	responseSmallT	correct	n/a	0.60156	no	n/a	n/a
634.8789062	n/a	162529	largeHSmallH	correct	congruent	0.49219	no	H	H
635.3710938	n/a	162655	responseSmallH	correct	n/a	0.49219	no	n/a	n/a
636.4375	n/a	162928	largeTSmallH	correct	incongruent	0.55469	no	T	H
636.9921875	n/a	163070	responseSmallH	correct	n/a	0.55469	no	n/a	n/a
638.0625	n/a	163344	largeHSmallH	correct	congruent	0.46875	no	H	H
638.53125	n/a	163464	responseSmallH	correct	n/a	0.46875	no	n/a	n/a
639.609375	n/a	163740	largeTSmallT	correct	congruent	0.57422	no	T	T
640.1835938	n/a	163887	responseSmallT	correct	n/a	0.57422	no	n/a	n/a
641.265625	n/a	164164	largeHSmallH	correct	congruent	0.40625	no	H	H
641.671875	n/a	164268	responseSmallH	correct	n/a	0.40625	no	n/a	n/a
642.7421875	n/a	164542	largeTSmallH	correct	incongruent	0.60547	no	T	H
643.3476562	n/a	164697	responseSmallH	correct	n/a	0.60547	no	n/a	n/a
644.4257812	n/a	164973	largeHSmallH	correct	congruent	0.44141	no	H	H
644.8671875	n/a	165086	responseSmallH	correct	n/a	0.44141	no	n/a	n/a
645.9453125	n/a	165362	largeHSmallH	correct	congruent	0.42188	no	H	H
646.3671875	n/a	165470	responseSmallH	correct	n/a	0.42188	no	n/a	n/a
647.4375	n/a	165744	largeTSmallT	correct	congruent	0.60156	no	T	T
648.0390625	n/a	165898	responseSmallT	correct	n/a	0.60156	no	n/a	n/a
649.1054688	n/a	166171	largeTSmallT	correct	congruent	0.50781	no	T	T
649.6132812	n/a	166301	responseSmallT	correct	n/a	0.50781	no	n/a	n/a
650.6757812	n/a	166573	largeTSmallT	correct	congruent	0.42969	no	T	T
651.1054688	n/a	166683	responseSmallT	correct	n/a	0.42969	no	n/a	n/a
652.171875	n/a	166956	largeHSmallT	correct	incongruent	0.59766	no	H	T
652.7695312	n/a	167109	responseSmallT	correct	n/a	0.59766	no	n/a	n/a
653.8359375	n/a	167382	largeHSmallH	error	congruent	0.44922	no	H	H
654.2851562	n/a	167497	responseSmallT	error	n/a	0.44922	no	n/a	n/a
655.3554688	n/a	167771	largeHSmallH	correct	congruent	0.50781	no	H	H
655.8632812	n/a	167901	responseSmallH	correct	n/a	0.50781	no	n/a	n/a
656.9453125	n/a	168178	largeHSmallH	correct	congruent	0.37109	no	H	H
657.3164062	n/a	168273	responseSmallH	correct	n/a	0.37109	no	n/a	n/a
658.3828125	n/a	168546	largeHSmallH	correct	congruent	0.41406	no	H	H
658.796875	n/a	168652	responseSmallH	correct	n/a	0.41406	no	n/a	n/a
659.8632812	n/a	168925	largeHSmallH	correct	congruent	0.38281	no	H	H
660.2460938	n/a	169023	responseSmallH	correct	n/a	0.38281	no	n/a	n/a
661.3164062	n/a	169297	largeTSmallH	correct	incongruent	0.45703	no	T	H
661.7734375	n/a	169414	responseSmallH	correct	n/a	0.45703	no	n/a	n/a
662.8515625	n/a	169690	largeHSmallH	correct	congruent	0.45703	no	H	H
663.3085938	n/a	169807	responseSmallH	correct	n/a	0.45703	no	n/a	n/a
664.3828125	n/a	170082	largeTSmallH	correct	incongruent	0.40234	no	T	H
664.7851562	n/a	170185	responseSmallH	correct	n/a	0.40234	no	n/a	n/a
665.8632812	n/a	170461	largeTSmallT	error	congruent	0.4375	no	T	T
666.3007812	n/a	170573	responseSmallH	error	n/a	0.4375	no	n/a	n/a
667.3710938	n/a	170847	largeHSmallT	correct	incongruent	0.57812	no	H	T
667.9492188	n/a	170995	responseSmallT	correct	n/a	0.57812	no	n/a	n/a
669.0234375	n/a	171270	largeTSmallH	correct	incongruent	0.66406	no	T	H
669.6875	n/a	171440	responseSmallH	correct	n/a	0.66406	no	n/a	n/a
670.7578125	n/a	171714	largeHSmallT	correct	incongruent	0.60547	no	H	T
671.3632812	n/a	171869	responseSmallT	correct	n/a	0.60547	no	n/a	n/a
672.4492188	n/a	172147	largeTSmallT	correct	congruent	0.53516	no	T	T
672.984375	n/a	172284	responseSmallT	correct	n/a	0.53516	no	n/a	n/a
674.0507812	n/a	172557	largeHSmallH	correct	congruent	0.47656	no	H	H
674.5273438	n/a	172679	responseSmallH	correct	n/a	0.47656	no	n/a	n/a
675.5976562	n/a	172953	largeTSmallH	correct	incongruent	0.73828	no	T	H
676.3359375	n/a	173142	responseSmallH	correct	n/a	0.73828	no	n/a	n/a
677.3984375	n/a	173414	largeHSmallH	correct	congruent	0.47266	no	H	H
677.8710938	n/a	173535	responseSmallH	correct	n/a	0.47266	no	n/a	n/a
678.9414062	n/a	173809	largeHSmallT	correct	incongruent	0.45312	no	H	T
679.3945312	n/a	173925	responseSmallT	correct	n/a	0.45312	no	n/a	n/a
680.4609375	n/a	174198	largeHSmallT	correct	incongruent	0.55078	no	H	T
681.0117188	n/a	174339	responseSmallT	correct	n/a	0.55078	no	n/a	n/a
682.0898438	n/a	174615	largeHSmallH	correct	congruent	0.4375	no	H	H
682.5273438	n/a	174727	responseSmallH	correct	n/a	0.4375	no	n/a	n/a
702.7148438	n/a	179895	largeTSmallT	correct	congruent	0.46094	no	T	T
703.1757812	n/a	180013	responseLargeT	correct	n/a	0.46094	no	n/a	n/a
704.25	n/a	180288	largeHSmallH	correct	congruent	0.46484	no	H	H
704.7148438	n/a	180407	responseLargeH	correct	n/a	0.46484	no	n/a	n/a
705.78125	n/a	180680	largeTSmallT	correct	congruent	0.52734	no	T	T
706.3085938	n/a	180815	responseLargeT	correct	n/a	0.52734	no	n/a	n/a
707.3828125	n/a	181090	largeTSmallT	correct	congruent	0.45312	no	T	T
707.8359375	n/a	181206	responseLargeT	correct	n/a	0.45312	no	n/a	n/a
708.9023438	n/a	181479	largeHSmallT	correct	incongruent	0.63672	no	H	T
709.5390625	n/a	181642	responseLargeH	correct	n/a	0.63672	no	n/a	n/a
710.6210938	n/a	181919	largeTSmallT	correct	congruent	0.46875	no	T	T
711.0898438	n/a	182039	responseLargeT	correct	n/a	0.46875	no	n/a	n/a
712.15625	n/a	182312	largeHSmallH	correct	congruent	0.49219	no	H	H
712.6484375	n/a	182438	responseLargeH	correct	n/a	0.49219	no	n/a	n/a
713.7148438	n/a	182711	largeTSmallT	correct	congruent	0.42188	no	T	T
714.1367188	n/a	182819	responseLargeT	correct	n/a	0.42188	no	n/a	n/a
715.1953125	n/a	183090	largeHSmallT	correct	incongruent	0.53125	no	H	T
715.7265625	n/a	183226	responseLargeH	correct	n/a	0.53125	no	n/a	n/a
716.796875	n/a	183500	largeHSmallT	correct	incongruent	0.51562	no	H	T
717.3125	n/a	183632	responseLargeH	correct	n/a	0.51562	no	n/a	n/a
718.3828125	n/a	183906	largeHSmallH	correct	congruent	0.44922	no	H	H
718.8320312	n/a	184021	responseLargeH	correct	n/a	0.44922	no	n/a	n/a
719.9023438	n/a	184295	largeHSmallT	correct	incongruent	0.40625	no	H	T
720.3085938	n/a	184399	responseLargeH	correct	n/a	0.40625	no	n/a	n/a
721.3828125	n/a	184674	largeTSmallT	correct	congruent	0.5	no	T	T
721.8828125	n/a	184802	responseLargeT	correct	n/a	0.5	no	n/a	n/a
722.9570312	n/a	185077	largeHSmallH	correct	congruent	0.32422	no	H	H
723.28125	n/a	185160	responseLargeH	correct	n/a	0.32422	no	n/a	n/a
724.3554688	n/a	185435	largeTSmallT	correct	congruent	0.39844	no	T	T
724.7539062	n/a	185537	responseLargeT	correct	n/a	0.39844	no	n/a	n/a
725.8203125	n/a	185810	largeHSmallH	correct	congruent	0.35156	no	H	H
726.171875	n/a	185900	responseLargeH	correct	n/a	0.35156	no	n/a	n/a
727.25	n/a	186176	largeTSmallT	correct	congruent	0.39062	no	T	T
727.640625	n/a	186276	responseLargeT	correct	n/a	0.39062	no	n/a	n/a
728.7148438	n/a	186551	largeHSmallT	correct	incongruent	0.41016	no	H	T
729.125	n/a	186656	responseLargeH	correct	n/a	0.41016	no	n/a	n/a
730.1953125	n/a	186930	largeHSmallH	correct	congruent	0.56641	no	H	H
730.7617188	n/a	187075	responseLargeH	correct	n/a	0.56641	no	n/a	n/a
731.8359375	n/a	187350	largeTSmallH	correct	incongruent	0.38672	no	T	H
732.2226562	n/a	187449	responseLargeT	correct	n/a	0.38672	no	n/a	n/a
733.3007812	n/a	187725	largeTSmallH	error	incongruent	0.35547	no	T	H
733.65625	n/a	187816	responseLargeH	error	n/a	0.35547	no	n/a	n/a
734.7265625	n/a	188090	largeTSmallH	correct	incongruent	0.45703	no	T	H
735.1835938	n/a	188207	responseLargeT	correct	n/a	0.45703	no	n/a	n/a
736.2617188	n/a	188483	largeHSmallT	correct	incongruent	0.50781	no	H	T
736.7695312	n/a	188613	responseLargeH	correct	n/a	0.50781	no	n/a	n/a
737.8359375	n/a	188886	largeTSmallH	correct	incongruent	0.49219	no	T	H
738.328125	n/a	189012	responseLargeT	correct	n/a	0.49219	no	n/a	n/a
739.3945312	n/a	189285	largeHSmallH	correct	congruent	0.35547	no	H	H
739.75	n/a	189376	responseLargeH	correct	n/a	0.35547	no	n/a	n/a
740.8203125	n/a	189650	largeHSmallT	correct	incongruent	0.43359	no	H	T
741.2539062	n/a	189761	responseLargeH	correct	n/a	0.43359	no	n/a	n/a
742.328125	n/a	190036	largeTSmallT	correct	congruent	0.48438	no	T	T
742.8125	n/a	190160	responseLargeT	correct	n/a	0.48438	no	n/a	n/a
743.875	n/a	190432	largeTSmallH	correct	incongruent	0.51953	no	T	H
744.3945312	n/a	190565	responseLargeT	correct	n/a	0.51953	no	n/a	n/a
745.4609375	n/a	190838	largeTSmallH	correct	incongruent	0.43359	no	T	H
745.8945312	n/a	190949	responseLargeT	correct	n/a	0.43359	no	n/a	n/a
746.96875	n/a	191224	largeTSmallT	correct	congruent	0.42969	no	T	T
747.3984375	n/a	191334	responseLargeT	correct	n/a	0.42969	no	n/a	n/a
748.4609375	n/a	191606	largeHSmallT	correct	incongruent	0.53125	no	H	T
748.9921875	n/a	191742	responseLargeH	correct	n/a	0.53125	no	n/a	n/a
750.0625	n/a	192016	largeTSmallH	correct	incongruent	0.45703	no	T	H
750.5195312	n/a	192133	responseLargeT	correct	n/a	0.45703	no	n/a	n/a
751.59375	n/a	192408	largeHSmallH	correct	congruent	0.51172	no	H	H
752.1054688	n/a	192539	responseLargeH	correct	n/a	0.51172	no	n/a	n/a
753.1679688	n/a	192811	largeTSmallT	correct	congruent	0.37891	no	T	T
753.546875	n/a	192908	responseLargeT	correct	n/a	0.37891	no	n/a	n/a
754.6210938	n/a	193183	largeHSmallH	correct	congruent	0.35938	no	H	H
754.9804688	n/a	193275	responseLargeH	correct	n/a	0.35938	no	n/a	n/a
756.046875	n/a	193548	largeTSmallT	correct	congruent	0.38672	no	T	T
756.4335938	n/a	193647	responseLargeT	correct	n/a	0.38672	no	n/a	n/a
757.515625	n/a	193924	largeTSmallT	error	congruent	0.36719	no	T	T
757.8828125	n/a	194018	responseLargeH	error	n/a	0.36719	no	n/a	n/a
758.9414062	n/a	194289	largeTSmallT	correct	congruent	0.48438	no	T	T
759.4257812	n/a	194413	responseLargeT	correct	n/a	0.48438	no	n/a	n/a
760.4882812	n/a	194685	largeHSmallH	correct	congruent	0.37109	no	H	H
760.859375	n/a	194780	responseLargeH	correct	n/a	0.37109	no	n/a	n/a
761.9257812	n/a	195053	largeHSmallH	correct	congruent	0.53516	no	H	H
762.4609375	n/a	195190	responseLargeH	correct	n/a	0.53516	no	n/a	n/a
763.5273438	n/a	195463	largeHSmallH	correct	congruent	0.49609	no	H	H
764.0234375	n/a	195590	responseLargeH	correct	n/a	0.49609	no	n/a	n/a
765.0859375	n/a	195862	largeTSmallH	correct	incongruent	0.37891	no	T	H
765.4648438	n/a	195959	responseLargeT	correct	n/a	0.37891	no	n/a	n/a
766.5390625	n/a	196234	largeHSmallT	correct	incongruent	0.38281	no	H	T
766.921875	n/a	196332	responseLargeH	correct	n/a	0.38281	no	n/a	n/a
767.9921875	n/a	196606	largeTSmallT	correct	congruent	0.4375	no	T	T
768.4296875	n/a	196718	responseLargeT	correct	n/a	0.4375	no	n/a	n/a
769.515625	n/a	196996	largeTSmallH	error	incongruent	0.36719	no	T	H
769.8828125	n/a	197090	responseLargeH	error	n/a	0.36719	no	n/a	n/a
770.953125	n/a	197364	largeHSmallT	correct	incongruent	0.35156	no	H	T
771.3046875	n/a	197454	responseLargeH	correct	n/a	0.35156	no	n/a	n/a
772.3789062	n/a	197729	largeTSmallT	correct	congruent	0.46094	no	T	T
772.8398438	n/a	197847	responseLargeT	correct	n/a	0.46094	no	n/a	n/a
773.9023438	n/a	198119	largeHSmallH	correct	congruent	0.375	no	H	H
774.2773438	n/a	198215	responseLargeH	correct	n/a	0.375	no	n/a	n/a
775.3554688	n/a	198491	largeHSmallH	correct	congruent	0.52344	no	H	H
775.8789062	n/a	198625	responseLargeH	correct	n/a	0.52344	no	n/a	n/a
776.953125	n/a	198900	largeTSmallH	correct	incongruent	0.32812	no	T	H
777.28125	n/a	198984	responseLargeT	correct	n/a	0.32812	no	n/a	n/a
778.3554688	n/a	199259	largeTSmallT	correct	congruent	0.54297	no	T	T
778.8984375	n/a	199398	responseLargeT	correct	n/a	0.54297	no	n/a	n/a
779.9804688	n/a	199675	largeTSmallT	correct	congruent	0.52344	no	T	T
780.5039062	n/a	199809	responseLargeT	correct	n/a	0.52344	no	n/a	n/a
781.5820312	n/a	200085	largeTSmallT	correct	congruent	0.39062	no	T	T
781.9726562	n/a	200185	responseLargeT	correct	n/a	0.39062	no	n/a	n/a
783.046875	n/a	200460	largeHSmallH	correct	congruent	0.51953	no	H	H
783.5664062	n/a	200593	responseLargeH	correct	n/a	0.51953	no	n/a	n/a
784.6328125	n/a	200866	largeTSmallH	correct	incongruent	0.49219	no	T	H
785.125	n/a	200992	responseLargeT	correct	n/a	0.49219	no	n/a	n/a
786.1914062	n/a	201265	largeHSmallH	correct	congruent	0.39453	no	H	H
786.5859375	n/a	201366	responseLargeH	correct	n/a	0.39453	no	n/a	n/a
787.6484375	n/a	201638	largeHSmallH	error	congruent	0.32031	no	H	H
787.96875	n/a	201720	responseLargeT	error	n/a	0.32031	no	n/a	n/a
789.0351562	n/a	201993	largeTSmallT	correct	congruent	0.51562	no	T	T
789.5507812	n/a	202125	responseLargeT	correct	n/a	0.51562	no	n/a	n/a
790.6328125	n/a	202402	largeTSmallH	correct	incongruent	0.51562	no	T	H
791.1484375	n/a	202534	responseLargeT	correct	n/a	0.51562	no	n/a	n/a
792.21875	n/a	202808	largeHSmallH	correct	congruent	0.45312	no	H	H
792.671875	n/a	202924	responseLargeH	correct	n/a	0.45312	no	n/a	n/a
793.7539062	n/a	203201	largeHSmallT	correct	incongruent	0.37109	no	H	T
794.125	n/a	203296	responseLargeH	correct	n/a	0.37109	no	n/a	n/a
795.1953125	n/a	203570	largeTSmallH	correct	incongruent	0.46875	no	T	H
795.6640625	n/a	203690	responseLargeT	correct	n/a	0.46875	no	n/a	n/a
796.7265625	n/a	203962	largeHSmallT	correct	incongruent	0.40234	no	H	T
797.1289062	n/a	204065	responseLargeH	correct	n/a	0.40234	no	n/a	n/a
798.1914062	n/a	204337	largeHSmallH	correct	congruent	0.375	no	H	H
798.5664062	n/a	204433	responseLargeH	correct	n/a	0.375	no	n/a	n/a
799.6445312	n/a	204709	largeTSmallH	correct	incongruent	0.53125	no	T	H
800.1757812	n/a	204845	responseLargeT	correct	n/a	0.53125	no	n/a	n/a
801.2460938	n/a	205119	largeHSmallT	correct	incongruent	0.48438	no	H	T
801.7304688	n/a	205243	responseLargeH	correct	n/a	0.48438	no	n/a	n/a
802.7929688	n/a	205515	largeHSmallH	correct	congruent	0.53516	no	H	H
803.328125	n/a	205652	responseLargeH	correct	n/a	0.53516	no	n/a	n/a
804.40625	n/a	205928	largeTSmallH	correct	incongruent	0.54297	no	T	H
804.9492188	n/a	206067	responseLargeT	correct	n/a	0.54297	no	n/a	n/a
806.0195312	n/a	206341	largeTSmallT	correct	congruent	0.62891	no	T	T
806.6484375	n/a	206502	responseLargeT	correct	n/a	0.62891	no	n/a	n/a
807.7265625	n/a	206778	largeTSmallT	correct	congruent	0.51172	no	T	T
808.2382812	n/a	206909	responseLargeT	correct	n/a	0.51172	no	n/a	n/a
809.3007812	n/a	207181	largeHSmallH	correct	congruent	0.52344	no	H	H
809.8242188	n/a	207315	responseLargeH	correct	n/a	0.52344	no	n/a	n/a
810.8984375	n/a	207590	largeTSmallH	correct	incongruent	0.50391	no	T	H
811.4023438	n/a	207719	responseLargeT	correct	n/a	0.50391	no	n/a	n/a
812.4726562	n/a	207993	largeTSmallT	correct	congruent	0.47656	no	T	T
812.9492188	n/a	208115	responseLargeT	correct	n/a	0.47656	no	n/a	n/a
814.0195312	n/a	208389	largeTSmallT	correct	congruent	0.45312	no	T	T
814.4726562	n/a	208505	responseLargeT	correct	n/a	0.45312	no	n/a	n/a
815.5390625	n/a	208778	largeHSmallT	correct	incongruent	0.52734	no	H	T
816.0664062	n/a	208913	responseLargeH	correct	n/a	0.52734	no	n/a	n/a
817.140625	n/a	209188	largeTSmallT	correct	congruent	0.47656	no	T	T
817.6171875	n/a	209310	responseLargeT	correct	n/a	0.47656	no	n/a	n/a
818.6992188	n/a	209587	largeHSmallH	correct	congruent	0.39453	no	H	H
819.09375	n/a	209688	responseLargeH	correct	n/a	0.39453	no	n/a	n/a
820.1640625	n/a	209962	largeHSmallH	correct	congruent	0.5	no	H	H
820.6640625	n/a	210090	responseLargeH	correct	n/a	0.5	no	n/a	n/a
821.7382812	n/a	210365	largeHSmallT	correct	incongruent	0.4375	no	H	T
822.1757812	n/a	210477	responseLargeH	correct	n/a	0.4375	no	n/a	n/a
823.2460938	n/a	210751	largeTSmallT	correct	congruent	0.53906	no	T	T
823.7851562	n/a	210889	responseLargeT	correct	n/a	0.53906	no	n/a	n/a
824.859375	n/a	211164	largeHSmallH	correct	congruent	0.375	no	H	H
825.234375	n/a	211260	responseLargeH	correct	n/a	0.375	no	n/a	n/a
826.3125	n/a	211536	largeTSmallT	correct	congruent	0.53516	no	T	T
826.8476562	n/a	211673	responseLargeT	correct	n/a	0.53516	no	n/a	n/a
827.9140625	n/a	211946	largeHSmallH	correct	congruent	0.37109	no	H	H
828.2851562	n/a	212041	responseLargeH	correct	n/a	0.37109	no	n/a	n/a
829.3515625	n/a	212314	largeTSmallH	correct	incongruent	0.34375	no	T	H
829.6953125	n/a	212402	responseLargeT	correct	n/a	0.34375	no	n/a	n/a
830.765625	n/a	212676	largeHSmallT	correct	incongruent	0.39062	no	H	T
831.15625	n/a	212776	responseLargeH	correct	n/a	0.39062	no	n/a	n/a
832.2304688	n/a	213051	largeTSmallH	correct	incongruent	0.37109	no	T	H
832.6015625	n/a	213146	responseLargeT	correct	n/a	0.37109	no	n/a	n/a
833.671875	n/a	213420	largeTSmallH	error	incongruent	0.43359	no	T	H
834.1054688	n/a	213531	responseLargeH	error	n/a	0.43359	no	n/a	n/a
835.1796875	n/a	213806	largeTSmallH	correct	incongruent	0.52344	no	T	H
835.703125	n/a	213940	responseLargeT	correct	n/a	0.52344	no	n/a	n/a
836.7773438	n/a	214215	largeTSmallH	correct	incongruent	0.48438	no	T	H
837.2617188	n/a	214339	responseLargeT	correct	n/a	0.48438	no	n/a	n/a
838.3398438	n/a	214615	largeHSmallH	correct	congruent	0.47656	no	H	H
838.8164062	n/a	214737	responseLargeH	correct	n/a	0.47656	no	n/a	n/a
839.8984375	n/a	215014	largeTSmallT	correct	congruent	0.52344	no	T	T
840.421875	n/a	215148	responseLargeT	correct	n/a	0.52344	no	n/a	n/a
841.5	n/a	215424	largeTSmallT	correct	congruent	0.57812	no	T	T
842.078125	n/a	215572	responseLargeT	correct	n/a	0.57812	no	n/a	n/a
843.1523438	n/a	215847	largeHSmallT	correct	incongruent	0.68359	no	H	T
843.8359375	n/a	216022	responseLargeH	correct	n/a	0.68359	no	n/a	n/a
844.8984375	n/a	216294	largeTSmallT	correct	congruent	0.51172	no	T	T
845.4101562	n/a	216425	responseLargeT	correct	n/a	0.51172	no	n/a	n/a
846.4726562	n/a	216697	largeTSmallH	correct	incongruent	0.59766	no	T	H
847.0703125	n/a	216850	responseLargeT	correct	n/a	0.59766	no	n/a	n/a
848.1523438	n/a	217127	largeHSmallT	correct	incongruent	0.4375	no	H	T
848.5898438	n/a	217239	responseLargeH	correct	n/a	0.4375	no	n/a	n/a
849.6601562	n/a	217513	largeTSmallH	correct	incongruent	0.39453	no	T	H
850.0546875	n/a	217614	responseLargeT	correct	n/a	0.39453	no	n/a	n/a
851.125	n/a	217888	largeHSmallH	correct	congruent	0.44141	no	H	H
851.5664062	n/a	218001	responseLargeH	correct	n/a	0.44141	no	n/a	n/a
852.6328125	n/a	218274	largeHSmallT	correct	incongruent	0.55078	no	H	T
853.1835938	n/a	218415	responseLargeH	correct	n/a	0.55078	no	n/a	n/a
854.2578125	n/a	218690	largeHSmallT	correct	incongruent	0.69141	no	H	T
854.9492188	n/a	218867	responseLargeH	correct	n/a	0.69141	no	n/a	n/a
856.03125	n/a	219144	largeTSmallH	correct	incongruent	0.66406	no	T	H
856.6953125	n/a	219314	responseLargeT	correct	n/a	0.66406	no	n/a	n/a
857.765625	n/a	219588	largeHSmallH	correct	congruent	0.42969	no	H	H
858.1953125	n/a	219698	responseLargeH	correct	n/a	0.42969	no	n/a	n/a
859.2734375	n/a	219974	largeTSmallH	correct	incongruent	0.51953	no	T	H
859.7929688	n/a	220107	responseLargeT	correct	n/a	0.51953	no	n/a	n/a
860.859375	n/a	220380	largeTSmallH	correct	incongruent	0.50391	no	T	H
861.3632812	n/a	220509	responseLargeT	correct	n/a	0.50391	no	n/a	n/a
862.4296875	n/a	220782	largeTSmallH	correct	incongruent	0.47266	no	T	H
862.9023438	n/a	220903	responseLargeT	correct	n/a	0.47266	no	n/a	n/a
863.9765625	n/a	221178	largeHSmallH	correct	congruent	0.375	no	H	H
864.3515625	n/a	221274	responseLargeH	correct	n/a	0.375	no	n/a	n/a
865.4179688	n/a	221547	largeHSmallT	correct	incongruent	0.52734	no	H	T
865.9453125	n/a	221682	responseLargeH	correct	n/a	0.52734	no	n/a	n/a
867.0195312	n/a	221957	largeTSmallT	correct	congruent	0.49219	no	T	T
867.5117188	n/a	222083	responseLargeT	correct	n/a	0.49219	no	n/a	n/a
868.578125	n/a	222356	largeTSmallT	error	congruent	0.35938	no	T	T
868.9375	n/a	222448	responseLargeH	error	n/a	0.35938	no	n/a	n/a
870.0039062	n/a	222721	largeHSmallH	correct	congruent	0.36328	no	H	H
870.3671875	n/a	222814	responseLargeH	correct	n/a	0.36328	no	n/a	n/a
871.4453125	n/a	223090	largeTSmallT	correct	congruent	0.36328	no	T	T
871.8085938	n/a	223183	responseLargeT	correct	n/a	0.36328	no	n/a	n/a
872.8828125	n/a	223458	largeHSmallT	correct	incongruent	0.50781	no	H	T
873.390625	n/a	223588	responseLargeH	correct	n/a	0.50781	no	n/a	n/a
874.4570312	n/a	223861	largeHSmallT	error	incongruent	0.32422	no	H	T
874.78125	n/a	223944	responseLargeT	error	n/a	0.32422	no	n/a	n/a
875.84375	n/a	224216	largeHSmallT	correct	incongruent	0.36719	no	H	T
876.2109375	n/a	224310	responseLargeH	correct	n/a	0.36719	no	n/a	n/a
877.2851562	n/a	224585	largeHSmallH	correct	congruent	0.39062	no	H	H
877.6757812	n/a	224685	responseLargeH	correct	n/a	0.39062	no	n/a	n/a
878.7382812	n/a	224957	largeTSmallH	correct	incongruent	0.52344	no	T	H
879.2617188	n/a	225091	responseLargeT	correct	n/a	0.52344	no	n/a	n/a
880.3242188	n/a	225363	largeHSmallH	correct	congruent	0.33203	no	H	H
880.65625	n/a	225448	responseLargeH	correct	n/a	0.33203	no	n/a	n/a
881.7382812	n/a	225725	largeTSmallT	correct	congruent	0.49219	no	T	T
882.2304688	n/a	225851	responseLargeT	correct	n/a	0.49219	no	n/a	n/a
883.296875	n/a	226124	largeHSmallT	correct	incongruent	0.35547	no	H	T
883.6523438	n/a	226215	responseLargeH	correct	n/a	0.35547	no	n/a	n/a
884.7226562	n/a	226489	largeTSmallH	correct	incongruent	0.36719	no	T	H
885.0898438	n/a	226583	responseLargeT	correct	n/a	0.36719	no	n/a	n/a
886.1640625	n/a	226858	largeHSmallT	correct	incongruent	0.29688	no	H	T
886.4609375	n/a	226934	responseLargeH	correct	n/a	0.29688	no	n/a	n/a
887.5390625	n/a	227210	largeTSmallH	correct	incongruent	0.35938	no	T	H
887.8984375	n/a	227302	responseLargeT	correct	n/a	0.35938	no	n/a	n/a
888.9765625	n/a	227578	largeTSmallH	error	incongruent	0.35156	no	T	H
889.328125	n/a	227668	responseLargeH	error	n/a	0.35156	no	n/a	n/a
890.390625	n/a	227940	largeHSmallT	correct	incongruent	0.60156	no	H	T
890.9921875	n/a	228094	responseLargeH	correct	n/a	0.60156	no	n/a	n/a
892.0585938	n/a	228367	largeTSmallH	correct	incongruent	0.29688	no	T	H
892.3554688	n/a	228443	responseLargeT	correct	n/a	0.29688	no	n/a	n/a
893.4296875	n/a	228718	largeHSmallH	correct	congruent	0.35938	no	H	H
893.7890625	n/a	228810	responseLargeH	correct	n/a	0.35938	no	n/a	n/a
894.8554688	n/a	229083	largeTSmallT	correct	congruent	0.35938	no	T	T
895.2148438	n/a	229175	responseLargeT	correct	n/a	0.35938	no	n/a	n/a
896.2851562	n/a	229449	largeHSmallT	correct	incongruent	0.37891	no	H	T
896.6640625	n/a	229546	responseLargeH	correct	n/a	0.37891	no	n/a	n/a
897.7382812	n/a	229821	largeHSmallT	correct	incongruent	0.48828	no	H	T
898.2265625	n/a	229946	responseLargeH	correct	n/a	0.48828	no	n/a	n/a
899.296875	n/a	230220	largeHSmallT	correct	incongruent	0.49609	no	H	T
899.7929688	n/a	230347	responseLargeH	correct	n/a	0.49609	no	n/a	n/a
900.8554688	n/a	230619	largeTSmallH	correct	incongruent	0.52734	no	T	H
901.3828125	n/a	230754	responseLargeT	correct	n/a	0.52734	no	n/a	n/a
902.4453125	n/a	231026	largeTSmallH	correct	incongruent	0.63281	no	T	H
903.078125	n/a	231188	responseLargeT	correct	n/a	0.63281	no	n/a	n/a
904.1484375	n/a	231462	largeHSmallT	correct	incongruent	0.35156	no	H	T
904.5	n/a	231552	responseLargeH	correct	n/a	0.35156	no	n/a	n/a
905.578125	n/a	231828	largeTSmallT	correct	congruent	0.35547	no	T	T
905.9335938	n/a	231919	responseLargeT	correct	n/a	0.35547	no	n/a	n/a
907.0039062	n/a	232193	largeTSmallH	correct	incongruent	0.51953	no	T	H
907.5234375	n/a	232326	responseLargeT	correct	n/a	0.51953	no	n/a	n/a
908.5898438	n/a	232599	largeHSmallH	correct	congruent	0.41406	no	H	H
909.0039062	n/a	232705	responseLargeH	correct	n/a	0.41406	no	n/a	n/a
910.0703125	n/a	232978	largeHSmallH	correct	congruent	0.47266	no	H	H
910.5429688	n/a	233099	responseLargeH	correct	n/a	0.47266	no	n/a	n/a
911.6054688	n/a	233371	largeHSmallH	correct	congruent	0.51172	no	H	H
912.1171875	n/a	233502	responseLargeH	correct	n/a	0.51172	no	n/a	n/a
913.1757812	n/a	233773	largeTSmallH	correct	incongruent	0.45703	no	T	H
913.6328125	n/a	233890	responseLargeT	correct	n/a	0.45703	no	n/a	n/a
914.7109375	n/a	234166	largeTSmallH	correct	incongruent	0.5	no	T	H
915.2109375	n/a	234294	responseLargeT	correct	n/a	0.5	no	n/a	n/a
916.2851562	n/a	234569	largeHSmallT	correct	incongruent	0.35547	no	H	T
916.640625	n/a	234660	responseLargeH	correct	n/a	0.35547	no	n/a	n/a
917.7109375	n/a	234934	largeHSmallH	error	congruent	0.32422	no	H	H
918.0351562	n/a	235017	responseLargeT	error	n/a	0.32422	no	n/a	n/a
919.109375	n/a	235292	largeHSmallH	correct	congruent	0.33594	no	H	H
919.4453125	n/a	235378	responseLargeH	correct	n/a	0.33594	no	n/a	n/a
920.5117188	n/a	235651	largeTSmallT	correct	congruent	0.32031	no	T	T
920.8320312	n/a	235733	responseLargeT	correct	n/a	0.32031	no	n/a	n/a
921.9101562	n/a	236009	largeHSmallT	correct	incongruent	0.34375	no	H	T
922.2539062	n/a	236097	responseLargeH	correct	n/a	0.34375	no	n/a	n/a
923.3242188	n/a	236371	largeTSmallT	correct	congruent	0.31641	no	T	T
923.640625	n/a	236452	responseLargeT	correct	n/a	0.31641	no	n/a	n/a
924.7109375	n/a	236726	largeHSmallT	correct	incongruent	0.35938	no	H	T
925.0703125	n/a	236818	responseLargeH	correct	n/a	0.35938	no	n/a	n/a
926.1484375	n/a	237094	largeHSmallH	correct	congruent	0.57031	no	H	H
926.71875	n/a	237240	responseLargeH	correct	n/a	0.57031	no	n/a	n/a
927.7773438	n/a	237511	largeHSmallT	correct	incongruent	0.35156	no	H	T
928.1289062	n/a	237601	responseLargeH	correct	n/a	0.35156	no	n/a	n/a
929.203125	n/a	237876	largeHSmallT	correct	incongruent	0.56641	no	H	T
929.7695312	n/a	238021	responseLargeH	correct	n/a	0.56641	no	n/a	n/a
930.84375	n/a	238296	largeTSmallH	correct	incongruent	0.59766	no	T	H
931.4414062	n/a	238449	responseLargeT	correct	n/a	0.59766	no	n/a	n/a
932.5078125	n/a	238722	largeTSmallH	error	incongruent	0.33203	no	T	H
932.8398438	n/a	238807	responseLargeH	error	n/a	0.33203	no	n/a	n/a
933.9101562	n/a	239081	largeTSmallT	correct	congruent	0.42578	no	T	T
934.3359375	n/a	239190	responseLargeT	correct	n/a	0.42578	no	n/a	n/a
935.4179688	n/a	239467	largeTSmallT	error	congruent	0.35156	no	T	T
935.7695312	n/a	239557	responseLargeH	error	n/a	0.35156	no	n/a	n/a
936.84375	n/a	239832	largeHSmallT	correct	incongruent	0.44141	no	H	T
937.2851562	n/a	239945	responseLargeH	correct	n/a	0.44141	no	n/a	n/a
938.3632812	n/a	240221	largeTSmallT	correct	congruent	0.62109	no	T	T
938.984375	n/a	240380	responseLargeT	correct	n/a	0.62109	no	n/a	n/a
940.0703125	n/a	240658	largeHSmallT	correct	incongruent	0.44531	no	H	T
940.515625	n/a	240772	responseLargeH	correct	n/a	0.44531	no	n/a	n/a
941.5898438	n/a	241047	largeTSmallH	correct	incongruent	0.36328	no	T	H
941.953125	n/a	241140	responseLargeT	correct	n/a	0.36328	no	n/a	n/a
943.03125	n/a	241416	largeHSmallH	correct	congruent	0.32812	no	H	H
943.359375	n/a	241500	responseLargeH	correct	n/a	0.32812	no	n/a	n/a
944.4296875	n/a	241774	largeTSmallH	correct	incongruent	0.44531	no	T	H
944.875	n/a	241888	responseLargeT	correct	n/a	0.44531	no	n/a	n/a
945.9375	n/a	242160	largeTSmallT	error	congruent	0.36719	no	T	T
946.3046875	n/a	242254	responseLargeH	error	n/a	0.36719	no	n/a	n/a
947.375	n/a	242528	largeTSmallH	correct	incongruent	0.44531	no	T	H
947.8203125	n/a	242642	responseLargeT	correct	n/a	0.44531	no	n/a	n/a
948.8945312	n/a	242917	largeHSmallH	correct	congruent	0.54297	no	H	H
949.4375	n/a	243056	responseLargeH	correct	n/a	0.54297	no	n/a	n/a
950.5078125	n/a	243330	largeTSmallH	correct	incongruent	0.62109	no	T	H
951.1289062	n/a	243489	responseLargeT	correct	n/a	0.62109	no	n/a	n/a
952.203125	n/a	243764	largeTSmallH	correct	incongruent	0.44922	no	T	H
952.6523438	n/a	243879	responseLargeT	correct	n/a	0.44922	no	n/a	n/a
953.7226562	n/a	244153	largeHSmallT	error	incongruent	0.38672	no	H	T
954.109375	n/a	244252	responseLargeT	error	n/a	0.38672	no	n/a	n/a
955.1757812	n/a	244525	largeHSmallH	correct	congruent	0.5	no	H	H
955.6757812	n/a	244653	responseLargeH	correct	n/a	0.5	no	n/a	n/a
956.75	n/a	244928	largeHSmallT	correct	incongruent	0.51953	no	H	T
957.2695312	n/a	245061	responseLargeH	correct	n/a	0.51953	no	n/a	n/a
958.3476562	n/a	245337	largeHSmallH	correct	congruent	0.42188	no	H	H
958.7695312	n/a	245445	responseLargeH	correct	n/a	0.42188	no	n/a	n/a
959.84375	n/a	245720	largeHSmallT	correct	incongruent	0.40625	no	H	T
960.25	n/a	245824	responseLargeH	correct	n/a	0.40625	no	n/a	n/a
961.3203125	n/a	246098	largeTSmallH	correct	incongruent	0.5625	no	T	H
961.8828125	n/a	246242	responseLargeT	correct	n/a	0.5625	no	n/a	n/a
962.9492188	n/a	246515	largeHSmallH	correct	congruent	0.45312	no	H	H
963.4023438	n/a	246631	responseLargeH	correct	n/a	0.45312	no	n/a	n/a
964.46875	n/a	246904	largeHSmallT	correct	incongruent	0.42969	no	H	T
964.8984375	n/a	247014	responseLargeH	correct	n/a	0.42969	no	n/a	n/a
965.9765625	n/a	247290	largeHSmallH	correct	congruent	0.48438	no	H	H
966.4609375	n/a	247414	responseLargeH	correct	n/a	0.48438	no	n/a	n/a
967.5351562	n/a	247689	largeHSmallT	correct	incongruent	0.48047	no	H	T
968.015625	n/a	247812	responseLargeH	correct	n/a	0.48047	no	n/a	n/a
969.0820312	n/a	248085	largeHSmallH	correct	congruent	0.44922	no	H	H
969.53125	n/a	248200	responseLargeH	correct	n/a	0.44922	no	n/a	n/a
970.6015625	n/a	248474	largeHSmallH	correct	congruent	0.41406	no	H	H
971.015625	n/a	248580	responseLargeH	correct	n/a	0.41406	no	n/a	n/a
972.0820312	n/a	248853	largeHSmallT	correct	incongruent	0.43359	no	H	T
972.515625	n/a	248964	responseLargeH	correct	n/a	0.43359	no	n/a	n/a
973.5898438	n/a	249239	largeTSmallH	correct	incongruent	0.57422	no	T	H
974.1640625	n/a	249386	responseLargeT	correct	n/a	0.57422	no	n/a	n/a
975.2421875	n/a	249662	largeTSmallT	correct	congruent	0.48828	no	T	T
975.7304688	n/a	249787	responseLargeT	correct	n/a	0.48828	no	n/a	n/a
976.8007812	n/a	250061	largeTSmallH	correct	incongruent	0.47266	no	T	H
977.2734375	n/a	250182	responseLargeT	correct	n/a	0.47266	no	n/a	n/a
978.3476562	n/a	250457	largeTSmallT	correct	congruent	0.44922	no	T	T
978.796875	n/a	250572	responseLargeT	correct	n/a	0.44922	no	n/a	n/a
979.8671875	n/a	250846	largeHSmallT	correct	incongruent	0.64453	no	H	T
980.5117188	n/a	251011	responseLargeH	correct	n/a	0.64453	no	n/a	n/a
981.5898438	n/a	251287	largeTSmallH	correct	incongruent	0.51172	no	T	H
982.1015625	n/a	251418	responseLargeT	correct	n/a	0.51172	no	n/a	n/a
983.1757812	n/a	251693	largeHSmallH	correct	congruent	0.65625	no	H	H
983.8320312	n/a	251861	responseLargeH	correct	n/a	0.65625	no	n/a	n/a
984.8945312	n/a	252133	largeHSmallH	correct	congruent	0.58594	no	H	H
985.4804688	n/a	252283	responseLargeH	correct	n/a	0.58594	no	n/a	n/a
986.546875	n/a	252556	largeTSmallT	correct	congruent	0.5	no	T	T
987.046875	n/a	252684	responseLargeT	correct	n/a	0.5	no	n/a	n/a
988.1210938	n/a	252959	largeHSmallT	correct	incongruent	0.55078	no	H	T
988.671875	n/a	253100	responseLargeH	correct	n/a	0.55078	no	n/a	n/a
989.75	n/a	253376	largeTSmallH	correct	incongruent	0.39453	no	T	H
990.1445312	n/a	253477	responseLargeT	correct	n/a	0.39453	no	n/a	n/a
991.2148438	n/a	253751	largeHSmallT	correct	incongruent	0.40234	no	H	T
991.6171875	n/a	253854	responseLargeH	correct	n/a	0.40234	no	n/a	n/a
992.6953125	n/a	254130	largeHSmallT	correct	incongruent	0.39062	no	H	T
993.0859375	n/a	254230	responseLargeH	correct	n/a	0.39062	no	n/a	n/a
994.1601562	n/a	254505	largeTSmallT	correct	congruent	0.48047	no	T	T
994.640625	n/a	254628	responseLargeT	correct	n/a	0.48047	no	n/a	n/a
995.7070312	n/a	254901	largeTSmallT	error	congruent	0.35156	no	T	T
996.0585938	n/a	254991	responseLargeH	error	n/a	0.35156	no	n/a	n/a
997.1210938	n/a	255263	largeHSmallT	correct	incongruent	0.38281	no	H	T
997.5039062	n/a	255361	responseLargeH	correct	n/a	0.38281	no	n/a	n/a
998.5742188	n/a	255635	largeTSmallT	correct	congruent	0.36719	no	T	T
998.9414062	n/a	255729	responseLargeT	correct	n/a	0.36719	no	n/a	n/a
1000.015625	n/a	256004	largeTSmallH	correct	incongruent	0.60547	no	T	H
1000.621094	n/a	256159	responseLargeT	correct	n/a	0.60547	no	n/a	n/a
1001.695312	n/a	256434	largeHSmallH	correct	congruent	0.38672	no	H	H
1002.082031	n/a	256533	responseLargeH	correct	n/a	0.38672	no	n/a	n/a
1003.148438	n/a	256806	largeTSmallT	correct	congruent	0.38281	no	T	T
1003.53125	n/a	256904	responseLargeT	correct	n/a	0.38281	no	n/a	n/a
1004.601562	n/a	257178	largeHSmallT	correct	incongruent	0.39844	no	H	T
1005	n/a	257280	responseLargeH	correct	n/a	0.39844	no	n/a	n/a
1006.066406	n/a	257553	largeTSmallT	correct	congruent	0.59766	no	T	T
1006.664062	n/a	257706	responseLargeT	correct	n/a	0.59766	no	n/a	n/a
1029.160156	n/a	263465	largeTSmallH	correct	incongruent	0.74609	no	T	H
1029.90625	n/a	263656	responseSmallH	correct	n/a	0.74609	no	n/a	n/a
1030.972656	n/a	263929	largeTSmallT	correct	congruent	0.48828	no	T	T
1031.460938	n/a	264054	responseSmallT	correct	n/a	0.48828	no	n/a	n/a
1032.519531	n/a	264325	largeTSmallH	correct	incongruent	0.59766	no	T	H
1033.117188	n/a	264478	responseSmallH	correct	n/a	0.59766	no	n/a	n/a
1034.1875	n/a	264752	largeHSmallH	correct	congruent	0.48828	no	H	H
1034.675781	n/a	264877	responseSmallH	correct	n/a	0.48828	no	n/a	n/a
1035.746094	n/a	265151	largeHSmallT	correct	incongruent	0.45312	no	H	T
1036.199219	n/a	265267	responseSmallT	correct	n/a	0.45312	no	n/a	n/a
1037.265625	n/a	265540	largeTSmallH	correct	incongruent	0.44922	no	T	H
1037.714844	n/a	265655	responseSmallH	correct	n/a	0.44922	no	n/a	n/a
1038.785156	n/a	265929	largeHSmallT	correct	incongruent	0.43359	no	H	T
1039.21875	n/a	266040	responseSmallT	correct	n/a	0.43359	no	n/a	n/a
1040.292969	n/a	266315	largeTSmallH	correct	incongruent	0.35938	no	T	H
1040.652344	n/a	266407	responseSmallH	correct	n/a	0.35938	no	n/a	n/a
1041.71875	n/a	266680	largeHSmallH	correct	congruent	0.51172	no	H	H
1042.230469	n/a	266811	responseSmallH	correct	n/a	0.51172	no	n/a	n/a
1043.308594	n/a	267087	largeHSmallT	correct	incongruent	0.51953	no	H	T
1043.828125	n/a	267220	responseSmallT	correct	n/a	0.51953	no	n/a	n/a
1044.894531	n/a	267493	largeHSmallT	error	incongruent	0.44141	no	H	T
1045.335938	n/a	267606	responseSmallH	error	n/a	0.44141	no	n/a	n/a
1046.398438	n/a	267878	largeTSmallH	correct	incongruent	0.48438	no	T	H
1046.882812	n/a	268002	responseSmallH	correct	n/a	0.48438	no	n/a	n/a
1047.945312	n/a	268274	largeHSmallH	correct	congruent	0.41797	no	H	H
1048.363281	n/a	268381	responseSmallH	correct	n/a	0.41797	no	n/a	n/a
1049.425781	n/a	268653	largeHSmallH	correct	congruent	0.39453	no	H	H
1049.820312	n/a	268754	responseSmallH	correct	n/a	0.39453	no	n/a	n/a
1050.878906	n/a	269025	largeTSmallH	correct	incongruent	0.40625	no	T	H
1051.285156	n/a	269129	responseSmallH	correct	n/a	0.40625	no	n/a	n/a
1052.347656	n/a	269401	largeTSmallH	correct	incongruent	0.40625	no	T	H
1052.753906	n/a	269505	responseSmallH	correct	n/a	0.40625	no	n/a	n/a
1053.828125	n/a	269780	largeTSmallT	error	congruent	0.35938	no	T	T
1054.1875	n/a	269872	responseSmallH	error	n/a	0.35938	no	n/a	n/a
1055.253906	n/a	270145	largeTSmallT	correct	congruent	0.52734	no	T	T
1055.78125	n/a	270280	responseSmallT	correct	n/a	0.52734	no	n/a	n/a
1056.851562	n/a	270554	largeHSmallH	correct	congruent	0.48828	no	H	H
1057.339844	n/a	270679	responseSmallH	correct	n/a	0.48828	no	n/a	n/a
1058.398438	n/a	270950	largeTSmallH	correct	incongruent	0.41797	no	T	H
1058.816406	n/a	271057	responseSmallH	correct	n/a	0.41797	no	n/a	n/a
1059.878906	n/a	271329	largeHSmallT	error	incongruent	0.39844	no	H	T
1060.277344	n/a	271431	responseSmallH	error	n/a	0.39844	no	n/a	n/a
1061.347656	n/a	271705	largeHSmallT	correct	incongruent	0.41016	no	H	T
1061.757812	n/a	271810	responseSmallT	correct	n/a	0.41016	no	n/a	n/a
1062.839844	n/a	272087	largeTSmallT	correct	congruent	0.5625	no	T	T
1063.402344	n/a	272231	responseSmallT	correct	n/a	0.5625	no	n/a	n/a
1064.464844	n/a	272503	largeTSmallH	correct	incongruent	0.51172	no	T	H
1064.976562	n/a	272634	responseSmallH	correct	n/a	0.51172	no	n/a	n/a
1066.039062	n/a	272906	largeTSmallH	correct	incongruent	0.42578	no	T	H
1066.464844	n/a	273015	responseSmallH	correct	n/a	0.42578	no	n/a	n/a
1067.546875	n/a	273292	largeTSmallT	error	congruent	0.40234	no	T	T
1067.949219	n/a	273395	responseSmallH	error	n/a	0.40234	no	n/a	n/a
1069.027344	n/a	273671	largeTSmallH	correct	incongruent	0.57812	no	T	H
1069.605469	n/a	273819	responseSmallH	correct	n/a	0.57812	no	n/a	n/a
1070.679688	n/a	274094	largeHSmallT	correct	incongruent	0.34766	no	H	T
1071.027344	n/a	274183	responseSmallT	correct	n/a	0.34766	no	n/a	n/a
1072.105469	n/a	274459	largeHSmallT	error	incongruent	0.375	no	H	T
1072.480469	n/a	274555	responseSmallH	error	n/a	0.375	no	n/a	n/a
1073.546875	n/a	274828	largeTSmallH	correct	incongruent	0.85156	no	T	H
1074.398438	n/a	275046	responseSmallH	correct	n/a	0.85156	no	n/a	n/a
1075.464844	n/a	275319	largeHSmallT	correct	incongruent	0.39453	no	H	T
1075.859375	n/a	275420	responseSmallT	correct	n/a	0.39453	no	n/a	n/a
1076.933594	n/a	275695	largeTSmallT	correct	congruent	0.50391	no	T	T
1077.4375	n/a	275824	responseSmallT	correct	n/a	0.50391	no	n/a	n/a
1078.503906	n/a	276097	largeHSmallH	correct	congruent	0.55469	no	H	H
1079.058594	n/a	276239	responseSmallH	correct	n/a	0.55469	no	n/a	n/a
1080.132812	n/a	276514	largeTSmallT	correct	congruent	0.46875	no	T	T
1080.601562	n/a	276634	responseSmallT	correct	n/a	0.46875	no	n/a	n/a
1081.679688	n/a	276910	largeTSmallT	correct	congruent	0.58203	no	T	T
1082.261719	n/a	277059	responseSmallT	correct	n/a	0.58203	no	n/a	n/a
1083.332031	n/a	277333	largeHSmallT	correct	incongruent	0.53125	no	H	T
1083.863281	n/a	277469	responseSmallT	correct	n/a	0.53125	no	n/a	n/a
1084.933594	n/a	277743	largeHSmallT	correct	incongruent	0.46875	no	H	T
1085.402344	n/a	277863	responseSmallT	correct	n/a	0.46875	no	n/a	n/a
1086.464844	n/a	278135	largeHSmallH	correct	congruent	0.64844	no	H	H
1087.113281	n/a	278301	responseSmallH	correct	n/a	0.64844	no	n/a	n/a
1088.1875	n/a	278576	largeHSmallT	correct	incongruent	0.375	no	H	T
1088.5625	n/a	278672	responseSmallT	correct	n/a	0.375	no	n/a	n/a
1089.640625	n/a	278948	largeHSmallH	correct	congruent	0.47266	no	H	H
1090.113281	n/a	279069	responseSmallH	correct	n/a	0.47266	no	n/a	n/a
1091.171875	n/a	279340	largeTSmallH	correct	incongruent	0.55078	no	T	H
1091.722656	n/a	279481	responseSmallH	correct	n/a	0.55078	no	n/a	n/a
1092.796875	n/a	279756	largeTSmallT	correct	congruent	0.35547	no	T	T
1093.152344	n/a	279847	responseSmallT	correct	n/a	0.35547	no	n/a	n/a
1094.226562	n/a	280122	largeHSmallH	correct	congruent	0.40625	no	H	H
1094.632812	n/a	280226	responseSmallH	correct	n/a	0.40625	no	n/a	n/a
1095.707031	n/a	280501	largeHSmallT	correct	incongruent	0.35547	no	H	T
1096.0625	n/a	280592	responseSmallT	correct	n/a	0.35547	no	n/a	n/a
1097.132812	n/a	280866	largeTSmallH	correct	incongruent	0.41016	no	T	H
1097.542969	n/a	280971	responseSmallH	correct	n/a	0.41016	no	n/a	n/a
1098.625	n/a	281248	largeHSmallH	error	congruent	0.36719	no	H	H
1098.992188	n/a	281342	responseSmallT	error	n/a	0.36719	no	n/a	n/a
1100.050781	n/a	281613	largeHSmallT	error	incongruent	0.39453	no	H	T
1100.445312	n/a	281714	responseSmallH	error	n/a	0.39453	no	n/a	n/a
1101.519531	n/a	281989	largeTSmallT	correct	congruent	0.44141	no	T	T
1101.960938	n/a	282102	responseSmallT	correct	n/a	0.44141	no	n/a	n/a
1103.039062	n/a	282378	largeHSmallH	correct	congruent	0.50391	no	H	H
1103.542969	n/a	282507	responseSmallH	correct	n/a	0.50391	no	n/a	n/a
1104.613281	n/a	282781	largeTSmallH	correct	incongruent	0.53125	no	T	H
1105.144531	n/a	282917	responseSmallH	correct	n/a	0.53125	no	n/a	n/a
1106.210938	n/a	283190	largeTSmallH	correct	incongruent	0.39453	no	T	H
1106.605469	n/a	283291	responseSmallH	correct	n/a	0.39453	no	n/a	n/a
1107.679688	n/a	283566	largeHSmallT	error	incongruent	0.4375	no	H	T
1108.117188	n/a	283678	responseSmallH	error	n/a	0.4375	no	n/a	n/a
1109.199219	n/a	283955	largeTSmallH	correct	incongruent	0.73047	no	T	H
1109.929688	n/a	284142	responseSmallH	correct	n/a	0.73047	no	n/a	n/a
1110.984375	n/a	284412	largeHSmallH	error	congruent	0.29688	no	H	H
1111.28125	n/a	284488	responseSmallT	error	n/a	0.29688	no	n/a	n/a
1112.34375	n/a	284760	largeTSmallH	correct	incongruent	0.45312	no	T	H
1112.796875	n/a	284876	responseSmallH	correct	n/a	0.45312	no	n/a	n/a
1113.863281	n/a	285149	largeTSmallT	correct	congruent	0.39062	no	T	T
1114.253906	n/a	285249	responseSmallT	correct	n/a	0.39062	no	n/a	n/a
1115.332031	n/a	285525	largeHSmallT	correct	incongruent	0.49609	no	H	T
1115.828125	n/a	285652	responseSmallT	correct	n/a	0.49609	no	n/a	n/a
1116.90625	n/a	285928	largeTSmallT	correct	congruent	0.44922	no	T	T
1117.355469	n/a	286043	responseSmallT	correct	n/a	0.44922	no	n/a	n/a
1118.425781	n/a	286317	largeHSmallT	correct	incongruent	0.48047	no	H	T
1118.90625	n/a	286440	responseSmallT	correct	n/a	0.48047	no	n/a	n/a
1119.972656	n/a	286713	largeTSmallH	correct	incongruent	0.61719	no	T	H
1120.589844	n/a	286871	responseSmallH	correct	n/a	0.61719	no	n/a	n/a
1121.664062	n/a	287146	largeTSmallT	correct	congruent	0.42578	no	T	T
1122.089844	n/a	287255	responseSmallT	correct	n/a	0.42578	no	n/a	n/a
1123.15625	n/a	287528	largeTSmallH	correct	incongruent	0.48828	no	T	H
1123.644531	n/a	287653	responseSmallH	correct	n/a	0.48828	no	n/a	n/a
1124.71875	n/a	287928	largeHSmallH	correct	congruent	0.55859	no	H	H
1125.277344	n/a	288071	responseSmallH	correct	n/a	0.55859	no	n/a	n/a
1126.359375	n/a	288348	largeTSmallH	correct	incongruent	0.57812	no	T	H
1126.9375	n/a	288496	responseSmallH	correct	n/a	0.57812	no	n/a	n/a
1128.011719	n/a	288771	largeTSmallH	correct	incongruent	0.47656	no	T	H
1128.488281	n/a	288893	responseSmallH	correct	n/a	0.47656	no	n/a	n/a
1129.558594	n/a	289167	largeHSmallH	correct	congruent	0.46875	no	H	H
1130.027344	n/a	289287	responseSmallH	correct	n/a	0.46875	no	n/a	n/a
1131.105469	n/a	289563	largeTSmallT	correct	congruent	0.5625	no	T	T
1131.667969	n/a	289707	responseSmallT	correct	n/a	0.5625	no	n/a	n/a
1132.730469	n/a	289979	largeTSmallH	correct	incongruent	0.41406	no	T	H
1133.144531	n/a	290085	responseSmallH	correct	n/a	0.41406	no	n/a	n/a
1134.222656	n/a	290361	largeHSmallH	correct	congruent	0.61328	no	H	H
1134.835938	n/a	290518	responseSmallH	correct	n/a	0.61328	no	n/a	n/a
1135.902344	n/a	290791	largeHSmallH	correct	congruent	0.57812	no	H	H
1136.480469	n/a	290939	responseSmallH	correct	n/a	0.57812	no	n/a	n/a
1137.558594	n/a	291215	largeTSmallT	correct	congruent	0.50781	no	T	T
1138.066406	n/a	291345	responseSmallT	correct	n/a	0.50781	no	n/a	n/a
1139.132812	n/a	291618	largeHSmallH	correct	congruent	0.39844	no	H	H
1139.53125	n/a	291720	responseSmallH	correct	n/a	0.39844	no	n/a	n/a
1140.597656	n/a	291993	largeTSmallH	correct	incongruent	0.50781	no	T	H
1141.105469	n/a	292123	responseSmallH	correct	n/a	0.50781	no	n/a	n/a
1142.171875	n/a	292396	largeTSmallT	error	congruent	0.36328	no	T	T
1142.535156	n/a	292489	responseSmallH	error	n/a	0.36328	no	n/a	n/a
1143.609375	n/a	292764	largeHSmallH	correct	congruent	0.34766	no	H	H
1143.957031	n/a	292853	responseSmallH	correct	n/a	0.34766	no	n/a	n/a
1145.039062	n/a	293130	largeTSmallT	correct	congruent	0.32031	no	T	T
1145.359375	n/a	293212	responseSmallT	correct	n/a	0.32031	no	n/a	n/a
1146.4375	n/a	293488	largeHSmallH	correct	congruent	0.42578	no	H	H
1146.863281	n/a	293597	responseSmallH	correct	n/a	0.42578	no	n/a	n/a
1147.929688	n/a	293870	largeHSmallT	correct	incongruent	0.33594	no	H	T
1148.265625	n/a	293956	responseSmallT	correct	n/a	0.33594	no	n/a	n/a
1149.332031	n/a	294229	largeHSmallT	error	incongruent	0.33594	no	H	T
1149.667969	n/a	294315	responseSmallH	error	n/a	0.33594	no	n/a	n/a
1150.742188	n/a	294590	largeTSmallT	error	congruent	0.37109	no	T	T
1151.113281	n/a	294685	responseSmallH	error	n/a	0.37109	no	n/a	n/a
1152.171875	n/a	294956	largeHSmallT	correct	incongruent	0.46875	no	H	T
1152.640625	n/a	295076	responseSmallT	correct	n/a	0.46875	no	n/a	n/a
1153.71875	n/a	295352	largeTSmallH	correct	incongruent	0.39062	no	T	H
1154.109375	n/a	295452	responseSmallH	correct	n/a	0.39062	no	n/a	n/a
1155.183594	n/a	295727	largeHSmallT	correct	incongruent	0.50781	no	H	T
1155.691406	n/a	295857	responseSmallT	correct	n/a	0.50781	no	n/a	n/a
1156.757812	n/a	296130	largeHSmallH	correct	congruent	0.41406	no	H	H
1157.171875	n/a	296236	responseSmallH	correct	n/a	0.41406	no	n/a	n/a
1158.25	n/a	296512	largeTSmallH	correct	incongruent	0.49609	no	T	H
1158.746094	n/a	296639	responseSmallH	correct	n/a	0.49609	no	n/a	n/a
1159.824219	n/a	296915	largeHSmallT	error	incongruent	0.4375	no	H	T
1160.261719	n/a	297027	responseSmallH	error	n/a	0.4375	no	n/a	n/a
1161.332031	n/a	297301	largeHSmallH	error	congruent	0.46094	no	H	H
1161.792969	n/a	297419	responseSmallT	error	n/a	0.46094	no	n/a	n/a
1162.863281	n/a	297693	largeTSmallT	correct	congruent	0.53906	no	T	T
1163.402344	n/a	297831	responseSmallT	correct	n/a	0.53906	no	n/a	n/a
1164.464844	n/a	298103	largeTSmallH	correct	incongruent	0.43359	no	T	H
1164.898438	n/a	298214	responseSmallH	correct	n/a	0.43359	no	n/a	n/a
1165.96875	n/a	298488	largeHSmallH	correct	congruent	0.44141	no	H	H
1166.410156	n/a	298601	responseSmallH	correct	n/a	0.44141	no	n/a	n/a
1167.476562	n/a	298874	largeTSmallT	correct	congruent	0.55469	no	T	T
1168.03125	n/a	299016	responseSmallT	correct	n/a	0.55469	no	n/a	n/a
1169.101562	n/a	299290	largeHSmallT	correct	incongruent	0.45312	no	H	T
1169.554688	n/a	299406	responseSmallT	correct	n/a	0.45312	no	n/a	n/a
1170.625	n/a	299680	largeHSmallH	correct	congruent	0.55078	no	H	H
1171.175781	n/a	299821	responseSmallH	correct	n/a	0.55078	no	n/a	n/a
1172.25	n/a	300096	largeHSmallT	correct	incongruent	0.53516	no	H	T
1172.785156	n/a	300233	responseSmallT	correct	n/a	0.53516	no	n/a	n/a
1173.863281	n/a	300509	largeTSmallT	correct	congruent	0.51172	no	T	T
1174.375	n/a	300640	responseSmallT	correct	n/a	0.51172	no	n/a	n/a
1175.449219	n/a	300915	largeHSmallH	correct	congruent	0.46875	no	H	H
1175.917969	n/a	301035	responseSmallH	correct	n/a	0.46875	no	n/a	n/a
1176.996094	n/a	301311	largeTSmallH	correct	incongruent	0.55859	no	T	H
1177.554688	n/a	301454	responseSmallH	correct	n/a	0.55859	no	n/a	n/a
1178.636719	n/a	301731	largeHSmallT	correct	incongruent	0.58984	no	H	T
1179.226562	n/a	301882	responseSmallT	correct	n/a	0.58984	no	n/a	n/a
1180.304688	n/a	302158	largeHSmallH	correct	congruent	0.44922	no	H	H
1180.753906	n/a	302273	responseSmallH	correct	n/a	0.44922	no	n/a	n/a
1181.835938	n/a	302550	largeHSmallT	correct	incongruent	0.51562	no	H	T
1182.351562	n/a	302682	responseSmallT	correct	n/a	0.51562	no	n/a	n/a
1183.421875	n/a	302956	largeTSmallT	correct	congruent	0.48828	no	T	T
1183.910156	n/a	303081	responseSmallT	correct	n/a	0.48828	no	n/a	n/a
1184.984375	n/a	303356	largeTSmallT	correct	congruent	0.41016	no	T	T
1185.394531	n/a	303461	responseSmallT	correct	n/a	0.41016	no	n/a	n/a
1186.464844	n/a	303735	largeHSmallT	correct	incongruent	0.45312	no	H	T
1186.917969	n/a	303851	responseSmallT	correct	n/a	0.45312	no	n/a	n/a
1187.996094	n/a	304127	largeHSmallH	correct	congruent	0.52344	no	H	H
1188.519531	n/a	304261	responseSmallH	correct	n/a	0.52344	no	n/a	n/a
1189.582031	n/a	304533	largeHSmallH	correct	congruent	0.44531	no	H	H
1190.027344	n/a	304647	responseSmallH	correct	n/a	0.44531	no	n/a	n/a
1191.101562	n/a	304922	largeTSmallT	correct	congruent	0.5	no	T	T
1191.601562	n/a	305050	responseSmallT	correct	n/a	0.5	no	n/a	n/a
1192.675781	n/a	305325	largeTSmallH	correct	incongruent	0.39062	no	T	H
1193.066406	n/a	305425	responseSmallH	correct	n/a	0.39062	no	n/a	n/a
1194.144531	n/a	305701	largeHSmallT	correct	incongruent	0.45312	no	H	T
1194.597656	n/a	305817	responseSmallT	correct	n/a	0.45312	no	n/a	n/a
1195.664062	n/a	306090	largeTSmallH	correct	incongruent	0.40234	no	T	H
1196.066406	n/a	306193	responseSmallH	correct	n/a	0.40234	no	n/a	n/a
1197.128906	n/a	306465	largeHSmallH	correct	congruent	0.55469	no	H	H
1197.683594	n/a	306607	responseSmallH	correct	n/a	0.55469	no	n/a	n/a
1198.757812	n/a	306882	largeHSmallH	correct	congruent	0.55469	no	H	H
1199.3125	n/a	307024	responseSmallH	correct	n/a	0.55469	no	n/a	n/a
1200.382812	n/a	307298	largeHSmallT	correct	incongruent	0.55469	no	H	T
1200.9375	n/a	307440	responseSmallT	correct	n/a	0.55469	no	n/a	n/a
1201.996094	n/a	307711	largeTSmallT	correct	congruent	0.48047	no	T	T
1202.476562	n/a	307834	responseSmallT	correct	n/a	0.48047	no	n/a	n/a
1203.542969	n/a	308107	largeTSmallT	correct	congruent	0.51172	no	T	T
1204.054688	n/a	308238	responseSmallT	correct	n/a	0.51172	no	n/a	n/a
1205.117188	n/a	308510	largeHSmallH	correct	congruent	0.375	no	H	H
1205.492188	n/a	308606	responseSmallH	correct	n/a	0.375	no	n/a	n/a
1206.554688	n/a	308878	largeHSmallT	error	incongruent	0.39062	no	H	T
1206.945312	n/a	308978	responseSmallH	error	n/a	0.39062	no	n/a	n/a
1208.007812	n/a	309250	largeHSmallH	correct	congruent	0.53906	no	H	H
1208.546875	n/a	309388	responseSmallH	correct	n/a	0.53906	no	n/a	n/a
1209.609375	n/a	309660	largeHSmallT	correct	incongruent	0.38281	no	H	T
1209.992188	n/a	309758	responseSmallT	correct	n/a	0.38281	no	n/a	n/a
1211.0625	n/a	310032	largeTSmallH	correct	incongruent	0.49609	no	T	H
1211.558594	n/a	310159	responseSmallH	correct	n/a	0.49609	no	n/a	n/a
1212.621094	n/a	310431	largeTSmallH	correct	incongruent	0.51562	no	T	H
1213.136719	n/a	310563	responseSmallH	correct	n/a	0.51562	no	n/a	n/a
1214.222656	n/a	310841	largeTSmallT	correct	congruent	0.48047	no	T	T
1214.703125	n/a	310964	responseSmallT	correct	n/a	0.48047	no	n/a	n/a
1215.78125	n/a	311240	largeHSmallT	error	incongruent	0.41406	no	H	T
1216.195312	n/a	311346	responseSmallH	error	n/a	0.41406	no	n/a	n/a
1217.261719	n/a	311619	largeTSmallH	correct	incongruent	0.42969	no	T	H
1217.691406	n/a	311729	responseSmallH	correct	n/a	0.42969	no	n/a	n/a
1218.753906	n/a	312001	largeTSmallT	correct	congruent	0.47656	no	T	T
1219.230469	n/a	312123	responseSmallT	correct	n/a	0.47656	no	n/a	n/a
1220.300781	n/a	312397	largeHSmallT	error	incongruent	0.41797	no	H	T
1220.71875	n/a	312504	responseSmallH	error	n/a	0.41797	no	n/a	n/a
1221.796875	n/a	312780	largeTSmallH	correct	incongruent	0.50391	no	T	H
1222.300781	n/a	312909	responseSmallH	correct	n/a	0.50391	no	n/a	n/a
1223.367188	n/a	313182	largeTSmallH	correct	incongruent	0.54297	no	T	H
1223.910156	n/a	313321	responseSmallH	correct	n/a	0.54297	no	n/a	n/a
1224.980469	n/a	313595	largeTSmallT	correct	congruent	0.51172	no	T	T
1225.492188	n/a	313726	responseSmallT	correct	n/a	0.51172	no	n/a	n/a
1226.554688	n/a	313998	largeHSmallH	correct	congruent	0.40234	no	H	H
1226.957031	n/a	314101	responseSmallH	correct	n/a	0.40234	no	n/a	n/a
1228.023438	n/a	314374	largeHSmallT	correct	incongruent	0.48438	no	H	T
1228.507812	n/a	314498	responseSmallT	correct	n/a	0.48438	no	n/a	n/a
