onset	duration	sample	value	response_type	congruence	response_time	response_out_of_range	largeletter	smallletter
49.9453125	n/a	12786	largeHSmallT	correct	incongruent	3.5508	yes	H	T
53.49609375	n/a	13695	responseLargeH	correct	n/a	3.5508	yes	n/a	n/a
54.5703125	n/a	13970	largeTSmallH	correct	incongruent	1.8477	yes	T	H
56.41796875	n/a	14443	responseLargeT	correct	n/a	1.8477	yes	n/a	n/a
57.48828125	n/a	14717	largeHSmallH	correct	congruent	1.6758	yes	H	H
59.1640625	n/a	15146	responseLargeH	correct	n/a	1.6758	yes	n/a	n/a
60.234375	n/a	15420	largeTSmallT	correct	congruent	1.3359	no	T	T
61.5703125	n/a	15762	responseLargeT	correct	n/a	1.3359	no	n/a	n/a
62.63671875	n/a	16035	largeTSmallT	correct	congruent	1.3906	no	T	T
64.02734375	n/a	16391	responseLargeT	correct	n/a	1.3906	no	n/a	n/a
65.1015625	n/a	16666	largeTSmallH	correct	incongruent	1.7188	yes	T	H
66.8203125	n/a	17106	responseLargeT	correct	n/a	1.7188	yes	n/a	n/a
67.890625	n/a	17380	largeTSmallT	correct	congruent	1.1641	no	T	T
69.0546875	n/a	17678	responseLargeT	correct	n/a	1.1641	no	n/a	n/a
70.1171875	n/a	17950	largeTSmallT	correct	congruent	1.207	no	T	T
71.32421875	n/a	18259	responseLargeT	correct	n/a	1.207	no	n/a	n/a
72.39453125	n/a	18533	largeTSmallH	correct	incongruent	1.3867	no	T	H
73.78125	n/a	18888	responseLargeT	correct	n/a	1.3867	no	n/a	n/a
74.84765625	n/a	19161	largeTSmallH	correct	incongruent	1.2227	no	T	H
76.0703125	n/a	19474	responseLargeT	correct	n/a	1.2227	no	n/a	n/a
77.140625	n/a	19748	largeTSmallT	correct	congruent	1.4805	no	T	T
78.62109375	n/a	20127	responseLargeT	correct	n/a	1.4805	no	n/a	n/a
79.6875	n/a	20400	largeTSmallH	correct	incongruent	2.1172	yes	T	H
81.8046875	n/a	20942	responseLargeT	correct	n/a	2.1172	yes	n/a	n/a
82.890625	n/a	21220	largeHSmallT	correct	incongruent	1.5898	yes	H	T
84.48046875	n/a	21627	responseLargeH	correct	n/a	1.5898	yes	n/a	n/a
85.5546875	n/a	21902	largeHSmallH	correct	congruent	1.4492	no	H	H
87.00390625	n/a	22273	responseLargeH	correct	n/a	1.4492	no	n/a	n/a
88.07421875	n/a	22547	largeTSmallH	correct	incongruent	1.1602	no	T	H
89.234375	n/a	22844	responseLargeT	correct	n/a	1.1602	no	n/a	n/a
90.30078125	n/a	23117	largeHSmallT	correct	incongruent	1.3867	no	H	T
91.6875	n/a	23472	responseLargeH	correct	n/a	1.3867	no	n/a	n/a
92.75390625	n/a	23745	largeHSmallT	correct	incongruent	1.0742	no	H	T
93.828125	n/a	24020	responseLargeH	correct	n/a	1.0742	no	n/a	n/a
94.890625	n/a	24292	largeHSmallH	correct	congruent	1.1406	no	H	H
96.03125	n/a	24584	responseLargeH	correct	n/a	1.1406	no	n/a	n/a
97.11328125	n/a	24861	largeHSmallT	correct	incongruent	1.2031	no	H	T
98.31640625	n/a	25169	responseLargeH	correct	n/a	1.2031	no	n/a	n/a
99.3828125	n/a	25442	largeHSmallT	correct	incongruent	1.0664	no	H	T
100.4492188	n/a	25715	responseLargeH	correct	n/a	1.0664	no	n/a	n/a
101.5273438	n/a	25991	largeTSmallH	correct	incongruent	2.7969	yes	T	H
104.3242188	n/a	26707	responseLargeT	correct	n/a	2.7969	yes	n/a	n/a
105.3945312	n/a	26981	largeHSmallH	correct	congruent	1.3555	no	H	H
106.75	n/a	27328	responseLargeH	correct	n/a	1.3555	no	n/a	n/a
107.8203125	n/a	27602	largeTSmallT	correct	congruent	1.6406	yes	T	T
109.4609375	n/a	28022	responseLargeT	correct	n/a	1.6406	yes	n/a	n/a
110.5273438	n/a	28295	largeHSmallT	correct	incongruent	1.8711	yes	H	T
112.3984375	n/a	28774	responseLargeH	correct	n/a	1.8711	yes	n/a	n/a
113.4765625	n/a	29050	largeTSmallH	correct	incongruent	1.2617	no	T	H
114.7382812	n/a	29373	responseLargeT	correct	n/a	1.2617	no	n/a	n/a
115.8203125	n/a	29650	largeHSmallH	correct	congruent	1.4648	no	H	H
117.2851562	n/a	30025	responseLargeH	correct	n/a	1.4648	no	n/a	n/a
118.3554688	n/a	30299	largeTSmallT	correct	congruent	1.2266	no	T	T
119.5820312	n/a	30613	responseLargeT	correct	n/a	1.2266	no	n/a	n/a
120.6484375	n/a	30886	largeHSmallH	correct	congruent	1.6602	yes	H	H
122.3085938	n/a	31311	responseLargeH	correct	n/a	1.6602	yes	n/a	n/a
123.3828125	n/a	31586	largeTSmallT	correct	congruent	1.4961	no	T	T
124.8789062	n/a	31969	responseLargeT	correct	n/a	1.4961	no	n/a	n/a
125.953125	n/a	32244	largeTSmallT	correct	congruent	1.1016	no	T	T
127.0546875	n/a	32526	responseLargeT	correct	n/a	1.1016	no	n/a	n/a
128.1289062	n/a	32801	largeTSmallH	correct	incongruent	1.707	yes	T	H
129.8359375	n/a	33238	responseLargeT	correct	n/a	1.707	yes	n/a	n/a
130.9140625	n/a	33514	largeTSmallT	correct	congruent	1.125	no	T	T
132.0390625	n/a	33802	responseLargeT	correct	n/a	1.125	no	n/a	n/a
133.1132812	n/a	34077	largeTSmallH	correct	incongruent	1.0547	no	T	H
134.1679688	n/a	34347	responseLargeT	correct	n/a	1.0547	no	n/a	n/a
135.234375	n/a	34620	largeHSmallH	correct	congruent	1.4336	no	H	H
136.6679688	n/a	34987	responseLargeH	correct	n/a	1.4336	no	n/a	n/a
137.7265625	n/a	35258	largeTSmallH	correct	incongruent	2.375	yes	T	H
140.1015625	n/a	35866	responseLargeT	correct	n/a	2.375	yes	n/a	n/a
141.1796875	n/a	36142	largeHSmallH	correct	congruent	1.3828	no	H	H
142.5625	n/a	36496	responseLargeH	correct	n/a	1.3828	no	n/a	n/a
143.6328125	n/a	36770	largeHSmallT	correct	incongruent	1.3008	no	H	T
144.9335938	n/a	37103	responseLargeH	correct	n/a	1.3008	no	n/a	n/a
146.0078125	n/a	37378	largeTSmallH	correct	incongruent	2.375	yes	T	H
148.3828125	n/a	37986	responseLargeT	correct	n/a	2.375	yes	n/a	n/a
149.4492188	n/a	38259	largeHSmallH	correct	congruent	1.1953	no	H	H
150.6445312	n/a	38565	responseLargeH	correct	n/a	1.1953	no	n/a	n/a
151.7148438	n/a	38839	largeTSmallH	correct	incongruent	1	no	T	H
152.7148438	n/a	39095	responseLargeT	correct	n/a	1	no	n/a	n/a
153.78125	n/a	39368	largeHSmallT	correct	incongruent	1.2773	no	H	T
155.0585938	n/a	39695	responseLargeH	correct	n/a	1.2773	no	n/a	n/a
156.1289062	n/a	39969	largeHSmallH	correct	congruent	1.0391	no	H	H
157.1679688	n/a	40235	responseLargeH	correct	n/a	1.0391	no	n/a	n/a
158.2460938	n/a	40511	largeTSmallT	correct	congruent	1.125	no	T	T
159.3710938	n/a	40799	responseLargeT	correct	n/a	1.125	no	n/a	n/a
160.4453125	n/a	41074	largeTSmallT	correct	congruent	0.94531	no	T	T
161.390625	n/a	41316	responseLargeT	correct	n/a	0.94531	no	n/a	n/a
162.4609375	n/a	41590	largeHSmallH	correct	congruent	1.2383	no	H	H
163.6992188	n/a	41907	responseLargeH	correct	n/a	1.2383	no	n/a	n/a
164.765625	n/a	42180	largeTSmallT	correct	congruent	1.043	no	T	T
165.8085938	n/a	42447	responseLargeT	correct	n/a	1.043	no	n/a	n/a
166.875	n/a	42720	largeHSmallH	correct	congruent	1.2344	no	H	H
168.109375	n/a	43036	responseLargeH	correct	n/a	1.2344	no	n/a	n/a
169.1796875	n/a	43310	largeHSmallH	correct	congruent	0.9375	no	H	H
170.1171875	n/a	43550	responseLargeH	correct	n/a	0.9375	no	n/a	n/a
171.1953125	n/a	43826	largeHSmallT	correct	incongruent	1.1875	no	H	T
172.3828125	n/a	44130	responseLargeH	correct	n/a	1.1875	no	n/a	n/a
173.4609375	n/a	44406	largeHSmallT	correct	incongruent	1.293	no	H	T
174.7539062	n/a	44737	responseLargeH	correct	n/a	1.293	no	n/a	n/a
175.8320312	n/a	45013	largeHSmallT	correct	incongruent	1.2852	no	H	T
177.1171875	n/a	45342	responseLargeH	correct	n/a	1.2852	no	n/a	n/a
178.1796875	n/a	45614	largeHSmallT	correct	incongruent	0.93359	no	H	T
179.1132812	n/a	45853	responseLargeH	correct	n/a	0.93359	no	n/a	n/a
180.1796875	n/a	46126	largeHSmallH	correct	congruent	1.0781	no	H	H
181.2578125	n/a	46402	responseLargeH	correct	n/a	1.0781	no	n/a	n/a
182.3398438	n/a	46679	largeHSmallT	correct	incongruent	1.2852	no	H	T
183.625	n/a	47008	responseLargeH	correct	n/a	1.2852	no	n/a	n/a
184.6992188	n/a	47283	largeTSmallT	correct	congruent	1.3438	no	T	T
186.0429688	n/a	47627	responseLargeT	correct	n/a	1.3438	no	n/a	n/a
187.1132812	n/a	47901	largeTSmallT	correct	congruent	0.95703	no	T	T
188.0703125	n/a	48146	responseLargeT	correct	n/a	0.95703	no	n/a	n/a
189.140625	n/a	48420	largeTSmallT	correct	congruent	0.80859	no	T	T
189.9492188	n/a	48627	responseLargeT	correct	n/a	0.80859	no	n/a	n/a
191.0195312	n/a	48901	largeHSmallH	correct	congruent	1.2188	no	H	H
192.2382812	n/a	49213	responseLargeH	correct	n/a	1.2188	no	n/a	n/a
193.3125	n/a	49488	largeTSmallH	correct	incongruent	1.1719	no	T	H
194.484375	n/a	49788	responseLargeT	correct	n/a	1.1719	no	n/a	n/a
195.5390625	n/a	50058	largeHSmallH	correct	congruent	1.125	no	H	H
196.6640625	n/a	50346	responseLargeH	correct	n/a	1.125	no	n/a	n/a
197.7265625	n/a	50618	largeTSmallT	correct	congruent	1.0234	no	T	T
198.75	n/a	50880	responseLargeT	correct	n/a	1.0234	no	n/a	n/a
199.8203125	n/a	51154	largeTSmallH	correct	incongruent	1.0586	no	T	H
200.8789062	n/a	51425	responseLargeT	correct	n/a	1.0586	no	n/a	n/a
201.9375	n/a	51696	largeHSmallH	correct	congruent	1.3047	no	H	H
203.2421875	n/a	52030	responseLargeH	correct	n/a	1.3047	no	n/a	n/a
204.3125	n/a	52304	largeHSmallT	correct	incongruent	1.2227	no	H	T
205.5351562	n/a	52617	responseLargeH	correct	n/a	1.2227	no	n/a	n/a
206.6054688	n/a	52891	largeHSmallH	correct	congruent	0.96875	no	H	H
207.5742188	n/a	53139	responseLargeH	correct	n/a	0.96875	no	n/a	n/a
208.6445312	n/a	53413	largeHSmallH	correct	congruent	1.1211	no	H	H
209.765625	n/a	53700	responseLargeH	correct	n/a	1.1211	no	n/a	n/a
210.8320312	n/a	53973	largeHSmallH	correct	congruent	0.64844	no	H	H
211.4804688	n/a	54139	responseLargeH	correct	n/a	0.64844	no	n/a	n/a
212.5507812	n/a	54413	largeHSmallH	correct	congruent	0.46484	no	H	H
213.015625	n/a	54532	responseLargeH	correct	n/a	0.46484	no	n/a	n/a
214.0859375	n/a	54806	largeTSmallT	correct	congruent	0.88281	no	T	T
214.96875	n/a	55032	responseLargeT	correct	n/a	0.88281	no	n/a	n/a
216.046875	n/a	55308	largeHSmallH	correct	congruent	0.64062	no	H	H
216.6875	n/a	55472	responseLargeH	correct	n/a	0.64062	no	n/a	n/a
217.765625	n/a	55748	largeHSmallT	correct	incongruent	0.57422	no	H	T
218.3398438	n/a	55895	responseLargeH	correct	n/a	0.57422	no	n/a	n/a
219.4179688	n/a	56171	largeTSmallT	correct	congruent	0.53906	no	T	T
219.9570312	n/a	56309	responseLargeT	correct	n/a	0.53906	no	n/a	n/a
221.0195312	n/a	56581	largeHSmallH	correct	congruent	0.63672	no	H	H
221.65625	n/a	56744	responseLargeH	correct	n/a	0.63672	no	n/a	n/a
222.7265625	n/a	57018	largeHSmallH	correct	congruent	0.54688	no	H	H
223.2734375	n/a	57158	responseLargeH	correct	n/a	0.54688	no	n/a	n/a
224.3515625	n/a	57434	largeTSmallT	correct	congruent	0.73828	no	T	T
225.0898438	n/a	57623	responseLargeT	correct	n/a	0.73828	no	n/a	n/a
226.1523438	n/a	57895	largeHSmallH	correct	congruent	0.64844	no	H	H
226.8007812	n/a	58061	responseLargeH	correct	n/a	0.64844	no	n/a	n/a
227.8710938	n/a	58335	largeTSmallH	correct	incongruent	0.58984	no	T	H
228.4609375	n/a	58486	responseLargeT	correct	n/a	0.58984	no	n/a	n/a
229.5390625	n/a	58762	largeTSmallT	correct	congruent	0.83984	no	T	T
230.3789062	n/a	58977	responseLargeT	correct	n/a	0.83984	no	n/a	n/a
231.4570312	n/a	59253	largeHSmallT	correct	incongruent	0.84766	no	H	T
232.3046875	n/a	59470	responseLargeH	correct	n/a	0.84766	no	n/a	n/a
233.3789062	n/a	59745	largeHSmallH	correct	congruent	0.80859	no	H	H
234.1875	n/a	59952	responseLargeH	correct	n/a	0.80859	no	n/a	n/a
235.2578125	n/a	60226	largeHSmallH	correct	congruent	0.60938	no	H	H
235.8671875	n/a	60382	responseLargeH	correct	n/a	0.60938	no	n/a	n/a
236.9375	n/a	60656	largeTSmallH	correct	incongruent	0.62109	no	T	H
237.5585938	n/a	60815	responseLargeT	correct	n/a	0.62109	no	n/a	n/a
238.6328125	n/a	61090	largeTSmallH	correct	incongruent	0.75391	no	T	H
239.3867188	n/a	61283	responseLargeT	correct	n/a	0.75391	no	n/a	n/a
240.4570312	n/a	61557	largeHSmallH	correct	congruent	0.55859	no	H	H
241.015625	n/a	61700	responseLargeH	correct	n/a	0.55859	no	n/a	n/a
242.0859375	n/a	61974	largeTSmallT	error	congruent	0.57422	no	T	T
242.6601562	n/a	62121	responseLargeH	error	n/a	0.57422	no	n/a	n/a
243.7382812	n/a	62397	largeHSmallT	correct	incongruent	0.84766	no	H	T
244.5859375	n/a	62614	responseLargeH	correct	n/a	0.84766	no	n/a	n/a
245.6601562	n/a	62889	largeTSmallH	correct	incongruent	0.625	no	T	H
246.2851562	n/a	63049	responseLargeT	correct	n/a	0.625	no	n/a	n/a
247.3515625	n/a	63322	largeHSmallT	correct	incongruent	0.89453	no	H	T
248.2460938	n/a	63551	responseLargeH	correct	n/a	0.89453	no	n/a	n/a
249.3242188	n/a	63827	largeTSmallH	correct	incongruent	0.75391	no	T	H
250.078125	n/a	64020	responseLargeT	correct	n/a	0.75391	no	n/a	n/a
251.1523438	n/a	64295	largeHSmallT	correct	incongruent	0.83594	no	H	T
251.9882812	n/a	64509	responseLargeH	correct	n/a	0.83594	no	n/a	n/a
253.0585938	n/a	64783	largeTSmallH	correct	incongruent	0.69531	no	T	H
253.7539062	n/a	64961	responseLargeT	correct	n/a	0.69531	no	n/a	n/a
254.8320312	n/a	65237	largeTSmallH	error	incongruent	0.55469	no	T	H
255.3867188	n/a	65379	responseLargeH	error	n/a	0.55469	no	n/a	n/a
256.4726562	n/a	65657	largeTSmallH	correct	incongruent	0.72656	no	T	H
257.1992188	n/a	65843	responseLargeT	correct	n/a	0.72656	no	n/a	n/a
258.2695312	n/a	66117	largeTSmallT	correct	congruent	0.66406	no	T	T
258.9335938	n/a	66287	responseLargeT	correct	n/a	0.66406	no	n/a	n/a
260.0039062	n/a	66561	largeHSmallH	correct	congruent	0.75391	no	H	H
260.7578125	n/a	66754	responseLargeH	correct	n/a	0.75391	no	n/a	n/a
261.8320312	n/a	67029	largeTSmallH	correct	incongruent	0.70703	no	T	H
262.5390625	n/a	67210	responseLargeT	correct	n/a	0.70703	no	n/a	n/a
263.6054688	n/a	67483	largeTSmallH	correct	incongruent	0.57422	no	T	H
264.1796875	n/a	67630	responseLargeT	correct	n/a	0.57422	no	n/a	n/a
265.2460938	n/a	67903	largeTSmallT	correct	congruent	0.70312	no	T	T
265.9492188	n/a	68083	responseLargeT	correct	n/a	0.70312	no	n/a	n/a
267.03125	n/a	68360	largeHSmallT	correct	incongruent	0.72266	no	H	T
267.7539062	n/a	68545	responseLargeH	correct	n/a	0.72266	no	n/a	n/a
268.8164062	n/a	68817	largeTSmallH	correct	incongruent	1.1172	no	T	H
269.9335938	n/a	69103	responseLargeT	correct	n/a	1.1172	no	n/a	n/a
271.0039062	n/a	69377	largeHSmallH	correct	congruent	0.55859	no	H	H
271.5625	n/a	69520	responseLargeH	correct	n/a	0.55859	no	n/a	n/a
272.6289062	n/a	69793	largeHSmallH	correct	congruent	0.66406	no	H	H
273.2929688	n/a	69963	responseLargeH	correct	n/a	0.66406	no	n/a	n/a
274.3632812	n/a	70237	largeHSmallH	correct	congruent	0.64062	no	H	H
275.0039062	n/a	70401	responseLargeH	correct	n/a	0.64062	no	n/a	n/a
276.0703125	n/a	70674	largeHSmallT	correct	incongruent	0.85938	no	H	T
276.9296875	n/a	70894	responseLargeH	correct	n/a	0.85938	no	n/a	n/a
278.0039062	n/a	71169	largeTSmallT	correct	congruent	0.72266	no	T	T
278.7265625	n/a	71354	responseLargeT	correct	n/a	0.72266	no	n/a	n/a
279.8046875	n/a	71630	largeTSmallT	correct	congruent	0.56641	no	T	T
280.3710938	n/a	71775	responseLargeT	correct	n/a	0.56641	no	n/a	n/a
281.4453125	n/a	72050	largeTSmallT	correct	congruent	0.63281	no	T	T
282.078125	n/a	72212	responseLargeT	correct	n/a	0.63281	no	n/a	n/a
283.1640625	n/a	72490	largeHSmallT	correct	incongruent	0.87891	no	H	T
284.0429688	n/a	72715	responseLargeH	correct	n/a	0.87891	no	n/a	n/a
285.109375	n/a	72988	largeHSmallH	correct	congruent	0.60938	no	H	H
285.71875	n/a	73144	responseLargeH	correct	n/a	0.60938	no	n/a	n/a
286.7890625	n/a	73418	largeTSmallH	correct	incongruent	0.61719	no	T	H
287.40625	n/a	73576	responseLargeT	correct	n/a	0.61719	no	n/a	n/a
288.46875	n/a	73848	largeHSmallH	correct	congruent	0.62109	no	H	H
289.0898438	n/a	74007	responseLargeH	correct	n/a	0.62109	no	n/a	n/a
290.1640625	n/a	74282	largeTSmallH	correct	incongruent	0.65234	no	T	H
290.8164062	n/a	74449	responseLargeT	correct	n/a	0.65234	no	n/a	n/a
291.8984375	n/a	74726	largeTSmallH	correct	incongruent	0.80078	no	T	H
292.6992188	n/a	74931	responseLargeT	correct	n/a	0.80078	no	n/a	n/a
293.7617188	n/a	75203	largeTSmallH	correct	incongruent	0.70703	no	T	H
294.46875	n/a	75384	responseLargeT	correct	n/a	0.70703	no	n/a	n/a
295.5351562	n/a	75657	largeTSmallH	correct	incongruent	0.51953	no	T	H
296.0546875	n/a	75790	responseLargeT	correct	n/a	0.51953	no	n/a	n/a
297.125	n/a	76064	largeHSmallT	correct	incongruent	0.625	no	H	T
297.75	n/a	76224	responseLargeH	correct	n/a	0.625	no	n/a	n/a
298.8164062	n/a	76497	largeTSmallH	correct	incongruent	0.61328	no	T	H
299.4296875	n/a	76654	responseLargeT	correct	n/a	0.61328	no	n/a	n/a
300.5117188	n/a	76931	largeTSmallH	correct	incongruent	0.60156	no	T	H
301.1132812	n/a	77085	responseLargeT	correct	n/a	0.60156	no	n/a	n/a
302.1914062	n/a	77361	largeHSmallH	correct	congruent	0.73828	no	H	H
302.9296875	n/a	77550	responseLargeH	correct	n/a	0.73828	no	n/a	n/a
304.0039062	n/a	77825	largeHSmallH	correct	congruent	0.61328	no	H	H
304.6171875	n/a	77982	responseLargeH	correct	n/a	0.61328	no	n/a	n/a
305.6835938	n/a	78255	largeHSmallH	correct	congruent	0.58203	no	H	H
306.265625	n/a	78404	responseLargeH	correct	n/a	0.58203	no	n/a	n/a
307.3359375	n/a	78678	largeTSmallH	correct	incongruent	0.73047	no	T	H
308.0664062	n/a	78865	responseLargeT	correct	n/a	0.73047	no	n/a	n/a
309.1367188	n/a	79139	largeTSmallT	error	congruent	0.57422	no	T	T
309.7109375	n/a	79286	responseLargeH	error	n/a	0.57422	no	n/a	n/a
310.7890625	n/a	79562	largeHSmallH	correct	congruent	1.0391	no	H	H
311.828125	n/a	79828	responseLargeH	correct	n/a	1.0391	no	n/a	n/a
312.9101562	n/a	80105	largeTSmallH	correct	incongruent	1.1016	no	T	H
314.0117188	n/a	80387	responseLargeT	correct	n/a	1.1016	no	n/a	n/a
315.0976562	n/a	80665	largeTSmallH	correct	incongruent	0.76562	no	T	H
315.8632812	n/a	80861	responseLargeT	correct	n/a	0.76562	no	n/a	n/a
316.9375	n/a	81136	largeHSmallH	correct	congruent	0.70312	no	H	H
317.640625	n/a	81316	responseLargeH	correct	n/a	0.70312	no	n/a	n/a
318.7109375	n/a	81590	largeTSmallT	correct	congruent	0.75	no	T	T
319.4609375	n/a	81782	responseLargeT	correct	n/a	0.75	no	n/a	n/a
320.5351562	n/a	82057	largeHSmallH	correct	congruent	0.67969	no	H	H
321.2148438	n/a	82231	responseLargeH	correct	n/a	0.67969	no	n/a	n/a
322.28125	n/a	82504	largeTSmallT	correct	congruent	1.1875	no	T	T
323.46875	n/a	82808	responseLargeT	correct	n/a	1.1875	no	n/a	n/a
324.5351562	n/a	83081	largeTSmallT	correct	congruent	1.8242	yes	T	T
326.359375	n/a	83548	responseLargeT	correct	n/a	1.8242	yes	n/a	n/a
327.4296875	n/a	83822	largeTSmallH	correct	incongruent	0.96094	no	T	H
328.390625	n/a	84068	responseLargeT	correct	n/a	0.96094	no	n/a	n/a
329.4570312	n/a	84341	largeHSmallT	correct	incongruent	1.1875	no	H	T
330.6445312	n/a	84645	responseLargeH	correct	n/a	1.1875	no	n/a	n/a
331.7226562	n/a	84921	largeHSmallH	correct	congruent	0.69531	no	H	H
332.4179688	n/a	85099	responseLargeH	correct	n/a	0.69531	no	n/a	n/a
333.484375	n/a	85372	largeHSmallT	correct	incongruent	0.91406	no	H	T
334.3984375	n/a	85606	responseLargeH	correct	n/a	0.91406	no	n/a	n/a
335.46875	n/a	85880	largeTSmallT	correct	congruent	0.60547	no	T	T
336.0742188	n/a	86035	responseLargeT	correct	n/a	0.60547	no	n/a	n/a
337.1484375	n/a	86310	largeHSmallT	correct	incongruent	0.74219	no	H	T
337.890625	n/a	86500	responseLargeH	correct	n/a	0.74219	no	n/a	n/a
338.9609375	n/a	86774	largeTSmallH	correct	incongruent	0.77344	no	T	H
339.734375	n/a	86972	responseLargeT	correct	n/a	0.77344	no	n/a	n/a
340.8007812	n/a	87245	largeTSmallT	correct	congruent	0.75	no	T	T
341.5507812	n/a	87437	responseLargeT	correct	n/a	0.75	no	n/a	n/a
342.6289062	n/a	87713	largeTSmallT	correct	congruent	0.58984	no	T	T
343.21875	n/a	87864	responseLargeT	correct	n/a	0.58984	no	n/a	n/a
344.296875	n/a	88140	largeTSmallT	correct	congruent	0.69141	no	T	T
344.9882812	n/a	88317	responseLargeT	correct	n/a	0.69141	no	n/a	n/a
346.0546875	n/a	88590	largeHSmallT	correct	incongruent	0.80469	no	H	T
346.859375	n/a	88796	responseLargeH	correct	n/a	0.80469	no	n/a	n/a
347.921875	n/a	89068	largeHSmallH	correct	congruent	0.5625	no	H	H
348.484375	n/a	89212	responseLargeH	correct	n/a	0.5625	no	n/a	n/a
349.5507812	n/a	89485	largeTSmallH	correct	incongruent	0.67188	no	T	H
350.2226562	n/a	89657	responseLargeT	correct	n/a	0.67188	no	n/a	n/a
351.296875	n/a	89932	largeHSmallT	correct	incongruent	0.73438	no	H	T
352.03125	n/a	90120	responseLargeH	correct	n/a	0.73438	no	n/a	n/a
353.109375	n/a	90396	largeTSmallT	correct	congruent	0.94141	no	T	T
354.0507812	n/a	90637	responseLargeT	correct	n/a	0.94141	no	n/a	n/a
355.1210938	n/a	90911	largeHSmallT	correct	incongruent	0.72266	no	H	T
355.84375	n/a	91096	responseLargeH	correct	n/a	0.72266	no	n/a	n/a
356.9101562	n/a	91369	largeTSmallT	correct	congruent	0.64844	no	T	T
357.5585938	n/a	91535	responseLargeT	correct	n/a	0.64844	no	n/a	n/a
358.6289062	n/a	91809	largeHSmallH	correct	congruent	0.55859	no	H	H
359.1875	n/a	91952	responseLargeH	correct	n/a	0.55859	no	n/a	n/a
360.2539062	n/a	92225	largeHSmallT	correct	incongruent	0.67969	no	H	T
360.9335938	n/a	92399	responseLargeH	correct	n/a	0.67969	no	n/a	n/a
362	n/a	92672	largeHSmallT	correct	incongruent	0.60547	no	H	T
362.6054688	n/a	92827	responseLargeH	correct	n/a	0.60547	no	n/a	n/a
363.6835938	n/a	93103	largeTSmallT	correct	congruent	0.54688	no	T	T
364.2304688	n/a	93243	responseLargeT	correct	n/a	0.54688	no	n/a	n/a
365.3085938	n/a	93519	largeTSmallT	correct	congruent	0.76953	no	T	T
366.078125	n/a	93716	responseLargeT	correct	n/a	0.76953	no	n/a	n/a
367.1484375	n/a	93990	largeTSmallH	correct	incongruent	0.66406	no	T	H
367.8125	n/a	94160	responseLargeT	correct	n/a	0.66406	no	n/a	n/a
368.8828125	n/a	94434	largeTSmallH	correct	incongruent	0.57031	no	T	H
369.453125	n/a	94580	responseLargeT	correct	n/a	0.57031	no	n/a	n/a
370.5234375	n/a	94854	largeTSmallT	correct	congruent	0.82031	no	T	T
371.34375	n/a	95064	responseLargeT	correct	n/a	0.82031	no	n/a	n/a
372.4140625	n/a	95338	largeHSmallT	correct	incongruent	0.74609	no	H	T
373.1601562	n/a	95529	responseLargeH	correct	n/a	0.74609	no	n/a	n/a
374.2265625	n/a	95802	largeTSmallH	correct	incongruent	0.85547	no	T	H
375.0820312	n/a	96021	responseLargeT	correct	n/a	0.85547	no	n/a	n/a
376.1484375	n/a	96294	largeTSmallT	correct	congruent	0.60547	no	T	T
376.7539062	n/a	96449	responseLargeT	correct	n/a	0.60547	no	n/a	n/a
377.8164062	n/a	96721	largeHSmallH	correct	congruent	0.46484	no	H	H
378.28125	n/a	96840	responseLargeH	correct	n/a	0.46484	no	n/a	n/a
379.3476562	n/a	97113	largeTSmallH	correct	incongruent	0.66797	no	T	H
380.015625	n/a	97284	responseLargeT	correct	n/a	0.66797	no	n/a	n/a
381.09375	n/a	97560	largeHSmallH	correct	congruent	0.53125	no	H	H
381.625	n/a	97696	responseLargeH	correct	n/a	0.53125	no	n/a	n/a
382.6953125	n/a	97970	largeHSmallH	correct	congruent	0.49609	no	H	H
383.1914062	n/a	98097	responseLargeH	correct	n/a	0.49609	no	n/a	n/a
384.2695312	n/a	98373	largeTSmallH	correct	incongruent	0.63672	no	T	H
384.90625	n/a	98536	responseLargeT	correct	n/a	0.63672	no	n/a	n/a
385.9726562	n/a	98809	largeHSmallT	correct	incongruent	0.62109	no	H	T
386.59375	n/a	98968	responseLargeH	correct	n/a	0.62109	no	n/a	n/a
387.6679688	n/a	99243	largeHSmallH	correct	congruent	0.58203	no	H	H
388.25	n/a	99392	responseLargeH	correct	n/a	0.58203	no	n/a	n/a
389.3203125	n/a	99666	largeHSmallT	correct	incongruent	0.59766	no	H	T
389.9179688	n/a	99819	responseLargeH	correct	n/a	0.59766	no	n/a	n/a
390.9882812	n/a	100093	largeHSmallT	correct	incongruent	0.54297	no	H	T
391.53125	n/a	100232	responseLargeH	correct	n/a	0.54297	no	n/a	n/a
392.6015625	n/a	100506	largeHSmallT	correct	incongruent	0.48438	no	H	T
393.0859375	n/a	100630	responseLargeH	correct	n/a	0.48438	no	n/a	n/a
394.1484375	n/a	100902	largeTSmallT	correct	congruent	0.57031	no	T	T
394.71875	n/a	101048	responseLargeT	correct	n/a	0.57031	no	n/a	n/a
395.7890625	n/a	101322	largeTSmallH	correct	incongruent	0.61328	no	T	H
396.4023438	n/a	101479	responseLargeT	correct	n/a	0.61328	no	n/a	n/a
397.4804688	n/a	101755	largeTSmallT	correct	congruent	0.58203	no	T	T
398.0625	n/a	101904	responseLargeT	correct	n/a	0.58203	no	n/a	n/a
399.1328125	n/a	102178	largeHSmallT	correct	incongruent	0.5625	no	H	T
399.6953125	n/a	102322	responseLargeH	correct	n/a	0.5625	no	n/a	n/a
400.7617188	n/a	102595	largeHSmallT	correct	incongruent	0.70703	no	H	T
401.46875	n/a	102776	responseLargeH	correct	n/a	0.70703	no	n/a	n/a
402.546875	n/a	103052	largeTSmallT	correct	congruent	0.54688	no	T	T
403.09375	n/a	103192	responseLargeT	correct	n/a	0.54688	no	n/a	n/a
404.1601562	n/a	103465	largeTSmallT	correct	congruent	1.0078	no	T	T
405.1679688	n/a	103723	responseLargeT	correct	n/a	1.0078	no	n/a	n/a
406.2421875	n/a	103998	largeHSmallH	correct	congruent	0.62109	no	H	H
406.8632812	n/a	104157	responseLargeH	correct	n/a	0.62109	no	n/a	n/a
407.9335938	n/a	104431	largeTSmallH	correct	incongruent	0.57422	no	T	H
408.5078125	n/a	104578	responseLargeT	correct	n/a	0.57422	no	n/a	n/a
409.5742188	n/a	104851	largeHSmallH	correct	congruent	0.52734	no	H	H
410.1015625	n/a	104986	responseLargeH	correct	n/a	0.52734	no	n/a	n/a
411.1757812	n/a	105261	largeHSmallT	correct	incongruent	0.60547	no	H	T
411.78125	n/a	105416	responseLargeH	correct	n/a	0.60547	no	n/a	n/a
412.8554688	n/a	105691	largeTSmallT	correct	congruent	0.58984	no	T	T
413.4453125	n/a	105842	responseLargeT	correct	n/a	0.58984	no	n/a	n/a
414.5078125	n/a	106114	largeTSmallT	correct	congruent	0.52734	no	T	T
415.0351562	n/a	106249	responseLargeT	correct	n/a	0.52734	no	n/a	n/a
416.09375	n/a	106520	largeTSmallH	correct	incongruent	0.92188	no	T	H
417.015625	n/a	106756	responseLargeT	correct	n/a	0.92188	no	n/a	n/a
418.0820312	n/a	107029	largeHSmallT	correct	incongruent	0.6875	no	H	T
418.7695312	n/a	107205	responseLargeH	correct	n/a	0.6875	no	n/a	n/a
419.8398438	n/a	107479	largeTSmallH	correct	incongruent	0.83203	no	T	H
420.671875	n/a	107692	responseLargeT	correct	n/a	0.83203	no	n/a	n/a
421.7460938	n/a	107967	largeHSmallH	correct	congruent	0.53906	no	H	H
422.2851562	n/a	108105	responseLargeH	correct	n/a	0.53906	no	n/a	n/a
423.3476562	n/a	108377	largeTSmallT	correct	congruent	0.57812	no	T	T
423.9257812	n/a	108525	responseLargeT	correct	n/a	0.57812	no	n/a	n/a
424.9882812	n/a	108797	largeHSmallT	correct	incongruent	0.64453	no	H	T
425.6328125	n/a	108962	responseLargeH	correct	n/a	0.64453	no	n/a	n/a
426.7070312	n/a	109237	largeHSmallT	correct	incongruent	0.60156	no	H	T
427.3085938	n/a	109391	responseLargeH	correct	n/a	0.60156	no	n/a	n/a
428.375	n/a	109664	largeTSmallH	correct	incongruent	0.53516	no	T	H
428.9101562	n/a	109801	responseLargeT	correct	n/a	0.53516	no	n/a	n/a
429.9882812	n/a	110077	largeHSmallT	correct	incongruent	0.65234	no	H	T
430.640625	n/a	110244	responseLargeH	correct	n/a	0.65234	no	n/a	n/a
431.71875	n/a	110520	largeTSmallT	correct	congruent	0.58594	no	T	T
432.3046875	n/a	110670	responseLargeT	correct	n/a	0.58594	no	n/a	n/a
433.375	n/a	110944	largeHSmallT	correct	incongruent	0.53125	no	H	T
433.90625	n/a	111080	responseLargeH	correct	n/a	0.53125	no	n/a	n/a
434.9726562	n/a	111353	largeHSmallT	correct	incongruent	0.55859	no	H	T
435.53125	n/a	111496	responseLargeH	correct	n/a	0.55859	no	n/a	n/a
436.6015625	n/a	111770	largeHSmallT	correct	incongruent	0.53125	no	H	T
437.1328125	n/a	111906	responseLargeH	correct	n/a	0.53125	no	n/a	n/a
438.2148438	n/a	112183	largeHSmallT	correct	incongruent	0.625	no	H	T
438.8398438	n/a	112343	responseLargeH	correct	n/a	0.625	no	n/a	n/a
439.90625	n/a	112616	largeTSmallH	correct	incongruent	0.73047	no	T	H
440.6367188	n/a	112803	responseLargeT	correct	n/a	0.73047	no	n/a	n/a
441.7070312	n/a	113077	largeTSmallT	correct	congruent	0.71484	no	T	T
442.421875	n/a	113260	responseLargeT	correct	n/a	0.71484	no	n/a	n/a
443.4921875	n/a	113534	largeHSmallT	correct	incongruent	0.59375	no	H	T
444.0859375	n/a	113686	responseLargeH	correct	n/a	0.59375	no	n/a	n/a
445.1601562	n/a	113961	largeHSmallT	correct	incongruent	0.51172	no	H	T
445.671875	n/a	114092	responseLargeH	correct	n/a	0.51172	no	n/a	n/a
455.1875	n/a	116528	largeHSmallH	correct	congruent	1.5391	yes	H	H
456.7265625	n/a	116922	responseSmallH	correct	n/a	1.5391	yes	n/a	n/a
457.8007812	n/a	117197	largeTSmallH	correct	incongruent	1.1016	no	T	H
458.9023438	n/a	117479	responseSmallH	correct	n/a	1.1016	no	n/a	n/a
459.9726562	n/a	117753	largeTSmallT	correct	congruent	0.84375	no	T	T
460.8164062	n/a	117969	responseSmallT	correct	n/a	0.84375	no	n/a	n/a
461.8945312	n/a	118245	largeTSmallH	correct	incongruent	1	no	T	H
462.8945312	n/a	118501	responseSmallH	correct	n/a	1	no	n/a	n/a
463.9609375	n/a	118774	largeTSmallH	correct	incongruent	0.84766	no	T	H
464.8085938	n/a	118991	responseSmallH	correct	n/a	0.84766	no	n/a	n/a
465.8789062	n/a	119265	largeHSmallT	correct	incongruent	0.73047	no	H	T
466.609375	n/a	119452	responseSmallT	correct	n/a	0.73047	no	n/a	n/a
467.6796875	n/a	119726	largeTSmallH	correct	incongruent	0.69141	no	T	H
468.3710938	n/a	119903	responseSmallH	correct	n/a	0.69141	no	n/a	n/a
469.4375	n/a	120176	largeHSmallH	correct	congruent	0.63672	no	H	H
470.0742188	n/a	120339	responseSmallH	correct	n/a	0.63672	no	n/a	n/a
471.1328125	n/a	120610	largeHSmallT	correct	incongruent	0.625	no	H	T
471.7578125	n/a	120770	responseSmallT	correct	n/a	0.625	no	n/a	n/a
472.8242188	n/a	121043	largeTSmallH	correct	incongruent	0.64453	no	T	H
473.46875	n/a	121208	responseSmallH	correct	n/a	0.64453	no	n/a	n/a
474.53125	n/a	121480	largeTSmallH	correct	incongruent	0.60547	no	T	H
475.1367188	n/a	121635	responseSmallH	correct	n/a	0.60547	no	n/a	n/a
476.2109375	n/a	121910	largeTSmallT	correct	congruent	0.64844	no	T	T
476.859375	n/a	122076	responseSmallT	correct	n/a	0.64844	no	n/a	n/a
477.9179688	n/a	122347	largeHSmallT	correct	incongruent	0.73828	no	H	T
478.65625	n/a	122536	responseSmallT	correct	n/a	0.73828	no	n/a	n/a
479.7304688	n/a	122811	largeHSmallH	correct	congruent	0.68359	no	H	H
480.4140625	n/a	122986	responseSmallH	correct	n/a	0.68359	no	n/a	n/a
481.4804688	n/a	123259	largeHSmallH	correct	congruent	0.62109	no	H	H
482.1015625	n/a	123418	responseSmallH	correct	n/a	0.62109	no	n/a	n/a
483.1601562	n/a	123689	largeTSmallH	correct	incongruent	0.69531	no	T	H
483.8554688	n/a	123867	responseSmallH	correct	n/a	0.69531	no	n/a	n/a
484.9335938	n/a	124143	largeTSmallT	correct	congruent	0.60938	no	T	T
485.5429688	n/a	124299	responseSmallT	correct	n/a	0.60938	no	n/a	n/a
486.6132812	n/a	124573	largeTSmallH	correct	incongruent	1.0625	no	T	H
487.6757812	n/a	124845	responseSmallH	correct	n/a	1.0625	no	n/a	n/a
488.7460938	n/a	125119	largeTSmallT	correct	congruent	0.57422	no	T	T
489.3203125	n/a	125266	responseSmallT	correct	n/a	0.57422	no	n/a	n/a
490.3867188	n/a	125539	largeTSmallH	correct	incongruent	0.67188	no	T	H
491.0585938	n/a	125711	responseSmallH	correct	n/a	0.67188	no	n/a	n/a
492.1328125	n/a	125986	largeHSmallT	correct	incongruent	0.78906	no	H	T
492.921875	n/a	126188	responseSmallT	correct	n/a	0.78906	no	n/a	n/a
493.984375	n/a	126460	largeHSmallH	correct	congruent	0.61328	no	H	H
494.5976562	n/a	126617	responseSmallH	correct	n/a	0.61328	no	n/a	n/a
495.6796875	n/a	126894	largeTSmallT	correct	congruent	0.55078	no	T	T
496.2304688	n/a	127035	responseSmallT	correct	n/a	0.55078	no	n/a	n/a
497.3046875	n/a	127310	largeHSmallH	correct	congruent	0.55469	no	H	H
497.859375	n/a	127452	responseSmallH	correct	n/a	0.55469	no	n/a	n/a
498.9335938	n/a	127727	largeHSmallH	correct	congruent	0.58984	no	H	H
499.5234375	n/a	127878	responseSmallH	correct	n/a	0.58984	no	n/a	n/a
500.5859375	n/a	128150	largeTSmallT	correct	congruent	0.52344	no	T	T
501.109375	n/a	128284	responseSmallT	correct	n/a	0.52344	no	n/a	n/a
502.1835938	n/a	128559	largeTSmallH	correct	incongruent	0.64062	no	T	H
502.8242188	n/a	128723	responseSmallH	correct	n/a	0.64062	no	n/a	n/a
503.890625	n/a	128996	largeHSmallT	correct	incongruent	0.80078	no	H	T
504.6914062	n/a	129201	responseSmallT	correct	n/a	0.80078	no	n/a	n/a
505.7578125	n/a	129474	largeTSmallT	correct	congruent	0.71875	no	T	T
506.4765625	n/a	129658	responseSmallT	correct	n/a	0.71875	no	n/a	n/a
507.5429688	n/a	129931	largeTSmallH	correct	incongruent	0.61719	no	T	H
508.1601562	n/a	130089	responseSmallH	correct	n/a	0.61719	no	n/a	n/a
509.2382812	n/a	130365	largeTSmallH	correct	incongruent	0.57031	no	T	H
509.8085938	n/a	130511	responseSmallH	correct	n/a	0.57031	no	n/a	n/a
510.890625	n/a	130788	largeHSmallT	correct	incongruent	0.62109	no	H	T
511.5117188	n/a	130947	responseSmallT	correct	n/a	0.62109	no	n/a	n/a
512.5859375	n/a	131222	largeTSmallT	correct	congruent	0.61719	no	T	T
513.203125	n/a	131380	responseSmallT	correct	n/a	0.61719	no	n/a	n/a
514.2773438	n/a	131655	largeHSmallT	correct	incongruent	0.60547	no	H	T
514.8828125	n/a	131810	responseSmallT	correct	n/a	0.60547	no	n/a	n/a
515.9570312	n/a	132085	largeTSmallT	correct	congruent	0.47656	no	T	T
516.4335938	n/a	132207	responseSmallT	correct	n/a	0.47656	no	n/a	n/a
517.5039062	n/a	132481	largeHSmallT	correct	incongruent	0.60156	no	H	T
518.1054688	n/a	132635	responseSmallT	correct	n/a	0.60156	no	n/a	n/a
519.171875	n/a	132908	largeHSmallT	correct	incongruent	0.53906	no	H	T
519.7109375	n/a	133046	responseSmallT	correct	n/a	0.53906	no	n/a	n/a
520.7851562	n/a	133321	largeHSmallT	correct	incongruent	0.59375	no	H	T
521.3789062	n/a	133473	responseSmallT	correct	n/a	0.59375	no	n/a	n/a
522.4492188	n/a	133747	largeHSmallH	correct	congruent	0.67578	no	H	H
523.125	n/a	133920	responseSmallH	correct	n/a	0.67578	no	n/a	n/a
524.1992188	n/a	134195	largeHSmallH	correct	congruent	0.60938	no	H	H
524.8085938	n/a	134351	responseSmallH	correct	n/a	0.60938	no	n/a	n/a
525.8789062	n/a	134625	largeHSmallH	correct	congruent	0.51953	no	H	H
526.3984375	n/a	134758	responseSmallH	correct	n/a	0.51953	no	n/a	n/a
527.4648438	n/a	135031	largeTSmallH	correct	incongruent	0.57422	no	T	H
528.0390625	n/a	135178	responseSmallH	correct	n/a	0.57422	no	n/a	n/a
529.1054688	n/a	135451	largeHSmallT	correct	incongruent	0.56641	no	H	T
529.671875	n/a	135596	responseSmallT	correct	n/a	0.56641	no	n/a	n/a
530.7460938	n/a	135871	largeHSmallT	correct	incongruent	0.64453	no	H	T
531.390625	n/a	136036	responseSmallT	correct	n/a	0.64453	no	n/a	n/a
532.4648438	n/a	136311	largeHSmallH	correct	congruent	0.60547	no	H	H
533.0703125	n/a	136466	responseSmallH	correct	n/a	0.60547	no	n/a	n/a
534.1445312	n/a	136741	largeHSmallH	correct	congruent	0.58594	no	H	H
534.7304688	n/a	136891	responseSmallH	correct	n/a	0.58594	no	n/a	n/a
535.796875	n/a	137164	largeTSmallT	correct	congruent	0.55469	no	T	T
536.3515625	n/a	137306	responseSmallT	correct	n/a	0.55469	no	n/a	n/a
537.4257812	n/a	137581	largeHSmallH	correct	congruent	0.6875	no	H	H
538.1132812	n/a	137757	responseSmallH	correct	n/a	0.6875	no	n/a	n/a
539.1835938	n/a	138031	largeTSmallH	correct	incongruent	0.59766	no	T	H
539.78125	n/a	138184	responseSmallH	correct	n/a	0.59766	no	n/a	n/a
540.8515625	n/a	138458	largeHSmallH	correct	congruent	0.58203	no	H	H
541.4335938	n/a	138607	responseSmallH	correct	n/a	0.58203	no	n/a	n/a
542.5039062	n/a	138881	largeTSmallH	correct	incongruent	0.75	no	T	H
543.2539062	n/a	139073	responseSmallH	correct	n/a	0.75	no	n/a	n/a
544.3164062	n/a	139345	largeTSmallT	correct	congruent	0.64844	no	T	T
544.9648438	n/a	139511	responseSmallT	correct	n/a	0.64844	no	n/a	n/a
546.0351562	n/a	139785	largeTSmallT	correct	congruent	0.60938	no	T	T
546.6445312	n/a	139941	responseSmallT	correct	n/a	0.60938	no	n/a	n/a
547.71875	n/a	140216	largeHSmallT	correct	incongruent	0.60547	no	H	T
548.3242188	n/a	140371	responseSmallT	correct	n/a	0.60547	no	n/a	n/a
549.3984375	n/a	140646	largeHSmallT	correct	incongruent	0.50781	no	H	T
549.90625	n/a	140776	responseSmallT	correct	n/a	0.50781	no	n/a	n/a
550.984375	n/a	141052	largeHSmallT	correct	incongruent	0.55859	no	H	T
551.5429688	n/a	141195	responseSmallT	correct	n/a	0.55859	no	n/a	n/a
552.609375	n/a	141468	largeHSmallH	correct	congruent	0.63281	no	H	H
553.2421875	n/a	141630	responseSmallH	correct	n/a	0.63281	no	n/a	n/a
554.3164062	n/a	141905	largeHSmallH	correct	congruent	0.45703	no	H	H
554.7734375	n/a	142022	responseSmallH	correct	n/a	0.45703	no	n/a	n/a
555.8515625	n/a	142298	largeHSmallH	correct	congruent	0.51953	no	H	H
556.3710938	n/a	142431	responseSmallH	correct	n/a	0.51953	no	n/a	n/a
557.4375	n/a	142704	largeTSmallH	correct	incongruent	0.63281	no	T	H
558.0703125	n/a	142866	responseSmallH	correct	n/a	0.63281	no	n/a	n/a
559.1445312	n/a	143141	largeTSmallT	correct	congruent	0.63281	no	T	T
559.7773438	n/a	143303	responseSmallT	correct	n/a	0.63281	no	n/a	n/a
560.8515625	n/a	143578	largeTSmallH	correct	incongruent	0.72656	no	T	H
561.578125	n/a	143764	responseSmallH	correct	n/a	0.72656	no	n/a	n/a
562.6484375	n/a	144038	largeTSmallT	correct	congruent	0.78906	no	T	T
563.4375	n/a	144240	responseSmallT	correct	n/a	0.78906	no	n/a	n/a
564.5039062	n/a	144513	largeHSmallT	correct	incongruent	0.625	no	H	T
565.1289062	n/a	144673	responseSmallT	correct	n/a	0.625	no	n/a	n/a
566.1953125	n/a	144946	largeHSmallT	correct	incongruent	0.63672	no	H	T
566.8320312	n/a	145109	responseSmallT	correct	n/a	0.63672	no	n/a	n/a
567.9023438	n/a	145383	largeHSmallT	correct	incongruent	0.61719	no	H	T
568.5195312	n/a	145541	responseSmallT	correct	n/a	0.61719	no	n/a	n/a
569.5820312	n/a	145813	largeTSmallH	correct	incongruent	0.61328	no	T	H
570.1953125	n/a	145970	responseSmallH	correct	n/a	0.61328	no	n/a	n/a
571.2773438	n/a	146247	largeTSmallH	correct	incongruent	0.68359	no	T	H
571.9609375	n/a	146422	responseSmallH	correct	n/a	0.68359	no	n/a	n/a
573.0351562	n/a	146697	largeTSmallH	correct	incongruent	0.625	no	T	H
573.6601562	n/a	146857	responseSmallH	correct	n/a	0.625	no	n/a	n/a
574.7421875	n/a	147134	largeTSmallH	correct	incongruent	0.74219	no	T	H
575.484375	n/a	147324	responseSmallH	correct	n/a	0.74219	no	n/a	n/a
576.5429688	n/a	147595	largeTSmallH	correct	incongruent	0.59375	no	T	H
577.1367188	n/a	147747	responseSmallH	correct	n/a	0.59375	no	n/a	n/a
578.1953125	n/a	148018	largeHSmallT	correct	incongruent	0.91016	no	H	T
579.1054688	n/a	148251	responseSmallT	correct	n/a	0.91016	no	n/a	n/a
580.1835938	n/a	148527	largeHSmallT	correct	incongruent	0.61328	no	H	T
580.796875	n/a	148684	responseSmallT	correct	n/a	0.61328	no	n/a	n/a
581.8632812	n/a	148957	largeHSmallT	correct	incongruent	0.58984	no	H	T
582.453125	n/a	149108	responseSmallT	correct	n/a	0.58984	no	n/a	n/a
583.515625	n/a	149380	largeTSmallH	correct	incongruent	0.73438	no	T	H
584.25	n/a	149568	responseSmallH	correct	n/a	0.73438	no	n/a	n/a
585.3164062	n/a	149841	largeHSmallH	correct	congruent	0.55469	no	H	H
585.8710938	n/a	149983	responseSmallH	correct	n/a	0.55469	no	n/a	n/a
586.9296875	n/a	150254	largeHSmallH	correct	congruent	0.60938	no	H	H
587.5390625	n/a	150410	responseSmallH	correct	n/a	0.60938	no	n/a	n/a
588.609375	n/a	150684	largeHSmallT	correct	incongruent	0.60156	no	H	T
589.2109375	n/a	150838	responseSmallT	correct	n/a	0.60156	no	n/a	n/a
590.2773438	n/a	151111	largeHSmallT	correct	incongruent	0.73047	no	H	T
591.0078125	n/a	151298	responseSmallT	correct	n/a	0.73047	no	n/a	n/a
592.0898438	n/a	151575	largeTSmallH	correct	incongruent	0.51953	no	T	H
592.609375	n/a	151708	responseSmallH	correct	n/a	0.51953	no	n/a	n/a
593.6757812	n/a	151981	largeTSmallH	correct	incongruent	0.53125	no	T	H
594.2070312	n/a	152117	responseSmallH	correct	n/a	0.53125	no	n/a	n/a
595.2773438	n/a	152391	largeHSmallT	correct	incongruent	0.49609	no	H	T
595.7734375	n/a	152518	responseSmallT	correct	n/a	0.49609	no	n/a	n/a
596.8476562	n/a	152793	largeTSmallH	correct	incongruent	0.55078	no	T	H
597.3984375	n/a	152934	responseSmallH	correct	n/a	0.55078	no	n/a	n/a
598.4609375	n/a	153206	largeTSmallT	correct	congruent	0.60938	no	T	T
599.0703125	n/a	153362	responseSmallT	correct	n/a	0.60938	no	n/a	n/a
600.15625	n/a	153640	largeHSmallT	correct	incongruent	0.63672	no	H	T
600.7929688	n/a	153803	responseSmallT	correct	n/a	0.63672	no	n/a	n/a
601.8632812	n/a	154077	largeHSmallT	correct	incongruent	0.50781	no	H	T
602.3710938	n/a	154207	responseSmallT	correct	n/a	0.50781	no	n/a	n/a
603.4492188	n/a	154483	largeHSmallT	correct	incongruent	0.60938	no	H	T
604.0585938	n/a	154639	responseSmallT	correct	n/a	0.60938	no	n/a	n/a
605.1289062	n/a	154913	largeTSmallT	correct	congruent	0.62891	no	T	T
605.7578125	n/a	155074	responseSmallT	correct	n/a	0.62891	no	n/a	n/a
606.8203125	n/a	155346	largeTSmallH	correct	incongruent	0.55469	no	T	H
607.375	n/a	155488	responseSmallH	correct	n/a	0.55469	no	n/a	n/a
608.4492188	n/a	155763	largeTSmallT	correct	congruent	0.60547	no	T	T
609.0546875	n/a	155918	responseSmallT	correct	n/a	0.60547	no	n/a	n/a
610.1171875	n/a	156190	largeTSmallT	correct	congruent	0.81641	no	T	T
610.9335938	n/a	156399	responseSmallT	correct	n/a	0.81641	no	n/a	n/a
612.0078125	n/a	156674	largeHSmallH	correct	congruent	0.53906	no	H	H
612.546875	n/a	156812	responseSmallH	correct	n/a	0.53906	no	n/a	n/a
613.609375	n/a	157084	largeTSmallH	correct	incongruent	1.5195	yes	T	H
615.1289062	n/a	157473	responseSmallH	correct	n/a	1.5195	yes	n/a	n/a
616.2070312	n/a	157749	largeTSmallH	correct	incongruent	0.69922	no	T	H
616.90625	n/a	157928	responseSmallH	correct	n/a	0.69922	no	n/a	n/a
617.9804688	n/a	158203	largeTSmallT	correct	congruent	0.63281	no	T	T
618.6132812	n/a	158365	responseSmallT	correct	n/a	0.63281	no	n/a	n/a
619.6757812	n/a	158637	largeHSmallT	correct	incongruent	0.97266	no	H	T
620.6484375	n/a	158886	responseSmallT	correct	n/a	0.97266	no	n/a	n/a
621.7265625	n/a	159162	largeHSmallT	correct	incongruent	0.67969	no	H	T
622.40625	n/a	159336	responseSmallT	correct	n/a	0.67969	no	n/a	n/a
623.4765625	n/a	159610	largeHSmallH	correct	congruent	0.44922	no	H	H
623.9257812	n/a	159725	responseSmallH	correct	n/a	0.44922	no	n/a	n/a
624.9960938	n/a	159999	largeHSmallH	correct	congruent	0.60547	no	H	H
625.6015625	n/a	160154	responseSmallH	correct	n/a	0.60547	no	n/a	n/a
626.6757812	n/a	160429	largeTSmallH	correct	incongruent	0.63281	no	T	H
627.3085938	n/a	160591	responseSmallH	correct	n/a	0.63281	no	n/a	n/a
628.3828125	n/a	160866	largeTSmallT	correct	congruent	0.58594	no	T	T
628.96875	n/a	161016	responseSmallT	correct	n/a	0.58594	no	n/a	n/a
630.0351562	n/a	161289	largeHSmallT	correct	incongruent	0.62891	no	H	T
630.6640625	n/a	161450	responseSmallT	correct	n/a	0.62891	no	n/a	n/a
631.7421875	n/a	161726	largeTSmallT	correct	congruent	0.60547	no	T	T
632.3476562	n/a	161881	responseSmallT	correct	n/a	0.60547	no	n/a	n/a
633.421875	n/a	162156	largeTSmallH	correct	incongruent	0.73047	no	T	H
634.1523438	n/a	162343	responseSmallH	correct	n/a	0.73047	no	n/a	n/a
635.2226562	n/a	162617	largeTSmallH	correct	incongruent	0.53516	no	T	H
635.7578125	n/a	162754	responseSmallH	correct	n/a	0.53516	no	n/a	n/a
636.8203125	n/a	163026	largeTSmallH	correct	incongruent	0.51172	no	T	H
637.3320312	n/a	163157	responseSmallH	correct	n/a	0.51172	no	n/a	n/a
638.3945312	n/a	163429	largeTSmallT	correct	congruent	0.57422	no	T	T
638.96875	n/a	163576	responseSmallT	correct	n/a	0.57422	no	n/a	n/a
640.0351562	n/a	163849	largeTSmallH	correct	incongruent	0.75	no	T	H
640.7851562	n/a	164041	responseSmallH	correct	n/a	0.75	no	n/a	n/a
641.8476562	n/a	164313	largeHSmallT	correct	incongruent	0.61328	no	H	T
642.4609375	n/a	164470	responseSmallT	correct	n/a	0.61328	no	n/a	n/a
643.5273438	n/a	164743	largeHSmallT	correct	incongruent	0.69922	no	H	T
644.2265625	n/a	164922	responseSmallT	correct	n/a	0.69922	no	n/a	n/a
645.3007812	n/a	165197	largeTSmallH	correct	incongruent	0.78125	no	T	H
646.0820312	n/a	165397	responseSmallH	correct	n/a	0.78125	no	n/a	n/a
647.15625	n/a	165672	largeHSmallH	correct	congruent	1.0391	no	H	H
648.1953125	n/a	165938	responseSmallH	correct	n/a	1.0391	no	n/a	n/a
649.2734375	n/a	166214	largeHSmallH	correct	congruent	0.58594	no	H	H
649.859375	n/a	166364	responseSmallH	correct	n/a	0.58594	no	n/a	n/a
650.9257812	n/a	166637	largeHSmallH	correct	congruent	0.52344	no	H	H
651.4492188	n/a	166771	responseSmallH	correct	n/a	0.52344	no	n/a	n/a
652.515625	n/a	167044	largeHSmallH	correct	congruent	0.51562	no	H	H
653.03125	n/a	167176	responseSmallH	correct	n/a	0.51562	no	n/a	n/a
654.0859375	n/a	167446	largeHSmallT	correct	incongruent	0.71484	no	H	T
654.8007812	n/a	167629	responseSmallT	correct	n/a	0.71484	no	n/a	n/a
655.875	n/a	167904	largeHSmallT	correct	incongruent	0.88672	no	H	T
656.7617188	n/a	168131	responseSmallT	correct	n/a	0.88672	no	n/a	n/a
657.8359375	n/a	168406	largeTSmallH	correct	incongruent	0.72266	no	T	H
658.5585938	n/a	168591	responseSmallH	correct	n/a	0.72266	no	n/a	n/a
659.6328125	n/a	168866	largeTSmallH	correct	incongruent	0.6875	no	T	H
660.3203125	n/a	169042	responseSmallH	correct	n/a	0.6875	no	n/a	n/a
661.3945312	n/a	169317	largeHSmallH	correct	congruent	0.63281	no	H	H
662.0273438	n/a	169479	responseSmallH	correct	n/a	0.63281	no	n/a	n/a
663.1015625	n/a	169754	largeHSmallH	correct	congruent	0.51953	no	H	H
663.6210938	n/a	169887	responseSmallH	correct	n/a	0.51953	no	n/a	n/a
664.6875	n/a	170160	largeTSmallT	correct	congruent	0.70312	no	T	T
665.390625	n/a	170340	responseSmallT	correct	n/a	0.70312	no	n/a	n/a
666.4609375	n/a	170614	largeTSmallT	correct	congruent	0.55859	no	T	T
667.0195312	n/a	170757	responseSmallT	correct	n/a	0.55859	no	n/a	n/a
668.0859375	n/a	171030	largeTSmallT	correct	congruent	0.72656	no	T	T
668.8125	n/a	171216	responseSmallT	correct	n/a	0.72656	no	n/a	n/a
669.8867188	n/a	171491	largeTSmallH	correct	incongruent	0.66406	no	T	H
670.5507812	n/a	171661	responseSmallH	correct	n/a	0.66406	no	n/a	n/a
671.6328125	n/a	171938	largeHSmallH	correct	congruent	1.1133	no	H	H
672.7460938	n/a	172223	responseSmallH	correct	n/a	1.1133	no	n/a	n/a
673.8085938	n/a	172495	largeHSmallH	correct	congruent	0.62109	no	H	H
674.4296875	n/a	172654	responseSmallH	correct	n/a	0.62109	no	n/a	n/a
675.5	n/a	172928	largeTSmallT	correct	congruent	0.78125	no	T	T
676.28125	n/a	173128	responseSmallT	correct	n/a	0.78125	no	n/a	n/a
677.3554688	n/a	173403	largeTSmallH	correct	incongruent	0.48438	no	T	H
677.8398438	n/a	173527	responseSmallH	correct	n/a	0.48438	no	n/a	n/a
678.9140625	n/a	173802	largeTSmallT	correct	congruent	0.57422	no	T	T
679.4882812	n/a	173949	responseSmallT	correct	n/a	0.57422	no	n/a	n/a
680.5664062	n/a	174225	largeHSmallH	correct	congruent	0.44141	no	H	H
681.0078125	n/a	174338	responseSmallH	correct	n/a	0.44141	no	n/a	n/a
682.0859375	n/a	174614	largeTSmallH	correct	incongruent	1.0117	no	T	H
683.0976562	n/a	174873	responseSmallH	correct	n/a	1.0117	no	n/a	n/a
684.1679688	n/a	175147	largeTSmallT	correct	congruent	0.60547	no	T	T
684.7734375	n/a	175302	responseSmallT	correct	n/a	0.60547	no	n/a	n/a
685.8476562	n/a	175577	largeHSmallH	correct	congruent	0.48047	no	H	H
686.328125	n/a	175700	responseSmallH	correct	n/a	0.48047	no	n/a	n/a
687.40625	n/a	175976	largeTSmallT	correct	congruent	0.69922	no	T	T
688.1054688	n/a	176155	responseSmallT	correct	n/a	0.69922	no	n/a	n/a
689.1796875	n/a	176430	largeHSmallT	correct	incongruent	0.71094	no	H	T
689.890625	n/a	176612	responseSmallT	correct	n/a	0.71094	no	n/a	n/a
690.953125	n/a	176884	largeHSmallT	correct	incongruent	0.71875	no	H	T
691.671875	n/a	177068	responseSmallT	correct	n/a	0.71875	no	n/a	n/a
692.7539062	n/a	177345	largeTSmallT	correct	congruent	0.54297	no	T	T
693.296875	n/a	177484	responseSmallT	correct	n/a	0.54297	no	n/a	n/a
694.3515625	n/a	177754	largeHSmallT	correct	incongruent	0.49609	no	H	T
694.8476562	n/a	177881	responseSmallT	correct	n/a	0.49609	no	n/a	n/a
695.9257812	n/a	178157	largeTSmallT	correct	congruent	0.5	no	T	T
696.4257812	n/a	178285	responseSmallT	correct	n/a	0.5	no	n/a	n/a
697.5	n/a	178560	largeHSmallH	correct	congruent	0.625	no	H	H
698.125	n/a	178720	responseSmallH	correct	n/a	0.625	no	n/a	n/a
699.1914062	n/a	178993	largeTSmallT	correct	congruent	0.64062	no	T	T
699.8320312	n/a	179157	responseSmallT	correct	n/a	0.64062	no	n/a	n/a
700.8984375	n/a	179430	largeTSmallH	correct	incongruent	0.4375	no	T	H
701.3359375	n/a	179542	responseSmallH	correct	n/a	0.4375	no	n/a	n/a
702.40625	n/a	179816	largeTSmallT	correct	congruent	0.69531	no	T	T
703.1015625	n/a	179994	responseSmallT	correct	n/a	0.69531	no	n/a	n/a
704.1679688	n/a	180267	largeTSmallH	correct	incongruent	0.53516	no	T	H
704.703125	n/a	180404	responseSmallH	correct	n/a	0.53516	no	n/a	n/a
705.78125	n/a	180680	largeHSmallH	correct	congruent	0.48438	no	H	H
706.265625	n/a	180804	responseSmallH	correct	n/a	0.48438	no	n/a	n/a
707.3398438	n/a	181079	largeTSmallT	correct	congruent	0.56641	no	T	T
707.90625	n/a	181224	responseSmallT	correct	n/a	0.56641	no	n/a	n/a
708.9804688	n/a	181499	largeTSmallT	error	congruent	0.47266	no	T	T
709.453125	n/a	181620	responseSmallH	error	n/a	0.47266	no	n/a	n/a
710.5273438	n/a	181895	largeHSmallH	correct	congruent	0.56641	no	H	H
711.09375	n/a	182040	responseSmallH	correct	n/a	0.56641	no	n/a	n/a
712.1523438	n/a	182311	largeHSmallH	correct	congruent	0.74609	no	H	H
712.8984375	n/a	182502	responseSmallH	correct	n/a	0.74609	no	n/a	n/a
713.9648438	n/a	182775	largeTSmallH	correct	incongruent	0.57422	no	T	H
714.5390625	n/a	182922	responseSmallH	correct	n/a	0.57422	no	n/a	n/a
715.6054688	n/a	183195	largeHSmallT	correct	incongruent	0.50391	no	H	T
716.109375	n/a	183324	responseSmallT	correct	n/a	0.50391	no	n/a	n/a
717.1796875	n/a	183598	largeHSmallT	correct	incongruent	0.58594	no	H	T
717.765625	n/a	183748	responseSmallT	correct	n/a	0.58594	no	n/a	n/a
718.8320312	n/a	184021	largeTSmallT	correct	congruent	0.64453	no	T	T
719.4765625	n/a	184186	responseSmallT	correct	n/a	0.64453	no	n/a	n/a
720.5507812	n/a	184461	largeTSmallT	correct	congruent	0.64453	no	T	T
721.1953125	n/a	184626	responseSmallT	correct	n/a	0.64453	no	n/a	n/a
722.2734375	n/a	184902	largeTSmallT	correct	congruent	0.58203	no	T	T
722.8554688	n/a	185051	responseSmallT	correct	n/a	0.58203	no	n/a	n/a
723.9257812	n/a	185325	largeTSmallT	correct	congruent	0.47266	no	T	T
724.3984375	n/a	185446	responseSmallT	correct	n/a	0.47266	no	n/a	n/a
725.4609375	n/a	185718	largeHSmallT	correct	incongruent	0.54688	no	H	T
726.0078125	n/a	185858	responseSmallT	correct	n/a	0.54688	no	n/a	n/a
727.0859375	n/a	186134	largeHSmallH	correct	congruent	0.45312	no	H	H
727.5390625	n/a	186250	responseSmallH	correct	n/a	0.45312	no	n/a	n/a
728.6171875	n/a	186526	largeTSmallT	correct	congruent	0.67578	no	T	T
729.2929688	n/a	186699	responseSmallT	correct	n/a	0.67578	no	n/a	n/a
730.3671875	n/a	186974	largeHSmallH	correct	congruent	0.51562	no	H	H
730.8828125	n/a	187106	responseSmallH	correct	n/a	0.51562	no	n/a	n/a
731.953125	n/a	187380	largeTSmallH	correct	incongruent	0.58594	no	T	H
732.5390625	n/a	187530	responseSmallH	correct	n/a	0.58594	no	n/a	n/a
733.6054688	n/a	187803	largeTSmallH	correct	incongruent	0.52734	no	T	H
734.1328125	n/a	187938	responseSmallH	correct	n/a	0.52734	no	n/a	n/a
735.2070312	n/a	188213	largeTSmallT	correct	congruent	0.59375	no	T	T
735.8007812	n/a	188365	responseSmallT	correct	n/a	0.59375	no	n/a	n/a
736.8710938	n/a	188639	largeHSmallH	correct	congruent	0.64062	no	H	H
737.5117188	n/a	188803	responseSmallH	correct	n/a	0.64062	no	n/a	n/a
738.59375	n/a	189080	largeHSmallT	correct	incongruent	0.57812	no	H	T
739.171875	n/a	189228	responseSmallT	correct	n/a	0.57812	no	n/a	n/a
740.2304688	n/a	189499	largeHSmallH	correct	congruent	0.63672	no	H	H
740.8671875	n/a	189662	responseSmallH	correct	n/a	0.63672	no	n/a	n/a
741.9375	n/a	189936	largeTSmallT	correct	congruent	0.52734	no	T	T
742.4648438	n/a	190071	responseSmallT	correct	n/a	0.52734	no	n/a	n/a
743.5234375	n/a	190342	largeTSmallT	correct	congruent	0.54297	no	T	T
744.0664062	n/a	190481	responseSmallT	correct	n/a	0.54297	no	n/a	n/a
745.1367188	n/a	190755	largeHSmallH	correct	congruent	0.61719	no	H	H
745.7539062	n/a	190913	responseSmallH	correct	n/a	0.61719	no	n/a	n/a
746.8203125	n/a	191186	largeHSmallT	correct	incongruent	0.67578	no	H	T
747.4960938	n/a	191359	responseSmallT	correct	n/a	0.67578	no	n/a	n/a
748.5664062	n/a	191633	largeHSmallT	correct	incongruent	0.65625	no	H	T
749.2226562	n/a	191801	responseSmallT	correct	n/a	0.65625	no	n/a	n/a
750.2851562	n/a	192073	largeTSmallT	correct	congruent	0.60547	no	T	T
750.890625	n/a	192228	responseSmallT	correct	n/a	0.60547	no	n/a	n/a
751.953125	n/a	192500	largeTSmallH	correct	incongruent	0.70312	no	T	H
752.65625	n/a	192680	responseSmallH	correct	n/a	0.70312	no	n/a	n/a
753.7382812	n/a	192957	largeHSmallT	correct	incongruent	0.57422	no	H	T
754.3125	n/a	193104	responseSmallT	correct	n/a	0.57422	no	n/a	n/a
755.390625	n/a	193380	largeHSmallH	correct	congruent	0.64844	no	H	H
756.0390625	n/a	193546	responseSmallH	correct	n/a	0.64844	no	n/a	n/a
757.1132812	n/a	193821	largeTSmallT	correct	congruent	0.50391	no	T	T
757.6171875	n/a	193950	responseSmallT	correct	n/a	0.50391	no	n/a	n/a
758.6992188	n/a	194227	largeTSmallT	error	congruent	0.64453	no	T	T
759.34375	n/a	194392	responseSmallH	error	n/a	0.64453	no	n/a	n/a
760.40625	n/a	194664	largeHSmallT	correct	incongruent	0.64062	no	H	T
761.046875	n/a	194828	responseSmallT	correct	n/a	0.64062	no	n/a	n/a
762.125	n/a	195104	largeHSmallH	correct	congruent	0.82812	no	H	H
762.953125	n/a	195316	responseSmallH	correct	n/a	0.82812	no	n/a	n/a
764.03125	n/a	195592	largeHSmallH	correct	congruent	0.73047	no	H	H
764.7617188	n/a	195779	responseSmallH	correct	n/a	0.73047	no	n/a	n/a
765.8320312	n/a	196053	largeTSmallH	correct	incongruent	0.60547	no	T	H
766.4375	n/a	196208	responseSmallH	correct	n/a	0.60547	no	n/a	n/a
767.5117188	n/a	196483	largeTSmallT	correct	congruent	0.64062	no	T	T
768.1523438	n/a	196647	responseSmallT	correct	n/a	0.64062	no	n/a	n/a
769.2304688	n/a	196923	largeTSmallT	correct	congruent	0.57031	no	T	T
769.8007812	n/a	197069	responseSmallT	correct	n/a	0.57031	no	n/a	n/a
770.8710938	n/a	197343	largeHSmallH	correct	congruent	0.59766	no	H	H
771.46875	n/a	197496	responseSmallH	correct	n/a	0.59766	no	n/a	n/a
772.5507812	n/a	197773	largeHSmallT	correct	incongruent	0.55078	no	H	T
773.1015625	n/a	197914	responseSmallT	correct	n/a	0.55078	no	n/a	n/a
774.1640625	n/a	198186	largeHSmallT	correct	incongruent	0.77734	no	H	T
774.9414062	n/a	198385	responseSmallT	correct	n/a	0.77734	no	n/a	n/a
776.0039062	n/a	198657	largeHSmallH	correct	congruent	0.68359	no	H	H
776.6875	n/a	198832	responseSmallH	correct	n/a	0.68359	no	n/a	n/a
777.75	n/a	199104	largeTSmallT	correct	congruent	0.55859	no	T	T
778.3085938	n/a	199247	responseSmallT	correct	n/a	0.55859	no	n/a	n/a
779.3789062	n/a	199521	largeHSmallH	correct	congruent	0.65234	no	H	H
780.03125	n/a	199688	responseSmallH	correct	n/a	0.65234	no	n/a	n/a
781.0976562	n/a	199961	largeHSmallH	correct	congruent	0.54297	no	H	H
781.640625	n/a	200100	responseSmallH	correct	n/a	0.54297	no	n/a	n/a
782.7109375	n/a	200374	largeHSmallT	correct	incongruent	1.332	no	H	T
784.0429688	n/a	200715	responseSmallT	correct	n/a	1.332	no	n/a	n/a
785.125	n/a	200992	largeTSmallH	correct	incongruent	1.4141	no	T	H
786.5390625	n/a	201354	responseSmallH	correct	n/a	1.4141	no	n/a	n/a
787.6171875	n/a	201630	largeHSmallH	correct	congruent	0.63672	no	H	H
788.2539062	n/a	201793	responseSmallH	correct	n/a	0.63672	no	n/a	n/a
789.3359375	n/a	202070	largeHSmallH	correct	congruent	0.63281	no	H	H
789.96875	n/a	202232	responseSmallH	correct	n/a	0.63281	no	n/a	n/a
791.03125	n/a	202504	largeTSmallH	correct	incongruent	0.72656	no	T	H
791.7578125	n/a	202690	responseSmallH	correct	n/a	0.72656	no	n/a	n/a
792.8320312	n/a	202965	largeHSmallT	correct	incongruent	0.71094	no	H	T
793.5429688	n/a	203147	responseSmallT	correct	n/a	0.71094	no	n/a	n/a
794.6171875	n/a	203422	largeTSmallT	correct	congruent	0.76562	no	T	T
795.3828125	n/a	203618	responseSmallT	correct	n/a	0.76562	no	n/a	n/a
796.4570312	n/a	203893	largeTSmallH	correct	incongruent	0.71484	no	T	H
797.171875	n/a	204076	responseSmallH	correct	n/a	0.71484	no	n/a	n/a
798.2421875	n/a	204350	largeHSmallT	correct	incongruent	0.57422	no	H	T
798.8164062	n/a	204497	responseSmallT	correct	n/a	0.57422	no	n/a	n/a
806.46875	n/a	206456	largeHSmallH	correct	congruent	2.5195	yes	H	H
808.9882812	n/a	207101	responseLargeH	correct	n/a	2.5195	yes	n/a	n/a
810.0703125	n/a	207378	largeTSmallT	correct	congruent	0.67188	no	T	T
810.7421875	n/a	207550	responseLargeT	correct	n/a	0.67188	no	n/a	n/a
811.8046875	n/a	207822	largeTSmallT	correct	congruent	0.71484	no	T	T
812.5195312	n/a	208005	responseLargeT	correct	n/a	0.71484	no	n/a	n/a
813.5898438	n/a	208279	largeTSmallH	error	incongruent	0.53906	no	T	H
814.1289062	n/a	208417	responseLargeH	error	n/a	0.53906	no	n/a	n/a
815.1914062	n/a	208689	largeTSmallT	correct	congruent	1.0742	no	T	T
816.265625	n/a	208964	responseLargeT	correct	n/a	1.0742	no	n/a	n/a
817.3359375	n/a	209238	largeHSmallT	correct	incongruent	0.68359	no	H	T
818.0195312	n/a	209413	responseLargeH	correct	n/a	0.68359	no	n/a	n/a
819.0976562	n/a	209689	largeHSmallH	correct	congruent	0.75	no	H	H
819.8476562	n/a	209881	responseLargeH	correct	n/a	0.75	no	n/a	n/a
820.921875	n/a	210156	largeTSmallT	correct	congruent	0.52344	no	T	T
821.4453125	n/a	210290	responseLargeT	correct	n/a	0.52344	no	n/a	n/a
822.5117188	n/a	210563	largeTSmallH	error	incongruent	0.40625	no	T	H
822.9179688	n/a	210667	responseLargeH	error	n/a	0.40625	no	n/a	n/a
823.9882812	n/a	210941	largeHSmallH	correct	congruent	0.69141	no	H	H
824.6796875	n/a	211118	responseLargeH	correct	n/a	0.69141	no	n/a	n/a
825.7617188	n/a	211395	largeTSmallH	correct	incongruent	0.82812	no	T	H
826.5898438	n/a	211607	responseLargeT	correct	n/a	0.82812	no	n/a	n/a
827.65625	n/a	211880	largeTSmallT	correct	congruent	0.51562	no	T	T
828.171875	n/a	212012	responseLargeT	correct	n/a	0.51562	no	n/a	n/a
829.2421875	n/a	212286	largeTSmallT	correct	congruent	0.73047	no	T	T
829.9726562	n/a	212473	responseLargeT	correct	n/a	0.73047	no	n/a	n/a
831.0429688	n/a	212747	largeTSmallH	correct	incongruent	0.62891	no	T	H
831.671875	n/a	212908	responseLargeT	correct	n/a	0.62891	no	n/a	n/a
832.75	n/a	213184	largeHSmallT	correct	incongruent	0.57422	no	H	T
833.3242188	n/a	213331	responseLargeH	correct	n/a	0.57422	no	n/a	n/a
834.4023438	n/a	213607	largeHSmallH	correct	congruent	0.71484	no	H	H
835.1171875	n/a	213790	responseLargeH	correct	n/a	0.71484	no	n/a	n/a
836.1875	n/a	214064	largeTSmallH	correct	incongruent	0.70312	no	T	H
836.890625	n/a	214244	responseLargeT	correct	n/a	0.70312	no	n/a	n/a
837.9609375	n/a	214518	largeTSmallT	correct	congruent	0.76953	no	T	T
838.7304688	n/a	214715	responseLargeT	correct	n/a	0.76953	no	n/a	n/a
839.8007812	n/a	214989	largeTSmallH	correct	incongruent	0.66406	no	T	H
840.4648438	n/a	215159	responseLargeT	correct	n/a	0.66406	no	n/a	n/a
841.5351562	n/a	215433	largeHSmallT	correct	incongruent	0.84766	no	H	T
842.3828125	n/a	215650	responseLargeH	correct	n/a	0.84766	no	n/a	n/a
843.4414062	n/a	215921	largeTSmallT	correct	congruent	0.84766	no	T	T
844.2890625	n/a	216138	responseLargeT	correct	n/a	0.84766	no	n/a	n/a
845.3476562	n/a	216409	largeHSmallT	correct	incongruent	0.48828	no	H	T
845.8359375	n/a	216534	responseLargeH	correct	n/a	0.48828	no	n/a	n/a
846.9101562	n/a	216809	largeHSmallH	correct	congruent	0.63672	no	H	H
847.546875	n/a	216972	responseLargeH	correct	n/a	0.63672	no	n/a	n/a
848.6171875	n/a	217246	largeTSmallT	correct	congruent	0.54297	no	T	T
849.1601562	n/a	217385	responseLargeT	correct	n/a	0.54297	no	n/a	n/a
850.2304688	n/a	217659	largeHSmallT	correct	incongruent	0.66797	no	H	T
850.8984375	n/a	217830	responseLargeH	correct	n/a	0.66797	no	n/a	n/a
851.9609375	n/a	218102	largeHSmallT	error	incongruent	0.66406	no	H	T
852.625	n/a	218272	responseLargeT	error	n/a	0.66406	no	n/a	n/a
853.6953125	n/a	218546	largeHSmallT	correct	incongruent	0.74609	no	H	T
854.4414062	n/a	218737	responseLargeH	correct	n/a	0.74609	no	n/a	n/a
855.5078125	n/a	219010	largeHSmallH	correct	congruent	0.61328	no	H	H
856.1210938	n/a	219167	responseLargeH	correct	n/a	0.61328	no	n/a	n/a
857.1875	n/a	219440	largeTSmallT	correct	congruent	0.63281	no	T	T
857.8203125	n/a	219602	responseLargeT	correct	n/a	0.63281	no	n/a	n/a
858.8945312	n/a	219877	largeHSmallH	correct	congruent	0.67188	no	H	H
859.5664062	n/a	220049	responseLargeH	correct	n/a	0.67188	no	n/a	n/a
860.640625	n/a	220324	largeTSmallH	correct	incongruent	0.65234	no	T	H
861.2929688	n/a	220491	responseLargeT	correct	n/a	0.65234	no	n/a	n/a
862.375	n/a	220768	largeTSmallH	correct	incongruent	1.3164	no	T	H
863.6914062	n/a	221105	responseLargeT	correct	n/a	1.3164	no	n/a	n/a
864.7617188	n/a	221379	largeTSmallT	correct	congruent	0.61719	no	T	T
865.3789062	n/a	221537	responseLargeT	correct	n/a	0.61719	no	n/a	n/a
866.4414062	n/a	221809	largeHSmallH	correct	congruent	0.59766	no	H	H
867.0390625	n/a	221962	responseLargeH	correct	n/a	0.59766	no	n/a	n/a
868.109375	n/a	222236	largeTSmallT	correct	congruent	0.72266	no	T	T
868.8320312	n/a	222421	responseLargeT	correct	n/a	0.72266	no	n/a	n/a
869.9101562	n/a	222697	largeTSmallT	correct	congruent	0.63672	no	T	T
870.546875	n/a	222860	responseLargeT	correct	n/a	0.63672	no	n/a	n/a
871.6289062	n/a	223137	largeTSmallT	correct	congruent	0.52734	no	T	T
872.15625	n/a	223272	responseLargeT	correct	n/a	0.52734	no	n/a	n/a
873.2265625	n/a	223546	largeHSmallH	correct	congruent	0.50781	no	H	H
873.734375	n/a	223676	responseLargeH	correct	n/a	0.50781	no	n/a	n/a
874.8007812	n/a	223949	largeHSmallT	correct	incongruent	0.80469	no	H	T
875.6054688	n/a	224155	responseLargeH	correct	n/a	0.80469	no	n/a	n/a
876.6835938	n/a	224431	largeHSmallT	correct	incongruent	0.61328	no	H	T
877.296875	n/a	224588	responseLargeH	correct	n/a	0.61328	no	n/a	n/a
878.3632812	n/a	224861	largeHSmallH	correct	congruent	0.67969	no	H	H
879.0429688	n/a	225035	responseLargeH	correct	n/a	0.67969	no	n/a	n/a
880.109375	n/a	225308	largeTSmallT	correct	congruent	0.60547	no	T	T
880.7148438	n/a	225463	responseLargeT	correct	n/a	0.60547	no	n/a	n/a
881.7890625	n/a	225738	largeHSmallT	correct	incongruent	0.58203	no	H	T
882.3710938	n/a	225887	responseLargeH	correct	n/a	0.58203	no	n/a	n/a
883.4414062	n/a	226161	largeHSmallH	correct	congruent	0.625	no	H	H
884.0664062	n/a	226321	responseLargeH	correct	n/a	0.625	no	n/a	n/a
885.1367188	n/a	226595	largeHSmallT	correct	incongruent	0.53516	no	H	T
885.671875	n/a	226732	responseLargeH	correct	n/a	0.53516	no	n/a	n/a
886.734375	n/a	227004	largeHSmallH	correct	congruent	0.51172	no	H	H
887.2460938	n/a	227135	responseLargeH	correct	n/a	0.51172	no	n/a	n/a
888.3085938	n/a	227407	largeTSmallT	correct	congruent	0.71484	no	T	T
889.0234375	n/a	227590	responseLargeT	correct	n/a	0.71484	no	n/a	n/a
890.09375	n/a	227864	largeTSmallH	correct	incongruent	0.89844	no	T	H
890.9921875	n/a	228094	responseLargeT	correct	n/a	0.89844	no	n/a	n/a
892.0546875	n/a	228366	largeTSmallH	correct	incongruent	0.80078	no	T	H
892.8554688	n/a	228571	responseLargeT	correct	n/a	0.80078	no	n/a	n/a
893.9335938	n/a	228847	largeHSmallT	correct	incongruent	0.6875	no	H	T
894.6210938	n/a	229023	responseLargeH	correct	n/a	0.6875	no	n/a	n/a
895.6953125	n/a	229298	largeTSmallH	correct	incongruent	0.86328	no	T	H
896.5585938	n/a	229519	responseLargeT	correct	n/a	0.86328	no	n/a	n/a
897.6289062	n/a	229793	largeTSmallH	correct	incongruent	0.78125	no	T	H
898.4101562	n/a	229993	responseLargeT	correct	n/a	0.78125	no	n/a	n/a
899.4804688	n/a	230267	largeHSmallT	correct	incongruent	0.73047	no	H	T
900.2109375	n/a	230454	responseLargeH	correct	n/a	0.73047	no	n/a	n/a
901.28125	n/a	230728	largeHSmallH	correct	congruent	0.62109	no	H	H
901.9023438	n/a	230887	responseLargeH	correct	n/a	0.62109	no	n/a	n/a
902.9726562	n/a	231161	largeTSmallT	correct	congruent	0.54688	no	T	T
903.5195312	n/a	231301	responseLargeT	correct	n/a	0.54688	no	n/a	n/a
904.5859375	n/a	231574	largeTSmallH	correct	incongruent	0.65625	no	T	H
905.2421875	n/a	231742	responseLargeT	correct	n/a	0.65625	no	n/a	n/a
906.3203125	n/a	232018	largeTSmallH	correct	incongruent	0.70312	no	T	H
907.0234375	n/a	232198	responseLargeT	correct	n/a	0.70312	no	n/a	n/a
908.09375	n/a	232472	largeTSmallT	correct	congruent	0.55859	no	T	T
908.6523438	n/a	232615	responseLargeT	correct	n/a	0.55859	no	n/a	n/a
909.7226562	n/a	232889	largeTSmallH	correct	incongruent	0.78125	no	T	H
910.5039062	n/a	233089	responseLargeT	correct	n/a	0.78125	no	n/a	n/a
911.5742188	n/a	233363	largeTSmallT	correct	congruent	0.55469	no	T	T
912.1289062	n/a	233505	responseLargeT	correct	n/a	0.55469	no	n/a	n/a
913.1992188	n/a	233779	largeHSmallH	correct	congruent	0.53906	no	H	H
913.7382812	n/a	233917	responseLargeH	correct	n/a	0.53906	no	n/a	n/a
914.8007812	n/a	234189	largeTSmallT	correct	congruent	0.73828	no	T	T
915.5390625	n/a	234378	responseLargeT	correct	n/a	0.73828	no	n/a	n/a
916.6132812	n/a	234653	largeTSmallT	correct	congruent	0.56641	no	T	T
917.1796875	n/a	234798	responseLargeT	correct	n/a	0.56641	no	n/a	n/a
918.2539062	n/a	235073	largeHSmallH	correct	congruent	0.54297	no	H	H
918.796875	n/a	235212	responseLargeH	correct	n/a	0.54297	no	n/a	n/a
919.8671875	n/a	235486	largeHSmallT	correct	incongruent	0.69922	no	H	T
920.5664062	n/a	235665	responseLargeH	correct	n/a	0.69922	no	n/a	n/a
921.640625	n/a	235940	largeHSmallT	correct	incongruent	0.64453	no	H	T
922.2851562	n/a	236105	responseLargeH	correct	n/a	0.64453	no	n/a	n/a
923.3476562	n/a	236377	largeHSmallH	correct	congruent	0.78516	no	H	H
924.1328125	n/a	236578	responseLargeH	correct	n/a	0.78516	no	n/a	n/a
925.2148438	n/a	236855	largeHSmallT	correct	incongruent	0.73438	no	H	T
925.9492188	n/a	237043	responseLargeH	correct	n/a	0.73438	no	n/a	n/a
927.015625	n/a	237316	largeTSmallH	correct	incongruent	0.58984	no	T	H
927.6054688	n/a	237467	responseLargeT	correct	n/a	0.58984	no	n/a	n/a
928.6679688	n/a	237739	largeHSmallT	correct	incongruent	0.57812	no	H	T
929.2460938	n/a	237887	responseLargeH	correct	n/a	0.57812	no	n/a	n/a
930.3085938	n/a	238159	largeTSmallH	correct	incongruent	0.69141	no	T	H
931	n/a	238336	responseLargeT	correct	n/a	0.69141	no	n/a	n/a
932.0664062	n/a	238609	largeHSmallH	correct	congruent	0.63672	no	H	H
932.703125	n/a	238772	responseLargeH	correct	n/a	0.63672	no	n/a	n/a
933.7734375	n/a	239046	largeHSmallT	correct	incongruent	0.69531	no	H	T
934.46875	n/a	239224	responseLargeH	correct	n/a	0.69531	no	n/a	n/a
935.5351562	n/a	239497	largeHSmallT	correct	incongruent	0.625	no	H	T
936.1601562	n/a	239657	responseLargeH	correct	n/a	0.625	no	n/a	n/a
937.2382812	n/a	239933	largeTSmallH	correct	incongruent	0.625	no	T	H
937.8632812	n/a	240093	responseLargeT	correct	n/a	0.625	no	n/a	n/a
938.9335938	n/a	240367	largeTSmallH	correct	incongruent	0.76953	no	T	H
939.703125	n/a	240564	responseLargeT	correct	n/a	0.76953	no	n/a	n/a
940.7734375	n/a	240838	largeTSmallH	correct	incongruent	0.57031	no	T	H
941.34375	n/a	240984	responseLargeT	correct	n/a	0.57031	no	n/a	n/a
942.4140625	n/a	241258	largeHSmallT	correct	incongruent	0.62891	no	H	T
943.0429688	n/a	241419	responseLargeH	correct	n/a	0.62891	no	n/a	n/a
944.1210938	n/a	241695	largeHSmallH	correct	congruent	0.71484	no	H	H
944.8359375	n/a	241878	responseLargeH	correct	n/a	0.71484	no	n/a	n/a
945.90625	n/a	242152	largeHSmallH	correct	congruent	0.55469	no	H	H
946.4609375	n/a	242294	responseLargeH	correct	n/a	0.55469	no	n/a	n/a
947.53125	n/a	242568	largeHSmallH	correct	congruent	0.69531	no	H	H
948.2265625	n/a	242746	responseLargeH	correct	n/a	0.69531	no	n/a	n/a
949.2929688	n/a	243019	largeTSmallH	correct	incongruent	0.55469	no	T	H
949.8476562	n/a	243161	responseLargeT	correct	n/a	0.55469	no	n/a	n/a
950.9179688	n/a	243435	largeTSmallT	correct	congruent	0.6875	no	T	T
951.6054688	n/a	243611	responseLargeT	correct	n/a	0.6875	no	n/a	n/a
952.6796875	n/a	243886	largeHSmallT	correct	incongruent	0.51562	no	H	T
953.1953125	n/a	244018	responseLargeH	correct	n/a	0.51562	no	n/a	n/a
954.265625	n/a	244292	largeHSmallT	correct	incongruent	0.47266	no	H	T
954.7382812	n/a	244413	responseLargeH	correct	n/a	0.47266	no	n/a	n/a
955.8125	n/a	244688	largeTSmallT	correct	congruent	0.47656	no	T	T
956.2890625	n/a	244810	responseLargeT	correct	n/a	0.47656	no	n/a	n/a
957.359375	n/a	245084	largeTSmallT	correct	congruent	0.69531	no	T	T
958.0546875	n/a	245262	responseLargeT	correct	n/a	0.69531	no	n/a	n/a
959.1210938	n/a	245535	largeHSmallH	correct	congruent	0.51953	no	H	H
959.640625	n/a	245668	responseLargeH	correct	n/a	0.51953	no	n/a	n/a
960.71875	n/a	245944	largeHSmallH	correct	congruent	0.52344	no	H	H
961.2421875	n/a	246078	responseLargeH	correct	n/a	0.52344	no	n/a	n/a
962.3203125	n/a	246354	largeHSmallH	correct	congruent	0.51172	no	H	H
962.8320312	n/a	246485	responseLargeH	correct	n/a	0.51172	no	n/a	n/a
963.8945312	n/a	246757	largeTSmallH	correct	incongruent	0.57031	no	T	H
964.4648438	n/a	246903	responseLargeT	correct	n/a	0.57031	no	n/a	n/a
965.53125	n/a	247176	largeHSmallT	correct	incongruent	0.83203	no	H	T
966.3632812	n/a	247389	responseLargeH	correct	n/a	0.83203	no	n/a	n/a
967.4375	n/a	247664	largeTSmallH	correct	incongruent	0.58594	no	T	H
968.0234375	n/a	247814	responseLargeT	correct	n/a	0.58594	no	n/a	n/a
969.09375	n/a	248088	largeHSmallH	correct	congruent	0.54297	no	H	H
969.6367188	n/a	248227	responseLargeH	correct	n/a	0.54297	no	n/a	n/a
970.71875	n/a	248504	largeHSmallT	correct	incongruent	0.58203	no	H	T
971.3007812	n/a	248653	responseLargeH	correct	n/a	0.58203	no	n/a	n/a
972.3710938	n/a	248927	largeHSmallH	correct	congruent	0.62891	no	H	H
973	n/a	249088	responseLargeH	correct	n/a	0.62891	no	n/a	n/a
974.0664062	n/a	249361	largeHSmallH	correct	congruent	0.58594	no	H	H
974.6523438	n/a	249511	responseLargeH	correct	n/a	0.58594	no	n/a	n/a
975.71875	n/a	249784	largeHSmallH	correct	congruent	0.53516	no	H	H
976.2539062	n/a	249921	responseLargeH	correct	n/a	0.53516	no	n/a	n/a
977.3320312	n/a	250197	largeTSmallH	correct	incongruent	0.63281	no	T	H
977.9648438	n/a	250359	responseLargeT	correct	n/a	0.63281	no	n/a	n/a
979.0390625	n/a	250634	largeHSmallH	correct	congruent	0.62109	no	H	H
979.6601562	n/a	250793	responseLargeH	correct	n/a	0.62109	no	n/a	n/a
980.7304688	n/a	251067	largeHSmallH	correct	congruent	0.63281	no	H	H
981.3632812	n/a	251229	responseLargeH	correct	n/a	0.63281	no	n/a	n/a
982.4257812	n/a	251501	largeTSmallH	correct	incongruent	0.75781	no	T	H
983.1835938	n/a	251695	responseLargeT	correct	n/a	0.75781	no	n/a	n/a
984.2539062	n/a	251969	largeHSmallT	correct	incongruent	0.69141	no	H	T
984.9453125	n/a	252146	responseLargeH	correct	n/a	0.69141	no	n/a	n/a
986.0117188	n/a	252419	largeTSmallT	correct	congruent	0.59375	no	T	T
986.6054688	n/a	252571	responseLargeT	correct	n/a	0.59375	no	n/a	n/a
987.6640625	n/a	252842	largeTSmallH	correct	incongruent	0.63281	no	T	H
988.296875	n/a	253004	responseLargeT	correct	n/a	0.63281	no	n/a	n/a
989.3710938	n/a	253279	largeTSmallT	correct	congruent	0.67188	no	T	T
990.0429688	n/a	253451	responseLargeT	correct	n/a	0.67188	no	n/a	n/a
991.1171875	n/a	253726	largeTSmallH	correct	incongruent	0.59766	no	T	H
991.7148438	n/a	253879	responseLargeT	correct	n/a	0.59766	no	n/a	n/a
992.7851562	n/a	254153	largeHSmallT	correct	incongruent	0.59766	no	H	T
993.3828125	n/a	254306	responseLargeH	correct	n/a	0.59766	no	n/a	n/a
994.453125	n/a	254580	largeHSmallT	correct	incongruent	0.55078	no	H	T
995.0039062	n/a	254721	responseLargeH	correct	n/a	0.55078	no	n/a	n/a
996.078125	n/a	254996	largeTSmallH	correct	incongruent	0.73438	no	T	H
996.8125	n/a	255184	responseLargeT	correct	n/a	0.73438	no	n/a	n/a
997.890625	n/a	255460	largeHSmallT	correct	incongruent	0.54688	no	H	T
998.4375	n/a	255600	responseLargeH	correct	n/a	0.54688	no	n/a	n/a
999.5039062	n/a	255873	largeHSmallT	correct	incongruent	0.58203	no	H	T
1000.085938	n/a	256022	responseLargeH	correct	n/a	0.58203	no	n/a	n/a
1001.160156	n/a	256297	largeTSmallH	correct	incongruent	0.60156	no	T	H
1001.761719	n/a	256451	responseLargeT	correct	n/a	0.60156	no	n/a	n/a
1002.839844	n/a	256727	largeHSmallH	correct	congruent	0.55469	no	H	H
1003.394531	n/a	256869	responseLargeH	correct	n/a	0.55469	no	n/a	n/a
1004.476562	n/a	257146	largeHSmallT	correct	incongruent	0.49219	no	H	T
1004.96875	n/a	257272	responseLargeH	correct	n/a	0.49219	no	n/a	n/a
1006.023438	n/a	257542	largeTSmallT	correct	congruent	0.62891	no	T	T
1006.652344	n/a	257703	responseLargeT	correct	n/a	0.62891	no	n/a	n/a
1007.71875	n/a	257976	largeTSmallT	correct	congruent	0.69922	no	T	T
1008.417969	n/a	258155	responseLargeT	correct	n/a	0.69922	no	n/a	n/a
1009.492188	n/a	258430	largeHSmallH	correct	congruent	0.71875	no	H	H
1010.210938	n/a	258614	responseLargeH	correct	n/a	0.71875	no	n/a	n/a
1011.292969	n/a	258891	largeTSmallH	correct	incongruent	0.64453	no	T	H
1011.9375	n/a	259056	responseLargeT	correct	n/a	0.64453	no	n/a	n/a
1013	n/a	259328	largeHSmallT	error	incongruent	0.53906	no	H	T
1013.539062	n/a	259466	responseLargeT	error	n/a	0.53906	no	n/a	n/a
1014.613281	n/a	259741	largeHSmallT	correct	incongruent	0.55078	no	H	T
1015.164062	n/a	259882	responseLargeH	correct	n/a	0.55078	no	n/a	n/a
1016.238281	n/a	260157	largeTSmallT	correct	congruent	0.46875	no	T	T
1016.707031	n/a	260277	responseLargeT	correct	n/a	0.46875	no	n/a	n/a
1017.785156	n/a	260553	largeHSmallT	correct	incongruent	0.66797	no	H	T
1018.453125	n/a	260724	responseLargeH	correct	n/a	0.66797	no	n/a	n/a
1019.53125	n/a	261000	largeTSmallT	correct	congruent	0.59375	no	T	T
1020.125	n/a	261152	responseLargeT	correct	n/a	0.59375	no	n/a	n/a
1021.199219	n/a	261427	largeTSmallT	correct	congruent	0.94922	no	T	T
1022.148438	n/a	261670	responseLargeT	correct	n/a	0.94922	no	n/a	n/a
1023.222656	n/a	261945	largeHSmallH	correct	congruent	0.625	no	H	H
1023.847656	n/a	262105	responseLargeH	correct	n/a	0.625	no	n/a	n/a
1024.917969	n/a	262379	largeHSmallH	correct	congruent	0.68359	no	H	H
1025.601562	n/a	262554	responseLargeH	correct	n/a	0.68359	no	n/a	n/a
1026.664062	n/a	262826	largeTSmallT	correct	congruent	0.67188	no	T	T
1027.335938	n/a	262998	responseLargeT	correct	n/a	0.67188	no	n/a	n/a
1028.398438	n/a	263270	largeTSmallT	correct	congruent	0.74219	no	T	T
1029.140625	n/a	263460	responseLargeT	correct	n/a	0.74219	no	n/a	n/a
1030.210938	n/a	263734	largeHSmallH	correct	congruent	1.0898	no	H	H
1031.300781	n/a	264013	responseLargeH	correct	n/a	1.0898	no	n/a	n/a
1032.371094	n/a	264287	largeTSmallH	correct	incongruent	0.75391	no	T	H
1033.125	n/a	264480	responseLargeT	correct	n/a	0.75391	no	n/a	n/a
1034.210938	n/a	264758	largeHSmallH	correct	congruent	1	no	H	H
1035.210938	n/a	265014	responseLargeH	correct	n/a	1	no	n/a	n/a
1036.277344	n/a	265287	largeHSmallT	correct	incongruent	0.57812	no	H	T
1036.855469	n/a	265435	responseLargeH	correct	n/a	0.57812	no	n/a	n/a
1037.929688	n/a	265710	largeHSmallT	correct	incongruent	0.57422	no	H	T
1038.503906	n/a	265857	responseLargeH	correct	n/a	0.57422	no	n/a	n/a
1039.570312	n/a	266130	largeTSmallH	correct	incongruent	0.75391	no	T	H
1040.324219	n/a	266323	responseLargeT	correct	n/a	0.75391	no	n/a	n/a
1041.398438	n/a	266598	largeTSmallH	correct	incongruent	0.6875	no	T	H
1042.085938	n/a	266774	responseLargeT	correct	n/a	0.6875	no	n/a	n/a
1043.15625	n/a	267048	largeHSmallH	correct	congruent	0.62891	no	H	H
1043.785156	n/a	267209	responseLargeH	correct	n/a	0.62891	no	n/a	n/a
1044.863281	n/a	267485	largeTSmallT	correct	congruent	0.6875	no	T	T
1045.550781	n/a	267661	responseLargeT	correct	n/a	0.6875	no	n/a	n/a
1046.625	n/a	267936	largeTSmallT	correct	congruent	0.67188	no	T	T
1047.296875	n/a	268108	responseLargeT	correct	n/a	0.67188	no	n/a	n/a
1048.371094	n/a	268383	largeHSmallH	correct	congruent	0.625	no	H	H
1048.996094	n/a	268543	responseLargeH	correct	n/a	0.625	no	n/a	n/a
1050.078125	n/a	268820	largeTSmallT	correct	congruent	0.52344	no	T	T
1050.601562	n/a	268954	responseLargeT	correct	n/a	0.52344	no	n/a	n/a
1051.675781	n/a	269229	largeTSmallT	correct	congruent	0.70312	no	T	T
1052.378906	n/a	269409	responseLargeT	correct	n/a	0.70312	no	n/a	n/a
1053.449219	n/a	269683	largeTSmallT	correct	congruent	0.66406	no	T	T
1054.113281	n/a	269853	responseLargeT	correct	n/a	0.66406	no	n/a	n/a
1055.183594	n/a	270127	largeTSmallH	correct	incongruent	0.68359	no	T	H
1055.867188	n/a	270302	responseLargeT	correct	n/a	0.68359	no	n/a	n/a
1056.929688	n/a	270574	largeTSmallH	correct	incongruent	0.67188	no	T	H
1057.601562	n/a	270746	responseLargeT	correct	n/a	0.67188	no	n/a	n/a
1058.675781	n/a	271021	largeHSmallT	correct	incongruent	0.54688	no	H	T
1059.222656	n/a	271161	responseLargeH	correct	n/a	0.54688	no	n/a	n/a
1060.289062	n/a	271434	largeTSmallH	correct	incongruent	0.6875	no	T	H
1060.976562	n/a	271610	responseLargeT	correct	n/a	0.6875	no	n/a	n/a
1062.050781	n/a	271885	largeTSmallH	correct	incongruent	0.54688	no	T	H
1062.597656	n/a	272025	responseLargeT	correct	n/a	0.54688	no	n/a	n/a
1063.675781	n/a	272301	largeHSmallT	correct	incongruent	0.60547	no	H	T
1064.28125	n/a	272456	responseLargeH	correct	n/a	0.60547	no	n/a	n/a
1065.355469	n/a	272731	largeTSmallT	correct	congruent	0.54297	no	T	T
1065.898438	n/a	272870	responseLargeT	correct	n/a	0.54297	no	n/a	n/a
1066.96875	n/a	273144	largeHSmallH	correct	congruent	0.51172	no	H	H
1067.480469	n/a	273275	responseLargeH	correct	n/a	0.51172	no	n/a	n/a
1068.554688	n/a	273550	largeHSmallH	correct	congruent	0.625	no	H	H
1069.179688	n/a	273710	responseLargeH	correct	n/a	0.625	no	n/a	n/a
1070.25	n/a	273984	largeTSmallT	correct	congruent	0.69141	no	T	T
1070.941406	n/a	274161	responseLargeT	correct	n/a	0.69141	no	n/a	n/a
1072.023438	n/a	274438	largeTSmallH	correct	incongruent	0.65625	no	T	H
1072.679688	n/a	274606	responseLargeT	correct	n/a	0.65625	no	n/a	n/a
1073.757812	n/a	274882	largeTSmallH	correct	incongruent	0.70312	no	T	H
1074.460938	n/a	275062	responseLargeT	correct	n/a	0.70312	no	n/a	n/a
1075.53125	n/a	275336	largeTSmallT	correct	congruent	0.49609	no	T	T
1076.027344	n/a	275463	responseLargeT	correct	n/a	0.49609	no	n/a	n/a
1077.089844	n/a	275735	largeHSmallT	correct	incongruent	0.71484	no	H	T
1077.804688	n/a	275918	responseLargeH	correct	n/a	0.71484	no	n/a	n/a
1078.890625	n/a	276196	largeTSmallT	correct	congruent	0.60938	no	T	T
1079.5	n/a	276352	responseLargeT	correct	n/a	0.60938	no	n/a	n/a
1080.570312	n/a	276626	largeHSmallH	correct	congruent	0.62109	no	H	H
1081.191406	n/a	276785	responseLargeH	correct	n/a	0.62109	no	n/a	n/a
1082.261719	n/a	277059	largeTSmallT	correct	congruent	0.49219	no	T	T
1082.753906	n/a	277185	responseLargeT	correct	n/a	0.49219	no	n/a	n/a
1083.835938	n/a	277462	largeTSmallH	correct	incongruent	1.0117	no	T	H
1084.847656	n/a	277721	responseLargeT	correct	n/a	1.0117	no	n/a	n/a
1085.914062	n/a	277994	largeTSmallH	correct	incongruent	0.80859	no	T	H
1086.722656	n/a	278201	responseLargeT	correct	n/a	0.80859	no	n/a	n/a
1087.796875	n/a	278476	largeHSmallH	correct	congruent	0.61719	no	H	H
1088.414062	n/a	278634	responseLargeH	correct	n/a	0.61719	no	n/a	n/a
1089.476562	n/a	278906	largeTSmallT	correct	congruent	0.75	no	T	T
1090.226562	n/a	279098	responseLargeT	correct	n/a	0.75	no	n/a	n/a
1091.300781	n/a	279373	largeTSmallT	correct	congruent	0.59766	no	T	T
1091.898438	n/a	279526	responseLargeT	correct	n/a	0.59766	no	n/a	n/a
1092.96875	n/a	279800	largeHSmallH	correct	congruent	0.58594	no	H	H
1093.554688	n/a	279950	responseLargeH	correct	n/a	0.58594	no	n/a	n/a
1094.621094	n/a	280223	largeTSmallH	correct	incongruent	0.49219	no	T	H
1095.113281	n/a	280349	responseLargeT	correct	n/a	0.49219	no	n/a	n/a
1096.183594	n/a	280623	largeTSmallH	correct	incongruent	0.67578	no	T	H
1096.859375	n/a	280796	responseLargeT	correct	n/a	0.67578	no	n/a	n/a
1097.929688	n/a	281070	largeTSmallH	correct	incongruent	0.92188	no	T	H
1098.851562	n/a	281306	responseLargeT	correct	n/a	0.92188	no	n/a	n/a
1099.929688	n/a	281582	largeHSmallT	correct	incongruent	0.73828	no	H	T
1100.667969	n/a	281771	responseLargeH	correct	n/a	0.73828	no	n/a	n/a
1101.742188	n/a	282046	largeTSmallT	correct	congruent	0.50391	no	T	T
1102.246094	n/a	282175	responseLargeT	correct	n/a	0.50391	no	n/a	n/a
1103.316406	n/a	282449	largeHSmallT	correct	incongruent	0.49219	no	H	T
1103.808594	n/a	282575	responseLargeH	correct	n/a	0.49219	no	n/a	n/a
1104.875	n/a	282848	largeHSmallH	correct	congruent	0.59375	no	H	H
1105.46875	n/a	283000	responseLargeH	correct	n/a	0.59375	no	n/a	n/a
1106.542969	n/a	283275	largeTSmallH	correct	incongruent	0.73047	no	T	H
1107.273438	n/a	283462	responseLargeT	correct	n/a	0.73047	no	n/a	n/a
1108.34375	n/a	283736	largeHSmallT	correct	incongruent	0.60156	no	H	T
1108.945312	n/a	283890	responseLargeH	correct	n/a	0.60156	no	n/a	n/a
1110.023438	n/a	284166	largeHSmallH	correct	congruent	0.57812	no	H	H
1110.601562	n/a	284314	responseLargeH	correct	n/a	0.57812	no	n/a	n/a
1111.675781	n/a	284589	largeHSmallT	correct	incongruent	0.58594	no	H	T
1112.261719	n/a	284739	responseLargeH	correct	n/a	0.58594	no	n/a	n/a
1113.328125	n/a	285012	largeHSmallT	correct	incongruent	0.6875	no	H	T
1114.015625	n/a	285188	responseLargeH	correct	n/a	0.6875	no	n/a	n/a
1115.089844	n/a	285463	largeHSmallH	correct	congruent	0.60547	no	H	H
1115.695312	n/a	285618	responseLargeH	correct	n/a	0.60547	no	n/a	n/a
1116.753906	n/a	285889	largeTSmallH	correct	incongruent	0.48047	no	T	H
1117.234375	n/a	286012	responseLargeT	correct	n/a	0.48047	no	n/a	n/a
1118.300781	n/a	286285	largeHSmallT	correct	incongruent	0.42578	no	H	T
1118.726562	n/a	286394	responseLargeH	correct	n/a	0.42578	no	n/a	n/a
1119.808594	n/a	286671	largeTSmallH	correct	incongruent	0.65625	no	T	H
1120.464844	n/a	286839	responseLargeT	correct	n/a	0.65625	no	n/a	n/a
1121.527344	n/a	287111	largeHSmallH	correct	congruent	0.58594	no	H	H
1122.113281	n/a	287261	responseLargeH	correct	n/a	0.58594	no	n/a	n/a
1123.195312	n/a	287538	largeTSmallH	correct	incongruent	0.59375	no	T	H
1123.789062	n/a	287690	responseLargeT	correct	n/a	0.59375	no	n/a	n/a
1124.863281	n/a	287965	largeTSmallH	correct	incongruent	0.63672	no	T	H
1125.5	n/a	288128	responseLargeT	correct	n/a	0.63672	no	n/a	n/a
1126.570312	n/a	288402	largeHSmallT	correct	incongruent	0.47656	no	H	T
1127.046875	n/a	288524	responseLargeH	correct	n/a	0.47656	no	n/a	n/a
1128.113281	n/a	288797	largeHSmallT	correct	incongruent	0.46875	no	H	T
1128.582031	n/a	288917	responseLargeH	correct	n/a	0.46875	no	n/a	n/a
1129.648438	n/a	289190	largeHSmallH	correct	congruent	0.66406	no	H	H
1130.3125	n/a	289360	responseLargeH	correct	n/a	0.66406	no	n/a	n/a
1131.382812	n/a	289634	largeHSmallH	correct	congruent	0.63672	no	H	H
1132.019531	n/a	289797	responseLargeH	correct	n/a	0.63672	no	n/a	n/a
1133.101562	n/a	290074	largeHSmallT	correct	incongruent	0.70703	no	H	T
1133.808594	n/a	290255	responseLargeH	correct	n/a	0.70703	no	n/a	n/a
1134.886719	n/a	290531	largeTSmallH	correct	incongruent	0.53125	no	T	H
1135.417969	n/a	290667	responseLargeT	correct	n/a	0.53125	no	n/a	n/a
1136.488281	n/a	290941	largeHSmallH	correct	congruent	0.5	no	H	H
1136.988281	n/a	291069	responseLargeH	correct	n/a	0.5	no	n/a	n/a
1138.0625	n/a	291344	largeHSmallT	correct	incongruent	0.51562	no	H	T
1138.578125	n/a	291476	responseLargeH	correct	n/a	0.51562	no	n/a	n/a
1139.648438	n/a	291750	largeTSmallT	correct	congruent	0.5	no	T	T
1140.148438	n/a	291878	responseLargeT	correct	n/a	0.5	no	n/a	n/a
1141.222656	n/a	292153	largeHSmallH	correct	congruent	0.55078	no	H	H
1141.773438	n/a	292294	responseLargeH	correct	n/a	0.55078	no	n/a	n/a
1142.847656	n/a	292569	largeTSmallT	correct	congruent	0.77734	no	T	T
1143.625	n/a	292768	responseLargeT	correct	n/a	0.77734	no	n/a	n/a
1144.703125	n/a	293044	largeHSmallT	correct	incongruent	0.72266	no	H	T
1145.425781	n/a	293229	responseLargeH	correct	n/a	0.72266	no	n/a	n/a
1146.5	n/a	293504	largeTSmallT	correct	congruent	0.66016	no	T	T
1147.160156	n/a	293673	responseLargeT	correct	n/a	0.66016	no	n/a	n/a
1148.222656	n/a	293945	largeHSmallT	correct	incongruent	0.79297	no	H	T
1149.015625	n/a	294148	responseLargeH	correct	n/a	0.79297	no	n/a	n/a
1150.085938	n/a	294422	largeTSmallT	correct	congruent	0.77344	no	T	T
1150.859375	n/a	294620	responseLargeT	correct	n/a	0.77344	no	n/a	n/a
1155.074219	n/a	295699	largeTSmallT	correct	congruent	1.918	yes	T	T
1156.992188	n/a	296190	responseSmallT	correct	n/a	1.918	yes	n/a	n/a
1158.074219	n/a	296467	largeTSmallT	correct	congruent	0.73047	no	T	T
1158.804688	n/a	296654	responseSmallT	correct	n/a	0.73047	no	n/a	n/a
1159.875	n/a	296928	largeTSmallT	correct	congruent	0.69141	no	T	T
1160.566406	n/a	297105	responseSmallT	correct	n/a	0.69141	no	n/a	n/a
1161.648438	n/a	297382	largeTSmallT	correct	congruent	0.66406	no	T	T
1162.3125	n/a	297552	responseSmallT	correct	n/a	0.66406	no	n/a	n/a
1163.394531	n/a	297829	largeHSmallT	correct	incongruent	0.64453	no	H	T
1164.039062	n/a	297994	responseSmallT	correct	n/a	0.64453	no	n/a	n/a
1165.101562	n/a	298266	largeHSmallT	correct	incongruent	0.59766	no	H	T
1165.699219	n/a	298419	responseSmallT	correct	n/a	0.59766	no	n/a	n/a
1166.78125	n/a	298696	largeHSmallH	correct	congruent	0.71875	no	H	H
1167.5	n/a	298880	responseSmallH	correct	n/a	0.71875	no	n/a	n/a
1168.566406	n/a	299153	largeHSmallH	correct	congruent	0.82812	no	H	H
1169.394531	n/a	299365	responseSmallH	correct	n/a	0.82812	no	n/a	n/a
1170.472656	n/a	299641	largeTSmallH	correct	incongruent	0.60938	no	T	H
1171.082031	n/a	299797	responseSmallH	correct	n/a	0.60938	no	n/a	n/a
1172.152344	n/a	300071	largeHSmallT	correct	incongruent	0.50391	no	H	T
1172.65625	n/a	300200	responseSmallT	correct	n/a	0.50391	no	n/a	n/a
1173.726562	n/a	300474	largeTSmallT	correct	congruent	0.54297	no	T	T
1174.269531	n/a	300613	responseSmallT	correct	n/a	0.54297	no	n/a	n/a
1175.339844	n/a	300887	largeTSmallT	correct	congruent	0.57031	no	T	T
1175.910156	n/a	301033	responseSmallT	correct	n/a	0.57031	no	n/a	n/a
1176.980469	n/a	301307	largeHSmallH	correct	congruent	0.4375	no	H	H
1177.417969	n/a	301419	responseSmallH	correct	n/a	0.4375	no	n/a	n/a
1178.488281	n/a	301693	largeTSmallH	correct	incongruent	0.5	no	T	H
1178.988281	n/a	301821	responseSmallH	correct	n/a	0.5	no	n/a	n/a
1180.046875	n/a	302092	largeTSmallT	correct	congruent	0.58594	no	T	T
1180.632812	n/a	302242	responseSmallT	correct	n/a	0.58594	no	n/a	n/a
1181.699219	n/a	302515	largeTSmallT	correct	congruent	0.70312	no	T	T
1182.402344	n/a	302695	responseSmallT	correct	n/a	0.70312	no	n/a	n/a
1183.460938	n/a	302966	largeTSmallH	correct	incongruent	0.72656	no	T	H
1184.1875	n/a	303152	responseSmallH	correct	n/a	0.72656	no	n/a	n/a
1185.261719	n/a	303427	largeTSmallT	correct	congruent	0.53516	no	T	T
1185.796875	n/a	303564	responseSmallT	correct	n/a	0.53516	no	n/a	n/a
1186.875	n/a	303840	largeHSmallH	correct	congruent	0.54688	no	H	H
1187.421875	n/a	303980	responseSmallH	correct	n/a	0.54688	no	n/a	n/a
1188.488281	n/a	304253	largeTSmallT	correct	congruent	0.54688	no	T	T
1189.035156	n/a	304393	responseSmallT	correct	n/a	0.54688	no	n/a	n/a
1190.101562	n/a	304666	largeTSmallT	correct	congruent	0.67188	no	T	T
1190.773438	n/a	304838	responseSmallT	correct	n/a	0.67188	no	n/a	n/a
1191.847656	n/a	305113	largeTSmallH	correct	incongruent	0.50781	no	T	H
1192.355469	n/a	305243	responseSmallH	correct	n/a	0.50781	no	n/a	n/a
1193.417969	n/a	305515	largeTSmallT	correct	congruent	0.50781	no	T	T
1193.925781	n/a	305645	responseSmallT	correct	n/a	0.50781	no	n/a	n/a
1194.992188	n/a	305918	largeHSmallH	correct	congruent	0.57812	no	H	H
1195.570312	n/a	306066	responseSmallH	correct	n/a	0.57812	no	n/a	n/a
1196.648438	n/a	306342	largeTSmallH	correct	incongruent	0.57031	no	T	H
1197.21875	n/a	306488	responseSmallH	correct	n/a	0.57031	no	n/a	n/a
1198.285156	n/a	306761	largeTSmallT	correct	congruent	0.6875	no	T	T
1198.972656	n/a	306937	responseSmallT	correct	n/a	0.6875	no	n/a	n/a
1200.046875	n/a	307212	largeTSmallH	correct	incongruent	0.65625	no	T	H
1200.703125	n/a	307380	responseSmallH	correct	n/a	0.65625	no	n/a	n/a
1201.78125	n/a	307656	largeHSmallT	correct	incongruent	0.54297	no	H	T
1202.324219	n/a	307795	responseSmallT	correct	n/a	0.54297	no	n/a	n/a
1203.394531	n/a	308069	largeTSmallH	correct	incongruent	0.69531	no	T	H
1204.089844	n/a	308247	responseSmallH	correct	n/a	0.69531	no	n/a	n/a
1205.167969	n/a	308523	largeTSmallH	correct	incongruent	0.70312	no	T	H
1205.871094	n/a	308703	responseSmallH	correct	n/a	0.70312	no	n/a	n/a
1206.941406	n/a	308977	largeHSmallH	correct	congruent	0.97266	no	H	H
1207.914062	n/a	309226	responseSmallH	correct	n/a	0.97266	no	n/a	n/a
1208.992188	n/a	309502	largeHSmallH	correct	congruent	0.73438	no	H	H
1209.726562	n/a	309690	responseSmallH	correct	n/a	0.73438	no	n/a	n/a
1210.792969	n/a	309963	largeTSmallH	correct	incongruent	0.67969	no	T	H
1211.472656	n/a	310137	responseSmallH	correct	n/a	0.67969	no	n/a	n/a
1212.539062	n/a	310410	largeTSmallH	correct	incongruent	0.76172	no	T	H
1213.300781	n/a	310605	responseSmallH	correct	n/a	0.76172	no	n/a	n/a
1214.367188	n/a	310878	largeTSmallH	correct	incongruent	0.65234	no	T	H
1215.019531	n/a	311045	responseSmallH	correct	n/a	0.65234	no	n/a	n/a
1216.085938	n/a	311318	largeHSmallH	correct	congruent	0.59766	no	H	H
1216.683594	n/a	311471	responseSmallH	correct	n/a	0.59766	no	n/a	n/a
1217.753906	n/a	311745	largeHSmallT	correct	incongruent	0.73828	no	H	T
1218.492188	n/a	311934	responseSmallT	correct	n/a	0.73828	no	n/a	n/a
1219.566406	n/a	312209	largeHSmallT	correct	incongruent	0.92969	no	H	T
1220.496094	n/a	312447	responseSmallT	correct	n/a	0.92969	no	n/a	n/a
1221.566406	n/a	312721	largeHSmallT	correct	incongruent	0.66797	no	H	T
1222.234375	n/a	312892	responseSmallT	correct	n/a	0.66797	no	n/a	n/a
1223.3125	n/a	313168	largeTSmallT	correct	congruent	0.55078	no	T	T
1223.863281	n/a	313309	responseSmallT	correct	n/a	0.55078	no	n/a	n/a
1224.925781	n/a	313581	largeTSmallT	correct	congruent	0.46094	no	T	T
1225.386719	n/a	313699	responseSmallT	correct	n/a	0.46094	no	n/a	n/a
1226.457031	n/a	313973	largeHSmallH	correct	congruent	0.62891	no	H	H
1227.085938	n/a	314134	responseSmallH	correct	n/a	0.62891	no	n/a	n/a
1228.164062	n/a	314410	largeHSmallT	correct	incongruent	0.54688	no	H	T
1228.710938	n/a	314550	responseSmallT	correct	n/a	0.54688	no	n/a	n/a
1229.777344	n/a	314823	largeTSmallT	correct	congruent	0.63281	no	T	T
1230.410156	n/a	314985	responseSmallT	correct	n/a	0.63281	no	n/a	n/a
1231.484375	n/a	315260	largeHSmallT	correct	incongruent	0.81641	no	H	T
1232.300781	n/a	315469	responseSmallT	correct	n/a	0.81641	no	n/a	n/a
1233.378906	n/a	315745	largeTSmallH	correct	incongruent	0.82031	no	T	H
1234.199219	n/a	315955	responseSmallH	correct	n/a	0.82031	no	n/a	n/a
1235.273438	n/a	316230	largeHSmallT	correct	incongruent	0.56641	no	H	T
1235.839844	n/a	316375	responseSmallT	correct	n/a	0.56641	no	n/a	n/a
1236.910156	n/a	316649	largeTSmallT	correct	congruent	0.68359	no	T	T
1237.59375	n/a	316824	responseSmallT	correct	n/a	0.68359	no	n/a	n/a
1238.660156	n/a	317097	largeHSmallH	correct	congruent	0.80859	no	H	H
1239.46875	n/a	317304	responseSmallH	correct	n/a	0.80859	no	n/a	n/a
1240.539062	n/a	317578	largeTSmallH	correct	incongruent	0.75	no	T	H
1241.289062	n/a	317770	responseSmallH	correct	n/a	0.75	no	n/a	n/a
1242.351562	n/a	318042	largeTSmallH	correct	incongruent	0.52344	no	T	H
1242.875	n/a	318176	responseSmallH	correct	n/a	0.52344	no	n/a	n/a
1243.953125	n/a	318452	largeHSmallT	correct	incongruent	0.63281	no	H	T
1244.585938	n/a	318614	responseSmallT	correct	n/a	0.63281	no	n/a	n/a
1245.644531	n/a	318885	largeTSmallH	correct	incongruent	0.625	no	T	H
1246.269531	n/a	319045	responseSmallH	correct	n/a	0.625	no	n/a	n/a
1247.351562	n/a	319322	largeTSmallH	correct	incongruent	0.92969	no	T	H
1248.28125	n/a	319560	responseSmallH	correct	n/a	0.92969	no	n/a	n/a
1249.339844	n/a	319831	largeHSmallH	correct	congruent	0.85938	no	H	H
1250.199219	n/a	320051	responseSmallH	correct	n/a	0.85938	no	n/a	n/a
1251.257812	n/a	320322	largeHSmallT	correct	incongruent	0.52344	no	H	T
1251.78125	n/a	320456	responseSmallT	correct	n/a	0.52344	no	n/a	n/a
1252.859375	n/a	320732	largeTSmallH	correct	incongruent	0.77734	no	T	H
1253.636719	n/a	320931	responseSmallH	correct	n/a	0.77734	no	n/a	n/a
1254.710938	n/a	321206	largeTSmallT	correct	congruent	0.66016	no	T	T
1255.371094	n/a	321375	responseSmallT	correct	n/a	0.66016	no	n/a	n/a
1256.445312	n/a	321650	largeHSmallH	correct	congruent	0.63281	no	H	H
1257.078125	n/a	321812	responseSmallH	correct	n/a	0.63281	no	n/a	n/a
1258.136719	n/a	322083	largeTSmallT	correct	congruent	0.80078	no	T	T
1258.9375	n/a	322288	responseSmallT	correct	n/a	0.80078	no	n/a	n/a
1260.003906	n/a	322561	largeHSmallT	correct	incongruent	1.0352	no	H	T
1261.039062	n/a	322826	responseSmallT	correct	n/a	1.0352	no	n/a	n/a
1262.113281	n/a	323101	largeTSmallH	correct	incongruent	0.67578	no	T	H
1262.789062	n/a	323274	responseSmallH	correct	n/a	0.67578	no	n/a	n/a
1263.859375	n/a	323548	largeHSmallH	correct	congruent	0.77344	no	H	H
1264.632812	n/a	323746	responseSmallH	correct	n/a	0.77344	no	n/a	n/a
1265.699219	n/a	324019	largeHSmallT	correct	incongruent	0.51953	no	H	T
1266.21875	n/a	324152	responseSmallT	correct	n/a	0.51953	no	n/a	n/a
1267.285156	n/a	324425	largeTSmallT	correct	congruent	0.50391	no	T	T
1267.789062	n/a	324554	responseSmallT	correct	n/a	0.50391	no	n/a	n/a
1268.859375	n/a	324828	largeHSmallH	correct	congruent	0.60156	no	H	H
1269.460938	n/a	324982	responseSmallH	correct	n/a	0.60156	no	n/a	n/a
1270.523438	n/a	325254	largeTSmallT	correct	congruent	0.74219	no	T	T
1271.265625	n/a	325444	responseSmallT	correct	n/a	0.74219	no	n/a	n/a
1272.335938	n/a	325718	largeTSmallH	correct	incongruent	0.625	no	T	H
1272.960938	n/a	325878	responseSmallH	correct	n/a	0.625	no	n/a	n/a
1274.042969	n/a	326155	largeHSmallH	correct	congruent	0.75	no	H	H
1274.792969	n/a	326347	responseSmallH	correct	n/a	0.75	no	n/a	n/a
1275.871094	n/a	326623	largeHSmallH	correct	congruent	0.71094	no	H	H
1276.582031	n/a	326805	responseSmallH	correct	n/a	0.71094	no	n/a	n/a
1277.65625	n/a	327080	largeHSmallH	correct	congruent	0.66016	no	H	H
1278.316406	n/a	327249	responseSmallH	correct	n/a	0.66016	no	n/a	n/a
1279.390625	n/a	327524	largeHSmallT	correct	incongruent	0.67578	no	H	T
1280.066406	n/a	327697	responseSmallT	correct	n/a	0.67578	no	n/a	n/a
1281.136719	n/a	327971	largeTSmallH	correct	incongruent	0.69922	no	T	H
1281.835938	n/a	328150	responseSmallH	correct	n/a	0.69922	no	n/a	n/a
1282.898438	n/a	328422	largeTSmallH	correct	incongruent	0.58203	no	T	H
1283.480469	n/a	328571	responseSmallH	correct	n/a	0.58203	no	n/a	n/a
1284.550781	n/a	328845	largeHSmallT	correct	incongruent	0.69922	no	H	T
1285.25	n/a	329024	responseSmallT	correct	n/a	0.69922	no	n/a	n/a
1286.324219	n/a	329299	largeHSmallT	error	incongruent	0.63281	no	H	T
1286.957031	n/a	329461	responseSmallH	error	n/a	0.63281	no	n/a	n/a
1288.03125	n/a	329736	largeTSmallH	correct	incongruent	0.66406	no	T	H
1288.695312	n/a	329906	responseSmallH	correct	n/a	0.66406	no	n/a	n/a
1289.765625	n/a	330180	largeTSmallT	correct	congruent	0.73828	no	T	T
1290.503906	n/a	330369	responseSmallT	correct	n/a	0.73828	no	n/a	n/a
1291.578125	n/a	330644	largeHSmallT	correct	incongruent	0.60156	no	H	T
1292.179688	n/a	330798	responseSmallT	correct	n/a	0.60156	no	n/a	n/a
1293.242188	n/a	331070	largeTSmallT	correct	congruent	0.57422	no	T	T
1293.816406	n/a	331217	responseSmallT	correct	n/a	0.57422	no	n/a	n/a
1294.882812	n/a	331490	largeTSmallT	correct	congruent	0.55859	no	T	T
1295.441406	n/a	331633	responseSmallT	correct	n/a	0.55859	no	n/a	n/a
1296.523438	n/a	331910	largeTSmallT	correct	congruent	0.54688	no	T	T
1297.070312	n/a	332050	responseSmallT	correct	n/a	0.54688	no	n/a	n/a
1298.136719	n/a	332323	largeHSmallH	correct	congruent	0.66406	no	H	H
1298.800781	n/a	332493	responseSmallH	correct	n/a	0.66406	no	n/a	n/a
1299.871094	n/a	332767	largeHSmallT	correct	incongruent	0.62109	no	H	T
1300.492188	n/a	332926	responseSmallT	correct	n/a	0.62109	no	n/a	n/a
1301.550781	n/a	333197	largeTSmallH	correct	incongruent	0.53516	no	T	H
1302.085938	n/a	333334	responseSmallH	correct	n/a	0.53516	no	n/a	n/a
1303.164062	n/a	333610	largeTSmallT	correct	congruent	0.6875	no	T	T
1303.851562	n/a	333786	responseSmallT	correct	n/a	0.6875	no	n/a	n/a
1304.921875	n/a	334060	largeHSmallT	correct	incongruent	0.72266	no	H	T
1305.644531	n/a	334245	responseSmallT	correct	n/a	0.72266	no	n/a	n/a
1306.710938	n/a	334518	largeHSmallT	correct	incongruent	0.59766	no	H	T
1307.308594	n/a	334671	responseSmallT	correct	n/a	0.59766	no	n/a	n/a
1308.375	n/a	334944	largeTSmallH	correct	incongruent	0.80078	no	T	H
1309.175781	n/a	335149	responseSmallH	correct	n/a	0.80078	no	n/a	n/a
1310.242188	n/a	335422	largeTSmallH	correct	incongruent	0.58594	no	T	H
1310.828125	n/a	335572	responseSmallH	correct	n/a	0.58594	no	n/a	n/a
1311.898438	n/a	335846	largeHSmallT	correct	incongruent	0.47266	no	H	T
1312.371094	n/a	335967	responseSmallT	correct	n/a	0.47266	no	n/a	n/a
1313.441406	n/a	336241	largeHSmallH	correct	congruent	0.52734	no	H	H
1313.96875	n/a	336376	responseSmallH	correct	n/a	0.52734	no	n/a	n/a
1315.042969	n/a	336651	largeHSmallH	correct	congruent	0.60156	no	H	H
1315.644531	n/a	336805	responseSmallH	correct	n/a	0.60156	no	n/a	n/a
1316.710938	n/a	337078	largeTSmallT	correct	congruent	0.55078	no	T	T
1317.261719	n/a	337219	responseSmallT	correct	n/a	0.55078	no	n/a	n/a
1318.335938	n/a	337494	largeHSmallH	correct	congruent	0.78906	no	H	H
1319.125	n/a	337696	responseSmallH	correct	n/a	0.78906	no	n/a	n/a
1320.203125	n/a	337972	largeTSmallT	correct	congruent	0.89062	no	T	T
1321.09375	n/a	338200	responseSmallT	correct	n/a	0.89062	no	n/a	n/a
1322.164062	n/a	338474	largeTSmallT	correct	congruent	0.58594	no	T	T
1322.75	n/a	338624	responseSmallT	correct	n/a	0.58594	no	n/a	n/a
1323.816406	n/a	338897	largeHSmallH	correct	congruent	0.44922	no	H	H
1324.265625	n/a	339012	responseSmallH	correct	n/a	0.44922	no	n/a	n/a
1325.335938	n/a	339286	largeHSmallT	correct	incongruent	0.6875	no	H	T
1326.023438	n/a	339462	responseSmallT	correct	n/a	0.6875	no	n/a	n/a
1327.097656	n/a	339737	largeHSmallH	correct	congruent	0.60938	no	H	H
1327.707031	n/a	339893	responseSmallH	correct	n/a	0.60938	no	n/a	n/a
1328.777344	n/a	340167	largeHSmallT	correct	incongruent	0.53125	no	H	T
1329.308594	n/a	340303	responseSmallT	correct	n/a	0.53125	no	n/a	n/a
1330.375	n/a	340576	largeTSmallT	error	congruent	0.63672	no	T	T
1331.011719	n/a	340739	responseSmallH	error	n/a	0.63672	no	n/a	n/a
1332.082031	n/a	341013	largeHSmallH	correct	congruent	0.67188	no	H	H
1332.753906	n/a	341185	responseSmallH	correct	n/a	0.67188	no	n/a	n/a
1333.816406	n/a	341457	largeHSmallT	correct	incongruent	0.54297	no	H	T
1334.359375	n/a	341596	responseSmallT	correct	n/a	0.54297	no	n/a	n/a
1335.429688	n/a	341870	largeHSmallH	correct	congruent	0.64453	no	H	H
1336.074219	n/a	342035	responseSmallH	correct	n/a	0.64453	no	n/a	n/a
1337.148438	n/a	342310	largeTSmallH	correct	incongruent	0.55078	no	T	H
1337.699219	n/a	342451	responseSmallH	correct	n/a	0.55078	no	n/a	n/a
1338.761719	n/a	342723	largeTSmallT	correct	congruent	0.54688	no	T	T
1339.308594	n/a	342863	responseSmallT	correct	n/a	0.54688	no	n/a	n/a
1340.390625	n/a	343140	largeHSmallH	correct	congruent	0.76953	no	H	H
1341.160156	n/a	343337	responseSmallH	correct	n/a	0.76953	no	n/a	n/a
1342.230469	n/a	343611	largeHSmallT	correct	incongruent	0.70312	no	H	T
1342.933594	n/a	343791	responseSmallT	correct	n/a	0.70312	no	n/a	n/a
1344.003906	n/a	344065	largeHSmallH	correct	congruent	0.69141	no	H	H
1344.695312	n/a	344242	responseSmallH	correct	n/a	0.69141	no	n/a	n/a
1345.761719	n/a	344515	largeHSmallH	correct	congruent	0.67578	no	H	H
1346.4375	n/a	344688	responseSmallH	correct	n/a	0.67578	no	n/a	n/a
1347.507812	n/a	344962	largeHSmallH	correct	congruent	0.625	no	H	H
1348.132812	n/a	345122	responseSmallH	correct	n/a	0.625	no	n/a	n/a
1349.203125	n/a	345396	largeHSmallT	correct	incongruent	0.60547	no	H	T
1349.808594	n/a	345551	responseSmallT	correct	n/a	0.60547	no	n/a	n/a
1350.882812	n/a	345826	largeTSmallT	correct	congruent	0.72656	no	T	T
1351.609375	n/a	346012	responseSmallT	correct	n/a	0.72656	no	n/a	n/a
1352.683594	n/a	346287	largeHSmallT	correct	incongruent	0.54297	no	H	T
1353.226562	n/a	346426	responseSmallT	correct	n/a	0.54297	no	n/a	n/a
1354.308594	n/a	346703	largeHSmallT	correct	incongruent	0.69531	no	H	T
1355.003906	n/a	346881	responseSmallT	correct	n/a	0.69531	no	n/a	n/a
1356.082031	n/a	347157	largeHSmallT	correct	incongruent	0.62109	no	H	T
1356.703125	n/a	347316	responseSmallT	correct	n/a	0.62109	no	n/a	n/a
1357.777344	n/a	347591	largeHSmallT	correct	incongruent	0.41406	no	H	T
1358.191406	n/a	347697	responseSmallT	correct	n/a	0.41406	no	n/a	n/a
1359.257812	n/a	347970	largeHSmallH	correct	congruent	0.87891	no	H	H
1360.136719	n/a	348195	responseSmallH	correct	n/a	0.87891	no	n/a	n/a
1361.214844	n/a	348471	largeHSmallT	correct	incongruent	0.67188	no	H	T
1361.886719	n/a	348643	responseSmallT	correct	n/a	0.67188	no	n/a	n/a
1362.960938	n/a	348918	largeHSmallT	correct	incongruent	0.74609	no	H	T
1363.707031	n/a	349109	responseSmallT	correct	n/a	0.74609	no	n/a	n/a
1364.773438	n/a	349382	largeTSmallT	correct	congruent	0.5625	no	T	T
1365.335938	n/a	349526	responseSmallT	correct	n/a	0.5625	no	n/a	n/a
1366.414062	n/a	349802	largeTSmallT	correct	congruent	0.51953	no	T	T
1366.933594	n/a	349935	responseSmallT	correct	n/a	0.51953	no	n/a	n/a
1368	n/a	350208	largeHSmallT	correct	incongruent	0.4375	no	H	T
1368.4375	n/a	350320	responseSmallT	correct	n/a	0.4375	no	n/a	n/a
1369.507812	n/a	350594	largeTSmallH	correct	incongruent	0.6875	no	T	H
1370.195312	n/a	350770	responseSmallH	correct	n/a	0.6875	no	n/a	n/a
1371.253906	n/a	351041	largeTSmallH	correct	incongruent	0.62891	no	T	H
1371.882812	n/a	351202	responseSmallH	correct	n/a	0.62891	no	n/a	n/a
1372.949219	n/a	351475	largeTSmallH	correct	incongruent	0.54297	no	T	H
1373.492188	n/a	351614	responseSmallH	correct	n/a	0.54297	no	n/a	n/a
1374.5625	n/a	351888	largeTSmallH	correct	incongruent	0.59766	no	T	H
1375.160156	n/a	352041	responseSmallH	correct	n/a	0.59766	no	n/a	n/a
1376.242188	n/a	352318	largeTSmallH	correct	incongruent	0.64062	no	T	H
