onset	duration	sample	value	response_type	congruence	response_time	response_out_of_range	largeletter	smallletter
20.51171875	n/a	5251	largeTSmallT	correct	congruent	1.6836	yes	T	T
22.1953125	n/a	5682	responseLargeT	correct	n/a	1.6836	yes	n/a	n/a
23.26953125	n/a	5957	largeTSmallH	error	incongruent	1.3047	no	T	H
24.57421875	n/a	6291	responseLargeH	error	n/a	1.3047	no	n/a	n/a
25.64453125	n/a	6565	largeHSmallH	correct	congruent	1.0664	no	H	H
26.7109375	n/a	6838	responseLargeH	correct	n/a	1.0664	no	n/a	n/a
27.77734375	n/a	7111	largeHSmallT	error	incongruent	1.3516	no	H	T
29.12890625	n/a	7457	responseLargeT	error	n/a	1.3516	no	n/a	n/a
30.19140625	n/a	7729	largeTSmallH	correct	incongruent	1.4961	no	T	H
31.6875	n/a	8112	responseLargeT	correct	n/a	1.4961	no	n/a	n/a
32.75	n/a	8384	largeHSmallT	correct	incongruent	1.2383	no	H	T
33.98828125	n/a	8701	responseLargeH	correct	n/a	1.2383	no	n/a	n/a
35.05859375	n/a	8975	largeHSmallH	correct	congruent	1.5	no	H	H
36.55859375	n/a	9359	responseLargeH	correct	n/a	1.5	no	n/a	n/a
37.62890625	n/a	9633	largeTSmallT	correct	congruent	0.75	no	T	T
38.37890625	n/a	9825	responseLargeT	correct	n/a	0.75	no	n/a	n/a
39.4453125	n/a	10098	largeHSmallT	correct	incongruent	0.67188	no	H	T
40.1171875	n/a	10270	responseLargeH	correct	n/a	0.67188	no	n/a	n/a
41.19140625	n/a	10545	largeHSmallT	correct	incongruent	0.92188	no	H	T
42.11328125	n/a	10781	responseLargeH	correct	n/a	0.92188	no	n/a	n/a
43.19140625	n/a	11057	largeHSmallT	correct	incongruent	0.91016	no	H	T
44.1015625	n/a	11290	responseLargeH	correct	n/a	0.91016	no	n/a	n/a
45.1640625	n/a	11562	largeTSmallH	correct	incongruent	0.70312	no	T	H
45.8671875	n/a	11742	responseLargeT	correct	n/a	0.70312	no	n/a	n/a
46.9375	n/a	12016	largeHSmallT	correct	incongruent	1.5273	yes	H	T
48.46484375	n/a	12407	responseLargeH	correct	n/a	1.5273	yes	n/a	n/a
49.53515625	n/a	12681	largeTSmallT	correct	congruent	0.64844	no	T	T
50.18359375	n/a	12847	responseLargeT	correct	n/a	0.64844	no	n/a	n/a
51.2578125	n/a	13122	largeHSmallT	correct	incongruent	0.83594	no	H	T
52.09375	n/a	13336	responseLargeH	correct	n/a	0.83594	no	n/a	n/a
53.1484375	n/a	13606	largeTSmallH	correct	incongruent	0.65625	no	T	H
53.8046875	n/a	13774	responseLargeT	correct	n/a	0.65625	no	n/a	n/a
54.87109375	n/a	14047	largeHSmallH	correct	congruent	0.69922	no	H	H
55.5703125	n/a	14226	responseLargeH	correct	n/a	0.69922	no	n/a	n/a
56.64453125	n/a	14501	largeTSmallT	correct	congruent	0.66406	no	T	T
57.30859375	n/a	14671	responseLargeT	correct	n/a	0.66406	no	n/a	n/a
58.390625	n/a	14948	largeHSmallT	correct	incongruent	1.3867	no	H	T
59.77734375	n/a	15303	responseLargeH	correct	n/a	1.3867	no	n/a	n/a
60.84375	n/a	15576	largeTSmallT	correct	congruent	0.71875	no	T	T
61.5625	n/a	15760	responseLargeT	correct	n/a	0.71875	no	n/a	n/a
62.62890625	n/a	16033	largeHSmallT	correct	incongruent	0.73438	no	H	T
63.36328125	n/a	16221	responseLargeH	correct	n/a	0.73438	no	n/a	n/a
64.44140625	n/a	16497	largeHSmallT	correct	incongruent	0.70312	no	H	T
65.14453125	n/a	16677	responseLargeH	correct	n/a	0.70312	no	n/a	n/a
66.21484375	n/a	16951	largeTSmallH	correct	incongruent	0.76562	no	T	H
66.98046875	n/a	17147	responseLargeT	correct	n/a	0.76562	no	n/a	n/a
68.0546875	n/a	17422	largeTSmallH	correct	incongruent	0.84766	no	T	H
68.90234375	n/a	17639	responseLargeT	correct	n/a	0.84766	no	n/a	n/a
69.9765625	n/a	17914	largeTSmallT	correct	congruent	0.71484	no	T	T
70.69140625	n/a	18097	responseLargeT	correct	n/a	0.71484	no	n/a	n/a
71.75	n/a	18368	largeTSmallT	correct	congruent	0.65625	no	T	T
72.40625	n/a	18536	responseLargeT	correct	n/a	0.65625	no	n/a	n/a
73.484375	n/a	18812	largeTSmallH	correct	incongruent	0.77344	no	T	H
74.2578125	n/a	19010	responseLargeT	correct	n/a	0.77344	no	n/a	n/a
75.32421875	n/a	19283	largeHSmallT	correct	incongruent	0.69531	no	H	T
76.01953125	n/a	19461	responseLargeH	correct	n/a	0.69531	no	n/a	n/a
77.08203125	n/a	19733	largeTSmallH	correct	incongruent	0.82422	no	T	H
77.90625	n/a	19944	responseLargeT	correct	n/a	0.82422	no	n/a	n/a
78.9765625	n/a	20218	largeHSmallH	correct	congruent	0.66016	no	H	H
79.63671875	n/a	20387	responseLargeH	correct	n/a	0.66016	no	n/a	n/a
80.7109375	n/a	20662	largeHSmallT	correct	incongruent	0.83203	no	H	T
81.54296875	n/a	20875	responseLargeH	correct	n/a	0.83203	no	n/a	n/a
82.6015625	n/a	21146	largeTSmallH	correct	incongruent	0.58203	no	T	H
83.18359375	n/a	21295	responseLargeT	correct	n/a	0.58203	no	n/a	n/a
84.26953125	n/a	21573	largeHSmallT	correct	incongruent	0.67969	no	H	T
84.94921875	n/a	21747	responseLargeH	correct	n/a	0.67969	no	n/a	n/a
86.02734375	n/a	22023	largeHSmallT	correct	incongruent	0.64453	no	H	T
86.671875	n/a	22188	responseLargeH	correct	n/a	0.64453	no	n/a	n/a
87.75	n/a	22464	largeHSmallH	correct	congruent	0.80469	no	H	H
88.5546875	n/a	22670	responseLargeH	correct	n/a	0.80469	no	n/a	n/a
89.62890625	n/a	22945	largeTSmallT	correct	congruent	0.60156	no	T	T
90.23046875	n/a	23099	responseLargeT	correct	n/a	0.60156	no	n/a	n/a
91.296875	n/a	23372	largeTSmallH	correct	incongruent	0.69531	no	T	H
91.9921875	n/a	23550	responseLargeT	correct	n/a	0.69531	no	n/a	n/a
93.0546875	n/a	23822	largeTSmallH	correct	incongruent	0.65234	no	T	H
93.70703125	n/a	23989	responseLargeT	correct	n/a	0.65234	no	n/a	n/a
94.77734375	n/a	24263	largeHSmallH	correct	congruent	0.61719	no	H	H
95.39453125	n/a	24421	responseLargeH	correct	n/a	0.61719	no	n/a	n/a
96.46875	n/a	24696	largeHSmallT	correct	incongruent	0.70312	no	H	T
97.171875	n/a	24876	responseLargeH	correct	n/a	0.70312	no	n/a	n/a
98.2421875	n/a	25150	largeTSmallH	correct	incongruent	0.61719	no	T	H
98.859375	n/a	25308	responseLargeT	correct	n/a	0.61719	no	n/a	n/a
99.921875	n/a	25580	largeHSmallH	correct	congruent	0.60156	no	H	H
100.5234375	n/a	25734	responseLargeH	correct	n/a	0.60156	no	n/a	n/a
101.6015625	n/a	26010	largeHSmallT	error	incongruent	0.57031	no	H	T
102.171875	n/a	26156	responseLargeT	error	n/a	0.57031	no	n/a	n/a
103.2421875	n/a	26430	largeHSmallH	correct	congruent	0.52734	no	H	H
103.7695312	n/a	26565	responseLargeH	correct	n/a	0.52734	no	n/a	n/a
104.84375	n/a	26840	largeHSmallH	correct	congruent	0.63281	no	H	H
105.4765625	n/a	27002	responseLargeH	correct	n/a	0.63281	no	n/a	n/a
106.5625	n/a	27280	largeHSmallH	correct	congruent	0.59766	no	H	H
107.1601562	n/a	27433	responseLargeH	correct	n/a	0.59766	no	n/a	n/a
108.2304688	n/a	27707	largeTSmallT	correct	congruent	0.58203	no	T	T
108.8125	n/a	27856	responseLargeT	correct	n/a	0.58203	no	n/a	n/a
109.8828125	n/a	28130	largeHSmallT	correct	incongruent	0.70703	no	H	T
110.5898438	n/a	28311	responseLargeH	correct	n/a	0.70703	no	n/a	n/a
111.65625	n/a	28584	largeTSmallH	correct	incongruent	1	no	T	H
112.65625	n/a	28840	responseLargeT	correct	n/a	1	no	n/a	n/a
113.734375	n/a	29116	largeHSmallT	correct	incongruent	0.82422	no	H	T
114.5585938	n/a	29327	responseLargeH	correct	n/a	0.82422	no	n/a	n/a
115.6132812	n/a	29597	largeHSmallT	correct	incongruent	0.61719	no	H	T
116.2304688	n/a	29755	responseLargeH	correct	n/a	0.61719	no	n/a	n/a
117.3085938	n/a	30031	largeTSmallH	correct	incongruent	0.74609	no	T	H
118.0546875	n/a	30222	responseLargeT	correct	n/a	0.74609	no	n/a	n/a
119.1367188	n/a	30499	largeTSmallT	correct	congruent	0.61328	no	T	T
119.75	n/a	30656	responseLargeT	correct	n/a	0.61328	no	n/a	n/a
120.8164062	n/a	30929	largeHSmallH	correct	congruent	0.53516	no	H	H
121.3515625	n/a	31066	responseLargeH	correct	n/a	0.53516	no	n/a	n/a
122.4296875	n/a	31342	largeHSmallT	correct	incongruent	0.57812	no	H	T
123.0078125	n/a	31490	responseLargeH	correct	n/a	0.57812	no	n/a	n/a
124.0664062	n/a	31761	largeTSmallT	correct	congruent	0.58594	no	T	T
124.6523438	n/a	31911	responseLargeT	correct	n/a	0.58594	no	n/a	n/a
125.734375	n/a	32188	largeHSmallT	error	incongruent	0.58594	no	H	T
126.3203125	n/a	32338	responseLargeT	error	n/a	0.58594	no	n/a	n/a
127.4023438	n/a	32615	largeTSmallT	correct	congruent	0.67969	no	T	T
128.0820312	n/a	32789	responseLargeT	correct	n/a	0.67969	no	n/a	n/a
129.1601562	n/a	33065	largeHSmallH	correct	congruent	0.65625	no	H	H
129.8164062	n/a	33233	responseLargeH	correct	n/a	0.65625	no	n/a	n/a
130.8945312	n/a	33509	largeTSmallH	correct	incongruent	0.69531	no	T	H
131.5898438	n/a	33687	responseLargeT	correct	n/a	0.69531	no	n/a	n/a
132.65625	n/a	33960	largeTSmallT	correct	congruent	0.65625	no	T	T
133.3125	n/a	34128	responseLargeT	correct	n/a	0.65625	no	n/a	n/a
134.3867188	n/a	34403	largeTSmallH	correct	incongruent	0.66016	no	T	H
135.046875	n/a	34572	responseLargeT	correct	n/a	0.66016	no	n/a	n/a
136.1210938	n/a	34847	largeHSmallT	correct	incongruent	0.67969	no	H	T
136.8007812	n/a	35021	responseLargeH	correct	n/a	0.67969	no	n/a	n/a
137.8671875	n/a	35294	largeHSmallH	correct	congruent	0.59766	no	H	H
138.4648438	n/a	35447	responseLargeH	correct	n/a	0.59766	no	n/a	n/a
139.5351562	n/a	35721	largeHSmallT	correct	incongruent	0.62109	no	H	T
140.15625	n/a	35880	responseLargeH	correct	n/a	0.62109	no	n/a	n/a
141.2265625	n/a	36154	largeTSmallH	correct	incongruent	0.5625	no	T	H
141.7890625	n/a	36298	responseLargeT	correct	n/a	0.5625	no	n/a	n/a
142.8554688	n/a	36571	largeTSmallT	correct	congruent	0.75781	no	T	T
143.6132812	n/a	36765	responseLargeT	correct	n/a	0.75781	no	n/a	n/a
144.6796875	n/a	37038	largeHSmallH	correct	congruent	0.62109	no	H	H
145.3007812	n/a	37197	responseLargeH	correct	n/a	0.62109	no	n/a	n/a
146.359375	n/a	37468	largeHSmallH	correct	congruent	0.53906	no	H	H
146.8984375	n/a	37606	responseLargeH	correct	n/a	0.53906	no	n/a	n/a
147.9726562	n/a	37881	largeHSmallT	correct	incongruent	0.66016	no	H	T
148.6328125	n/a	38050	responseLargeH	correct	n/a	0.66016	no	n/a	n/a
149.7070312	n/a	38325	largeHSmallH	correct	congruent	0.66797	no	H	H
150.375	n/a	38496	responseLargeH	correct	n/a	0.66797	no	n/a	n/a
151.453125	n/a	38772	largeHSmallH	correct	congruent	0.69922	no	H	H
152.1523438	n/a	38951	responseLargeH	correct	n/a	0.69922	no	n/a	n/a
153.2148438	n/a	39223	largeHSmallH	correct	congruent	0.60938	no	H	H
153.8242188	n/a	39379	responseLargeH	correct	n/a	0.60938	no	n/a	n/a
154.8945312	n/a	39653	largeHSmallH	correct	congruent	0.77344	no	H	H
155.6679688	n/a	39851	responseLargeH	correct	n/a	0.77344	no	n/a	n/a
156.7460938	n/a	40127	largeHSmallT	error	incongruent	0.77734	no	H	T
157.5234375	n/a	40326	responseLargeT	error	n/a	0.77734	no	n/a	n/a
158.6015625	n/a	40602	largeTSmallT	correct	congruent	0.58594	no	T	T
159.1875	n/a	40752	responseLargeT	correct	n/a	0.58594	no	n/a	n/a
160.2539062	n/a	41025	largeTSmallT	correct	congruent	0.5625	no	T	T
160.8164062	n/a	41169	responseLargeT	correct	n/a	0.5625	no	n/a	n/a
161.8945312	n/a	41445	largeTSmallH	error	incongruent	0.56641	no	T	H
162.4609375	n/a	41590	responseLargeH	error	n/a	0.56641	no	n/a	n/a
163.5351562	n/a	41865	largeTSmallT	correct	congruent	0.57031	no	T	T
164.1054688	n/a	42011	responseLargeT	correct	n/a	0.57031	no	n/a	n/a
165.1757812	n/a	42285	largeTSmallT	correct	congruent	0.48438	no	T	T
165.6601562	n/a	42409	responseLargeT	correct	n/a	0.48438	no	n/a	n/a
166.71875	n/a	42680	largeHSmallT	correct	incongruent	0.49219	no	H	T
167.2109375	n/a	42806	responseLargeH	correct	n/a	0.49219	no	n/a	n/a
168.28125	n/a	43080	largeTSmallT	correct	congruent	0.47656	no	T	T
168.7578125	n/a	43202	responseLargeT	correct	n/a	0.47656	no	n/a	n/a
169.828125	n/a	43476	largeTSmallT	correct	congruent	0.39844	no	T	T
170.2265625	n/a	43578	responseLargeT	correct	n/a	0.39844	no	n/a	n/a
171.2929688	n/a	43851	largeHSmallT	correct	incongruent	0.43359	no	H	T
171.7265625	n/a	43962	responseLargeH	correct	n/a	0.43359	no	n/a	n/a
172.8007812	n/a	44237	largeTSmallH	correct	incongruent	0.46094	no	T	H
173.2617188	n/a	44355	responseLargeT	correct	n/a	0.46094	no	n/a	n/a
174.3320312	n/a	44629	largeHSmallT	correct	incongruent	0.39453	no	H	T
174.7265625	n/a	44730	responseLargeH	correct	n/a	0.39453	no	n/a	n/a
175.8007812	n/a	45005	largeTSmallT	correct	congruent	0.39844	no	T	T
176.1992188	n/a	45107	responseLargeT	correct	n/a	0.39844	no	n/a	n/a
177.265625	n/a	45380	largeTSmallT	correct	congruent	0.49609	no	T	T
177.7617188	n/a	45507	responseLargeT	correct	n/a	0.49609	no	n/a	n/a
178.828125	n/a	45780	largeHSmallT	correct	incongruent	0.52344	no	H	T
179.3515625	n/a	45914	responseLargeH	correct	n/a	0.52344	no	n/a	n/a
180.4257812	n/a	46189	largeTSmallT	correct	congruent	0.44922	no	T	T
180.875	n/a	46304	responseLargeT	correct	n/a	0.44922	no	n/a	n/a
181.9453125	n/a	46578	largeTSmallH	correct	incongruent	0.57031	no	T	H
182.515625	n/a	46724	responseLargeT	correct	n/a	0.57031	no	n/a	n/a
183.5859375	n/a	46998	largeHSmallT	correct	incongruent	0.61328	no	H	T
184.1992188	n/a	47155	responseLargeH	correct	n/a	0.61328	no	n/a	n/a
185.28125	n/a	47432	largeHSmallH	error	congruent	0.42188	no	H	H
185.703125	n/a	47540	responseLargeT	error	n/a	0.42188	no	n/a	n/a
186.7734375	n/a	47814	largeTSmallT	correct	congruent	0.55859	no	T	T
187.3320312	n/a	47957	responseLargeT	correct	n/a	0.55859	no	n/a	n/a
188.4140625	n/a	48234	largeHSmallH	correct	congruent	0.52344	no	H	H
188.9375	n/a	48368	responseLargeH	correct	n/a	0.52344	no	n/a	n/a
190	n/a	48640	largeTSmallH	correct	incongruent	0.53125	no	T	H
190.53125	n/a	48776	responseLargeT	correct	n/a	0.53125	no	n/a	n/a
191.6132812	n/a	49053	largeHSmallT	correct	incongruent	0.46094	no	H	T
192.0742188	n/a	49171	responseLargeH	correct	n/a	0.46094	no	n/a	n/a
193.1484375	n/a	49446	largeTSmallH	correct	incongruent	0.53516	no	T	H
193.6835938	n/a	49583	responseLargeT	correct	n/a	0.53516	no	n/a	n/a
194.7578125	n/a	49858	largeTSmallH	correct	incongruent	0.60938	no	T	H
195.3671875	n/a	50014	responseLargeT	correct	n/a	0.60938	no	n/a	n/a
196.4414062	n/a	50289	largeHSmallH	correct	congruent	0.65625	no	H	H
197.0976562	n/a	50457	responseLargeH	correct	n/a	0.65625	no	n/a	n/a
198.171875	n/a	50732	largeTSmallT	correct	congruent	0.66406	no	T	T
198.8359375	n/a	50902	responseLargeT	correct	n/a	0.66406	no	n/a	n/a
199.90625	n/a	51176	largeHSmallT	correct	incongruent	0.63281	no	H	T
200.5390625	n/a	51338	responseLargeH	correct	n/a	0.63281	no	n/a	n/a
201.6132812	n/a	51613	largeTSmallH	correct	incongruent	0.58203	no	T	H
202.1953125	n/a	51762	responseLargeT	correct	n/a	0.58203	no	n/a	n/a
203.265625	n/a	52036	largeTSmallH	correct	incongruent	0.80469	no	T	H
204.0703125	n/a	52242	responseLargeT	correct	n/a	0.80469	no	n/a	n/a
205.1445312	n/a	52517	largeHSmallH	correct	congruent	0.44531	no	H	H
205.5898438	n/a	52631	responseLargeH	correct	n/a	0.44531	no	n/a	n/a
206.6679688	n/a	52907	largeTSmallT	correct	congruent	0.43359	no	T	T
207.1015625	n/a	53018	responseLargeT	correct	n/a	0.43359	no	n/a	n/a
208.171875	n/a	53292	largeTSmallH	correct	incongruent	0.51172	no	T	H
208.6835938	n/a	53423	responseLargeT	correct	n/a	0.51172	no	n/a	n/a
209.7460938	n/a	53695	largeTSmallH	correct	incongruent	0.44141	no	T	H
210.1875	n/a	53808	responseLargeT	correct	n/a	0.44141	no	n/a	n/a
211.265625	n/a	54084	largeTSmallH	correct	incongruent	0.48047	no	T	H
211.7460938	n/a	54207	responseLargeT	correct	n/a	0.48047	no	n/a	n/a
212.8242188	n/a	54483	largeTSmallT	correct	congruent	0.53125	no	T	T
213.3554688	n/a	54619	responseLargeT	correct	n/a	0.53125	no	n/a	n/a
214.4257812	n/a	54893	largeHSmallT	correct	incongruent	0.56641	no	H	T
214.9921875	n/a	55038	responseLargeH	correct	n/a	0.56641	no	n/a	n/a
216.0664062	n/a	55313	largeHSmallH	correct	congruent	0.57812	no	H	H
216.6445312	n/a	55461	responseLargeH	correct	n/a	0.57812	no	n/a	n/a
217.71875	n/a	55736	largeTSmallH	error	incongruent	0.69531	no	T	H
218.4140625	n/a	55914	responseLargeH	error	n/a	0.69531	no	n/a	n/a
219.4921875	n/a	56190	largeTSmallH	correct	incongruent	0.68359	no	T	H
220.1757812	n/a	56365	responseLargeT	correct	n/a	0.68359	no	n/a	n/a
221.2539062	n/a	56641	largeTSmallT	correct	congruent	0.46484	no	T	T
221.71875	n/a	56760	responseLargeT	correct	n/a	0.46484	no	n/a	n/a
222.7851562	n/a	57033	largeHSmallH	correct	congruent	0.44141	no	H	H
223.2265625	n/a	57146	responseLargeH	correct	n/a	0.44141	no	n/a	n/a
224.3046875	n/a	57422	largeHSmallH	correct	congruent	0.5625	no	H	H
224.8671875	n/a	57566	responseLargeH	correct	n/a	0.5625	no	n/a	n/a
225.9453125	n/a	57842	largeTSmallT	correct	congruent	0.49609	no	T	T
226.4414062	n/a	57969	responseLargeT	correct	n/a	0.49609	no	n/a	n/a
227.5195312	n/a	58245	largeTSmallH	correct	incongruent	0.42188	no	T	H
227.9414062	n/a	58353	responseLargeT	correct	n/a	0.42188	no	n/a	n/a
229.0117188	n/a	58627	largeTSmallT	correct	congruent	0.55078	no	T	T
229.5625	n/a	58768	responseLargeT	correct	n/a	0.55078	no	n/a	n/a
230.640625	n/a	59044	largeHSmallT	correct	incongruent	0.53516	no	H	T
231.1757812	n/a	59181	responseLargeH	correct	n/a	0.53516	no	n/a	n/a
232.2539062	n/a	59457	largeHSmallT	correct	incongruent	0.62891	no	H	T
232.8828125	n/a	59618	responseLargeH	correct	n/a	0.62891	no	n/a	n/a
233.9453125	n/a	59890	largeTSmallH	correct	incongruent	0.82422	no	T	H
234.7695312	n/a	60101	responseLargeT	correct	n/a	0.82422	no	n/a	n/a
235.8398438	n/a	60375	largeTSmallH	correct	incongruent	0.625	no	T	H
236.4648438	n/a	60535	responseLargeT	correct	n/a	0.625	no	n/a	n/a
237.53125	n/a	60808	largeTSmallT	correct	congruent	0.60547	no	T	T
238.1367188	n/a	60963	responseLargeT	correct	n/a	0.60547	no	n/a	n/a
239.1992188	n/a	61235	largeTSmallT	correct	congruent	0.5625	no	T	T
239.7617188	n/a	61379	responseLargeT	correct	n/a	0.5625	no	n/a	n/a
240.8242188	n/a	61651	largeTSmallH	correct	incongruent	0.76953	no	T	H
241.59375	n/a	61848	responseLargeT	correct	n/a	0.76953	no	n/a	n/a
242.6640625	n/a	62122	largeTSmallH	correct	incongruent	0.66016	no	T	H
243.3242188	n/a	62291	responseLargeT	correct	n/a	0.66016	no	n/a	n/a
244.3984375	n/a	62566	largeHSmallH	correct	congruent	0.68359	no	H	H
245.0820312	n/a	62741	responseLargeH	correct	n/a	0.68359	no	n/a	n/a
246.1445312	n/a	63013	largeTSmallT	error	congruent	0.42578	no	T	T
246.5703125	n/a	63122	responseLargeH	error	n/a	0.42578	no	n/a	n/a
247.6367188	n/a	63395	largeTSmallT	correct	congruent	0.57422	no	T	T
248.2109375	n/a	63542	responseLargeT	correct	n/a	0.57422	no	n/a	n/a
249.2773438	n/a	63815	largeHSmallH	correct	congruent	0.60547	no	H	H
249.8828125	n/a	63970	responseLargeH	correct	n/a	0.60547	no	n/a	n/a
250.9453125	n/a	64242	largeHSmallH	correct	congruent	0.69922	no	H	H
251.6445312	n/a	64421	responseLargeH	correct	n/a	0.69922	no	n/a	n/a
252.71875	n/a	64696	largeTSmallT	correct	congruent	1.4141	no	T	T
254.1328125	n/a	65058	responseLargeT	correct	n/a	1.4141	no	n/a	n/a
255.2109375	n/a	65334	largeTSmallH	correct	incongruent	0.91797	no	T	H
256.1289062	n/a	65569	responseLargeT	correct	n/a	0.91797	no	n/a	n/a
257.2109375	n/a	65846	largeTSmallH	correct	incongruent	0.48438	no	T	H
257.6953125	n/a	65970	responseLargeT	correct	n/a	0.48438	no	n/a	n/a
258.7734375	n/a	66246	largeTSmallH	correct	incongruent	0.44922	no	T	H
259.2226562	n/a	66361	responseLargeT	correct	n/a	0.44922	no	n/a	n/a
260.2929688	n/a	66635	largeHSmallH	correct	congruent	0.45703	no	H	H
260.75	n/a	66752	responseLargeH	correct	n/a	0.45703	no	n/a	n/a
261.8242188	n/a	67027	largeTSmallH	correct	incongruent	0.5625	no	T	H
262.3867188	n/a	67171	responseLargeT	correct	n/a	0.5625	no	n/a	n/a
263.4648438	n/a	67447	largeHSmallH	correct	congruent	0.53906	no	H	H
264.0039062	n/a	67585	responseLargeH	correct	n/a	0.53906	no	n/a	n/a
265.0664062	n/a	67857	largeTSmallT	correct	congruent	0.98047	no	T	T
266.046875	n/a	68108	responseLargeT	correct	n/a	0.98047	no	n/a	n/a
267.1171875	n/a	68382	largeHSmallH	correct	congruent	0.59375	no	H	H
267.7109375	n/a	68534	responseLargeH	correct	n/a	0.59375	no	n/a	n/a
268.7851562	n/a	68809	largeHSmallH	correct	congruent	0.60547	no	H	H
269.390625	n/a	68964	responseLargeH	correct	n/a	0.60547	no	n/a	n/a
270.4648438	n/a	69239	largeHSmallH	correct	congruent	0.51953	no	H	H
270.984375	n/a	69372	responseLargeH	correct	n/a	0.51953	no	n/a	n/a
272.0507812	n/a	69645	largeHSmallT	correct	incongruent	1.0391	no	H	T
273.0898438	n/a	69911	responseLargeH	correct	n/a	1.0391	no	n/a	n/a
274.15625	n/a	70184	largeTSmallT	correct	congruent	0.66016	no	T	T
274.8164062	n/a	70353	responseLargeT	correct	n/a	0.66016	no	n/a	n/a
275.8789062	n/a	70625	largeHSmallT	correct	incongruent	0.54688	no	H	T
276.4257812	n/a	70765	responseLargeH	correct	n/a	0.54688	no	n/a	n/a
277.5039062	n/a	71041	largeTSmallT	correct	congruent	0.45703	no	T	T
277.9609375	n/a	71158	responseLargeT	correct	n/a	0.45703	no	n/a	n/a
279.0234375	n/a	71430	largeTSmallT	correct	congruent	0.63281	no	T	T
279.65625	n/a	71592	responseLargeT	correct	n/a	0.63281	no	n/a	n/a
280.7304688	n/a	71867	largeHSmallT	correct	incongruent	0.48047	no	H	T
281.2109375	n/a	71990	responseLargeH	correct	n/a	0.48047	no	n/a	n/a
282.2773438	n/a	72263	largeHSmallT	correct	incongruent	0.48828	no	H	T
282.765625	n/a	72388	responseLargeH	correct	n/a	0.48828	no	n/a	n/a
283.8359375	n/a	72662	largeTSmallH	correct	incongruent	0.47656	no	T	H
284.3125	n/a	72784	responseLargeT	correct	n/a	0.47656	no	n/a	n/a
285.3828125	n/a	73058	largeHSmallT	correct	incongruent	0.44141	no	H	T
285.8242188	n/a	73171	responseLargeH	correct	n/a	0.44141	no	n/a	n/a
286.890625	n/a	73444	largeHSmallT	correct	incongruent	0.5625	no	H	T
287.453125	n/a	73588	responseLargeH	correct	n/a	0.5625	no	n/a	n/a
288.515625	n/a	73860	largeHSmallH	error	congruent	0.41016	no	H	H
288.9257812	n/a	73965	responseLargeT	error	n/a	0.41016	no	n/a	n/a
289.9960938	n/a	74239	largeHSmallH	correct	congruent	0.46875	no	H	H
290.4648438	n/a	74359	responseLargeH	correct	n/a	0.46875	no	n/a	n/a
291.5429688	n/a	74635	largeTSmallH	correct	incongruent	0.46094	no	T	H
292.0039062	n/a	74753	responseLargeT	correct	n/a	0.46094	no	n/a	n/a
293.078125	n/a	75028	largeTSmallH	correct	incongruent	0.54688	no	T	H
293.625	n/a	75168	responseLargeT	correct	n/a	0.54688	no	n/a	n/a
294.6914062	n/a	75441	largeTSmallH	correct	incongruent	0.44922	no	T	H
295.140625	n/a	75556	responseLargeT	correct	n/a	0.44922	no	n/a	n/a
296.2109375	n/a	75830	largeTSmallH	correct	incongruent	0.42578	no	T	H
296.6367188	n/a	75939	responseLargeT	correct	n/a	0.42578	no	n/a	n/a
297.703125	n/a	76212	largeTSmallT	correct	congruent	0.44922	no	T	T
298.1523438	n/a	76327	responseLargeT	correct	n/a	0.44922	no	n/a	n/a
299.2226562	n/a	76601	largeHSmallT	correct	incongruent	0.41797	no	H	T
299.640625	n/a	76708	responseLargeH	correct	n/a	0.41797	no	n/a	n/a
300.71875	n/a	76984	largeTSmallH	error	incongruent	0.47656	no	T	H
301.1953125	n/a	77106	responseLargeH	error	n/a	0.47656	no	n/a	n/a
302.2773438	n/a	77383	largeHSmallT	error	incongruent	0.42578	no	H	T
302.703125	n/a	77492	responseLargeT	error	n/a	0.42578	no	n/a	n/a
303.7695312	n/a	77765	largeHSmallH	correct	congruent	0.40234	no	H	H
304.171875	n/a	77868	responseLargeH	correct	n/a	0.40234	no	n/a	n/a
305.2382812	n/a	78141	largeHSmallT	correct	incongruent	0.64844	no	H	T
305.8867188	n/a	78307	responseLargeH	correct	n/a	0.64844	no	n/a	n/a
306.9570312	n/a	78581	largeTSmallH	correct	incongruent	0.41797	no	T	H
307.375	n/a	78688	responseLargeT	correct	n/a	0.41797	no	n/a	n/a
308.4492188	n/a	78963	largeTSmallT	correct	congruent	0.54297	no	T	T
308.9921875	n/a	79102	responseLargeT	correct	n/a	0.54297	no	n/a	n/a
310.0625	n/a	79376	largeHSmallH	correct	congruent	0.57031	no	H	H
310.6328125	n/a	79522	responseLargeH	correct	n/a	0.57031	no	n/a	n/a
311.71875	n/a	79800	largeHSmallH	correct	congruent	0.54297	no	H	H
312.2617188	n/a	79939	responseLargeH	correct	n/a	0.54297	no	n/a	n/a
313.3320312	n/a	80213	largeHSmallT	error	incongruent	0.58203	no	H	T
313.9140625	n/a	80362	responseLargeT	error	n/a	0.58203	no	n/a	n/a
314.984375	n/a	80636	largeTSmallH	correct	incongruent	0.50781	no	T	H
315.4921875	n/a	80766	responseLargeT	correct	n/a	0.50781	no	n/a	n/a
316.5703125	n/a	81042	largeHSmallH	correct	congruent	0.53125	no	H	H
317.1015625	n/a	81178	responseLargeH	correct	n/a	0.53125	no	n/a	n/a
318.171875	n/a	81452	largeTSmallT	correct	congruent	0.55469	no	T	T
318.7265625	n/a	81594	responseLargeT	correct	n/a	0.55469	no	n/a	n/a
319.796875	n/a	81868	largeHSmallH	correct	congruent	0.58984	no	H	H
320.3867188	n/a	82019	responseLargeH	correct	n/a	0.58984	no	n/a	n/a
321.4648438	n/a	82295	largeTSmallT	correct	congruent	0.67578	no	T	T
322.140625	n/a	82468	responseLargeT	correct	n/a	0.67578	no	n/a	n/a
323.2109375	n/a	82742	largeHSmallT	correct	incongruent	0.59375	no	H	T
323.8046875	n/a	82894	responseLargeH	correct	n/a	0.59375	no	n/a	n/a
324.875	n/a	83168	largeHSmallH	correct	congruent	0.76953	no	H	H
325.6445312	n/a	83365	responseLargeH	correct	n/a	0.76953	no	n/a	n/a
326.7148438	n/a	83639	largeTSmallT	correct	congruent	1.1055	no	T	T
327.8203125	n/a	83922	responseLargeT	correct	n/a	1.1055	no	n/a	n/a
328.890625	n/a	84196	largeTSmallH	correct	incongruent	0.5	no	T	H
329.390625	n/a	84324	responseLargeT	correct	n/a	0.5	no	n/a	n/a
330.4648438	n/a	84599	largeHSmallH	correct	congruent	0.5	no	H	H
330.9648438	n/a	84727	responseLargeH	correct	n/a	0.5	no	n/a	n/a
332.0351562	n/a	85001	largeHSmallH	correct	congruent	0.62109	no	H	H
332.65625	n/a	85160	responseLargeH	correct	n/a	0.62109	no	n/a	n/a
333.7304688	n/a	85435	largeHSmallH	correct	congruent	0.65234	no	H	H
334.3828125	n/a	85602	responseLargeH	correct	n/a	0.65234	no	n/a	n/a
335.4492188	n/a	85875	largeHSmallH	correct	congruent	0.60156	no	H	H
336.0507812	n/a	86029	responseLargeH	correct	n/a	0.60156	no	n/a	n/a
337.1289062	n/a	86305	largeHSmallH	correct	congruent	1.0859	no	H	H
338.2148438	n/a	86583	responseLargeH	correct	n/a	1.0859	no	n/a	n/a
339.2773438	n/a	86855	largeHSmallT	correct	incongruent	1.0859	no	H	T
340.3632812	n/a	87133	responseLargeH	correct	n/a	1.0859	no	n/a	n/a
341.4375	n/a	87408	largeHSmallH	correct	congruent	0.53906	no	H	H
341.9765625	n/a	87546	responseLargeH	correct	n/a	0.53906	no	n/a	n/a
343.0507812	n/a	87821	largeTSmallT	correct	congruent	0.39453	no	T	T
343.4453125	n/a	87922	responseLargeT	correct	n/a	0.39453	no	n/a	n/a
344.515625	n/a	88196	largeTSmallT	correct	congruent	0.41797	no	T	T
344.9335938	n/a	88303	responseLargeT	correct	n/a	0.41797	no	n/a	n/a
345.9960938	n/a	88575	largeHSmallT	correct	incongruent	0.48438	no	H	T
346.4804688	n/a	88699	responseLargeH	correct	n/a	0.48438	no	n/a	n/a
347.5429688	n/a	88971	largeHSmallH	correct	congruent	0.51562	no	H	H
348.0585938	n/a	89103	responseLargeH	correct	n/a	0.51562	no	n/a	n/a
349.140625	n/a	89380	largeTSmallT	error	congruent	0.67578	no	T	T
349.8164062	n/a	89553	responseLargeH	error	n/a	0.67578	no	n/a	n/a
350.890625	n/a	89828	largeTSmallH	correct	incongruent	0.52734	no	T	H
351.4179688	n/a	89963	responseLargeT	correct	n/a	0.52734	no	n/a	n/a
352.4882812	n/a	90237	largeTSmallH	correct	incongruent	0.56641	no	T	H
353.0546875	n/a	90382	responseLargeT	correct	n/a	0.56641	no	n/a	n/a
354.1289062	n/a	90657	largeHSmallT	error	incongruent	0.90625	no	H	T
355.0351562	n/a	90889	responseLargeT	error	n/a	0.90625	no	n/a	n/a
356.1171875	n/a	91166	largeHSmallT	correct	incongruent	0.80859	no	H	T
356.9257812	n/a	91373	responseLargeH	correct	n/a	0.80859	no	n/a	n/a
357.9960938	n/a	91647	largeHSmallH	correct	congruent	0.51562	no	H	H
358.5117188	n/a	91779	responseLargeH	correct	n/a	0.51562	no	n/a	n/a
359.59375	n/a	92056	largeTSmallT	correct	congruent	0.60938	no	T	T
360.203125	n/a	92212	responseLargeT	correct	n/a	0.60938	no	n/a	n/a
361.2773438	n/a	92487	largeTSmallT	correct	congruent	0.60156	no	T	T
361.8789062	n/a	92641	responseLargeT	correct	n/a	0.60156	no	n/a	n/a
362.9414062	n/a	92913	largeTSmallT	correct	congruent	0.67188	no	T	T
363.6132812	n/a	93085	responseLargeT	correct	n/a	0.67188	no	n/a	n/a
377.8632812	n/a	96733	largeHSmallT	correct	incongruent	1.7188	yes	H	T
379.5820312	n/a	97173	responseSmallT	correct	n/a	1.7188	yes	n/a	n/a
380.6484375	n/a	97446	largeTSmallT	correct	congruent	0.79688	no	T	T
381.4453125	n/a	97650	responseSmallT	correct	n/a	0.79688	no	n/a	n/a
382.515625	n/a	97924	largeTSmallT	correct	congruent	0.55859	no	T	T
383.0742188	n/a	98067	responseSmallT	correct	n/a	0.55859	no	n/a	n/a
384.140625	n/a	98340	largeHSmallH	correct	congruent	0.53516	no	H	H
384.6757812	n/a	98477	responseSmallH	correct	n/a	0.53516	no	n/a	n/a
385.7539062	n/a	98753	largeHSmallT	correct	incongruent	0.67969	no	H	T
386.4335938	n/a	98927	responseSmallT	correct	n/a	0.67969	no	n/a	n/a
387.5	n/a	99200	largeHSmallH	correct	congruent	0.90234	no	H	H
388.4023438	n/a	99431	responseSmallH	correct	n/a	0.90234	no	n/a	n/a
389.4765625	n/a	99706	largeHSmallT	correct	incongruent	0.59375	no	H	T
390.0703125	n/a	99858	responseSmallT	correct	n/a	0.59375	no	n/a	n/a
391.140625	n/a	100132	largeTSmallT	error	congruent	0.57812	no	T	T
391.71875	n/a	100280	responseSmallH	error	n/a	0.57812	no	n/a	n/a
392.78125	n/a	100552	largeHSmallH	correct	congruent	0.74219	no	H	H
393.5234375	n/a	100742	responseSmallH	correct	n/a	0.74219	no	n/a	n/a
394.59375	n/a	101016	largeHSmallT	correct	incongruent	0.5625	no	H	T
395.15625	n/a	101160	responseSmallT	correct	n/a	0.5625	no	n/a	n/a
396.234375	n/a	101436	largeTSmallT	correct	congruent	0.77344	no	T	T
397.0078125	n/a	101634	responseSmallT	correct	n/a	0.77344	no	n/a	n/a
398.0742188	n/a	101907	largeHSmallT	correct	incongruent	0.68359	no	H	T
398.7578125	n/a	102082	responseSmallT	correct	n/a	0.68359	no	n/a	n/a
399.8359375	n/a	102358	largeHSmallT	correct	incongruent	0.56641	no	H	T
400.4023438	n/a	102503	responseSmallT	correct	n/a	0.56641	no	n/a	n/a
401.4765625	n/a	102778	largeTSmallT	correct	congruent	0.58203	no	T	T
402.0585938	n/a	102927	responseSmallT	error	n/a	1.582	yes	n/a	n/a
403.640625	n/a	103332	responseSmallH	error	n/a	1.582	yes	n/a	n/a
404.6992188	n/a	103603	largeTSmallH	correct	incongruent	0.64844	no	T	H
405.3476562	n/a	103769	responseSmallH	correct	n/a	0.64844	no	n/a	n/a
406.421875	n/a	104044	largeHSmallT	correct	incongruent	0.58984	no	H	T
407.0117188	n/a	104195	responseSmallT	correct	n/a	0.58984	no	n/a	n/a
408.0859375	n/a	104470	largeTSmallT	correct	congruent	0.63672	no	T	T
408.7226562	n/a	104633	responseSmallT	correct	n/a	0.63672	no	n/a	n/a
409.7929688	n/a	104907	largeTSmallH	correct	incongruent	0.70312	no	T	H
410.4960938	n/a	105087	responseSmallH	correct	n/a	0.70312	no	n/a	n/a
411.5664062	n/a	105361	largeTSmallT	correct	congruent	0.53516	no	T	T
412.1015625	n/a	105498	responseSmallT	correct	n/a	0.53516	no	n/a	n/a
413.1796875	n/a	105774	largeTSmallT	correct	congruent	0.58594	no	T	T
413.765625	n/a	105924	responseSmallT	correct	n/a	0.58594	no	n/a	n/a
414.8476562	n/a	106201	largeTSmallH	correct	incongruent	0.625	no	T	H
415.4726562	n/a	106361	responseSmallH	correct	n/a	0.625	no	n/a	n/a
416.5390625	n/a	106634	largeTSmallT	correct	congruent	0.68359	no	T	T
417.2226562	n/a	106809	responseSmallT	correct	n/a	0.68359	no	n/a	n/a
418.2890625	n/a	107082	largeHSmallH	correct	congruent	0.69531	no	H	H
418.984375	n/a	107260	responseSmallH	correct	n/a	0.69531	no	n/a	n/a
420.0625	n/a	107536	largeHSmallT	correct	incongruent	0.71484	no	H	T
420.7773438	n/a	107719	responseSmallT	correct	n/a	0.71484	no	n/a	n/a
421.8476562	n/a	107993	largeHSmallH	correct	congruent	0.69141	no	H	H
422.5390625	n/a	108170	responseSmallH	correct	n/a	0.69141	no	n/a	n/a
423.6054688	n/a	108443	largeTSmallH	correct	incongruent	0.83984	no	T	H
424.4453125	n/a	108658	responseSmallH	correct	n/a	0.83984	no	n/a	n/a
425.515625	n/a	108932	largeHSmallT	correct	incongruent	0.49219	no	H	T
426.0078125	n/a	109058	responseSmallT	correct	n/a	0.49219	no	n/a	n/a
427.0742188	n/a	109331	largeHSmallH	correct	congruent	0.78516	no	H	H
427.859375	n/a	109532	responseSmallH	correct	n/a	0.78516	no	n/a	n/a
428.9257812	n/a	109805	largeTSmallH	error	incongruent	0.60156	no	T	H
429.5273438	n/a	109959	responseSmallT	error	n/a	0.60156	no	n/a	n/a
430.59375	n/a	110232	largeHSmallT	correct	incongruent	1.1484	no	H	T
431.7421875	n/a	110526	responseSmallT	correct	n/a	1.1484	no	n/a	n/a
432.8203125	n/a	110802	largeHSmallT	correct	incongruent	0.56641	no	H	T
433.3867188	n/a	110947	responseSmallT	correct	n/a	0.56641	no	n/a	n/a
434.4609375	n/a	111222	largeTSmallT	correct	congruent	0.47656	no	T	T
434.9375	n/a	111344	responseSmallT	correct	n/a	0.47656	no	n/a	n/a
436.0195312	n/a	111621	largeTSmallT	correct	congruent	0.47656	no	T	T
436.4960938	n/a	111743	responseSmallT	correct	n/a	0.47656	no	n/a	n/a
437.5664062	n/a	112017	largeHSmallH	correct	congruent	0.60938	no	H	H
438.1757812	n/a	112173	responseSmallH	correct	n/a	0.60938	no	n/a	n/a
439.2460938	n/a	112447	largeTSmallT	correct	congruent	0.70703	no	T	T
439.953125	n/a	112628	responseSmallT	correct	n/a	0.70703	no	n/a	n/a
441.0195312	n/a	112901	largeTSmallH	correct	incongruent	0.72656	no	T	H
441.7460938	n/a	113087	responseSmallH	correct	n/a	0.72656	no	n/a	n/a
442.8203125	n/a	113362	largeHSmallH	correct	congruent	0.63672	no	H	H
443.4570312	n/a	113525	responseSmallH	correct	n/a	0.63672	no	n/a	n/a
444.5273438	n/a	113799	largeTSmallH	correct	incongruent	0.47266	no	T	H
445	n/a	113920	responseSmallH	correct	n/a	0.47266	no	n/a	n/a
446.0742188	n/a	114195	largeTSmallT	correct	congruent	0.60547	no	T	T
446.6796875	n/a	114350	responseSmallT	correct	n/a	0.60547	no	n/a	n/a
447.7382812	n/a	114621	largeHSmallH	correct	congruent	0.53516	no	H	H
448.2734375	n/a	114758	responseSmallH	correct	n/a	0.53516	no	n/a	n/a
449.3398438	n/a	115031	largeTSmallT	correct	congruent	0.46875	no	T	T
449.8085938	n/a	115151	responseSmallT	correct	n/a	0.46875	no	n/a	n/a
450.8867188	n/a	115427	largeTSmallT	correct	congruent	0.61328	no	T	T
451.5	n/a	115584	responseSmallT	correct	n/a	0.61328	no	n/a	n/a
452.5664062	n/a	115857	largeTSmallH	correct	incongruent	1.7266	yes	T	H
454.2929688	n/a	116299	responseSmallH	correct	n/a	1.7266	yes	n/a	n/a
455.3515625	n/a	116570	largeHSmallT	correct	incongruent	0.44141	no	H	T
455.7929688	n/a	116683	responseSmallT	correct	n/a	0.44141	no	n/a	n/a
456.875	n/a	116960	largeTSmallH	correct	incongruent	0.51953	no	T	H
457.3945312	n/a	117093	responseSmallH	correct	n/a	0.51953	no	n/a	n/a
458.4609375	n/a	117366	largeTSmallT	correct	congruent	0.40625	no	T	T
458.8671875	n/a	117470	responseSmallT	correct	n/a	0.40625	no	n/a	n/a
459.9414062	n/a	117745	largeHSmallT	error	incongruent	0.60547	no	H	T
460.546875	n/a	117900	responseSmallH	error	n/a	0.60547	no	n/a	n/a
461.6054688	n/a	118171	largeTSmallT	correct	congruent	0.75781	no	T	T
462.3632812	n/a	118365	responseSmallT	correct	n/a	0.75781	no	n/a	n/a
463.4335938	n/a	118639	largeHSmallT	correct	incongruent	0.62109	no	H	T
464.0546875	n/a	118798	responseSmallT	correct	n/a	0.62109	no	n/a	n/a
465.125	n/a	119072	largeHSmallH	correct	congruent	0.66406	no	H	H
465.7890625	n/a	119242	responseSmallH	correct	n/a	0.66406	no	n/a	n/a
466.859375	n/a	119516	largeTSmallT	correct	congruent	0.52344	no	T	T
467.3828125	n/a	119650	responseSmallT	correct	n/a	0.52344	no	n/a	n/a
468.4609375	n/a	119926	largeTSmallH	correct	incongruent	0.55078	no	T	H
469.0117188	n/a	120067	responseSmallH	correct	n/a	0.55078	no	n/a	n/a
470.0859375	n/a	120342	largeHSmallH	error	congruent	0.39453	no	H	H
470.4804688	n/a	120443	responseSmallT	error	n/a	0.39453	no	n/a	n/a
471.5546875	n/a	120718	largeTSmallH	correct	incongruent	0.48828	no	T	H
472.0429688	n/a	120843	responseSmallH	correct	n/a	0.48828	no	n/a	n/a
473.1132812	n/a	121117	largeHSmallT	correct	incongruent	0.52734	no	H	T
473.640625	n/a	121252	responseSmallT	correct	n/a	0.52734	no	n/a	n/a
474.7109375	n/a	121526	largeTSmallT	correct	congruent	0.44141	no	T	T
475.1523438	n/a	121639	responseSmallT	correct	n/a	0.44141	no	n/a	n/a
476.234375	n/a	121916	largeHSmallH	correct	congruent	0.59375	no	H	H
476.828125	n/a	122068	responseSmallH	correct	n/a	0.59375	no	n/a	n/a
477.8984375	n/a	122342	largeTSmallH	correct	incongruent	0.53516	no	T	H
478.4335938	n/a	122479	responseSmallH	correct	n/a	0.53516	no	n/a	n/a
479.5117188	n/a	122755	largeHSmallH	correct	congruent	0.60938	no	H	H
480.1210938	n/a	122911	responseSmallH	correct	n/a	0.60938	no	n/a	n/a
481.1914062	n/a	123185	largeTSmallT	correct	congruent	0.65625	no	T	T
481.8476562	n/a	123353	responseSmallT	correct	n/a	0.65625	no	n/a	n/a
482.9257812	n/a	123629	largeTSmallH	correct	incongruent	2.0938	yes	T	H
485.0195312	n/a	124165	responseSmallH	correct	n/a	2.0938	yes	n/a	n/a
486.0859375	n/a	124438	largeHSmallT	correct	incongruent	0.41406	no	H	T
486.5	n/a	124544	responseSmallT	correct	n/a	0.41406	no	n/a	n/a
487.5664062	n/a	124817	largeHSmallH	correct	congruent	0.5625	no	H	H
488.1289062	n/a	124961	responseSmallH	correct	n/a	0.5625	no	n/a	n/a
489.1914062	n/a	125233	largeTSmallT	correct	congruent	0.59375	no	T	T
489.7851562	n/a	125385	responseSmallT	correct	n/a	0.59375	no	n/a	n/a
490.84375	n/a	125656	largeHSmallT	error	incongruent	0.44141	no	H	T
491.2851562	n/a	125769	responseSmallH	error	n/a	0.44141	no	n/a	n/a
492.3671875	n/a	126046	largeHSmallT	correct	incongruent	0.53516	no	H	T
492.9023438	n/a	126183	responseSmallT	correct	n/a	0.53516	no	n/a	n/a
493.9648438	n/a	126455	largeHSmallH	correct	congruent	0.53516	no	H	H
494.5	n/a	126592	responseSmallH	correct	n/a	0.53516	no	n/a	n/a
495.578125	n/a	126868	largeHSmallH	correct	congruent	0.54688	no	H	H
496.125	n/a	127008	responseSmallH	correct	n/a	0.54688	no	n/a	n/a
497.1914062	n/a	127281	largeTSmallT	correct	congruent	0.56641	no	T	T
497.7578125	n/a	127426	responseSmallT	correct	n/a	0.56641	no	n/a	n/a
498.8320312	n/a	127701	largeHSmallH	correct	congruent	0.4375	no	H	H
499.2695312	n/a	127813	responseSmallH	correct	n/a	0.4375	no	n/a	n/a
500.3398438	n/a	128087	largeHSmallT	correct	incongruent	0.46094	no	H	T
500.8007812	n/a	128205	responseSmallT	correct	n/a	0.46094	no	n/a	n/a
501.8710938	n/a	128479	largeTSmallH	correct	incongruent	0.86328	no	T	H
502.734375	n/a	128700	responseSmallH	correct	n/a	0.86328	no	n/a	n/a
503.8046875	n/a	128974	largeHSmallT	correct	incongruent	0.75391	no	H	T
504.5585938	n/a	129167	responseSmallT	correct	n/a	0.75391	no	n/a	n/a
505.6328125	n/a	129442	largeTSmallT	correct	congruent	0.50781	no	T	T
506.140625	n/a	129572	responseSmallT	correct	n/a	0.50781	no	n/a	n/a
507.21875	n/a	129848	largeTSmallH	correct	incongruent	0.56641	no	T	H
507.7851562	n/a	129993	responseSmallH	correct	n/a	0.56641	no	n/a	n/a
508.84375	n/a	130264	largeHSmallT	correct	incongruent	0.625	no	H	T
509.46875	n/a	130424	responseSmallT	correct	n/a	0.625	no	n/a	n/a
510.5390625	n/a	130698	largeHSmallH	correct	congruent	0.48438	no	H	H
511.0234375	n/a	130822	responseSmallH	correct	n/a	0.48438	no	n/a	n/a
512.0976562	n/a	131097	largeHSmallT	correct	incongruent	0.59766	no	H	T
512.6953125	n/a	131250	responseSmallT	correct	n/a	0.59766	no	n/a	n/a
513.765625	n/a	131524	largeTSmallH	correct	incongruent	0.47656	no	T	H
514.2421875	n/a	131646	responseSmallH	correct	n/a	0.47656	no	n/a	n/a
515.3125	n/a	131920	largeHSmallT	correct	incongruent	0.71094	no	H	T
516.0234375	n/a	132102	responseSmallT	correct	n/a	0.71094	no	n/a	n/a
517.1132812	n/a	132381	largeTSmallT	correct	congruent	0.62109	no	T	T
517.734375	n/a	132540	responseSmallT	correct	n/a	0.62109	no	n/a	n/a
518.8046875	n/a	132814	largeTSmallT	correct	congruent	0.48438	no	T	T
519.2890625	n/a	132938	responseSmallT	correct	n/a	0.48438	no	n/a	n/a
520.3632812	n/a	133213	largeTSmallT	correct	congruent	0.53906	no	T	T
520.9023438	n/a	133351	responseSmallT	correct	n/a	0.53906	no	n/a	n/a
521.9648438	n/a	133623	largeTSmallH	correct	incongruent	0.70703	no	T	H
522.671875	n/a	133804	responseSmallH	correct	n/a	0.70703	no	n/a	n/a
523.75	n/a	134080	largeHSmallH	correct	congruent	0.58594	no	H	H
524.3359375	n/a	134230	responseSmallH	correct	n/a	0.58594	no	n/a	n/a
525.40625	n/a	134504	largeHSmallT	correct	incongruent	0.85547	no	H	T
526.2617188	n/a	134723	responseSmallT	correct	n/a	0.85547	no	n/a	n/a
527.3398438	n/a	134999	largeTSmallH	correct	incongruent	0.80078	no	T	H
528.140625	n/a	135204	responseSmallH	correct	n/a	0.80078	no	n/a	n/a
529.203125	n/a	135476	largeTSmallT	correct	congruent	0.61719	no	T	T
529.8203125	n/a	135634	responseSmallT	correct	n/a	0.61719	no	n/a	n/a
530.8984375	n/a	135910	largeHSmallH	correct	congruent	0.67969	no	H	H
531.578125	n/a	136084	responseSmallH	correct	n/a	0.67969	no	n/a	n/a
532.65625	n/a	136360	largeTSmallH	correct	incongruent	0.48047	no	T	H
533.1367188	n/a	136483	responseSmallH	correct	n/a	0.48047	no	n/a	n/a
534.203125	n/a	136756	largeTSmallH	correct	incongruent	0.46484	no	T	H
534.6679688	n/a	136875	responseSmallH	correct	n/a	0.46484	no	n/a	n/a
535.75	n/a	137152	largeTSmallH	correct	incongruent	0.44531	no	T	H
536.1953125	n/a	137266	responseSmallH	correct	n/a	0.44531	no	n/a	n/a
537.2695312	n/a	137541	largeHSmallT	correct	incongruent	0.48047	no	H	T
537.75	n/a	137664	responseSmallT	correct	n/a	0.48047	no	n/a	n/a
538.8164062	n/a	137937	largeTSmallH	correct	incongruent	0.625	no	T	H
539.4414062	n/a	138097	responseSmallH	correct	n/a	0.625	no	n/a	n/a
540.5234375	n/a	138374	largeTSmallT	correct	congruent	1.1719	no	T	T
541.6953125	n/a	138674	responseSmallT	correct	n/a	1.1719	no	n/a	n/a
542.765625	n/a	138948	largeTSmallH	correct	incongruent	0.35547	no	T	H
543.1210938	n/a	139039	responseSmallH	correct	n/a	0.35547	no	n/a	n/a
544.1914062	n/a	139313	largeTSmallT	error	congruent	0.58594	no	T	T
544.7773438	n/a	139463	responseSmallH	error	n/a	0.58594	no	n/a	n/a
545.859375	n/a	139740	largeTSmallH	correct	incongruent	0.58594	no	T	H
546.4453125	n/a	139890	responseSmallH	correct	n/a	0.58594	no	n/a	n/a
547.5117188	n/a	140163	largeHSmallT	correct	incongruent	0.53516	no	H	T
548.046875	n/a	140300	responseSmallT	correct	n/a	0.53516	no	n/a	n/a
549.109375	n/a	140572	largeHSmallT	correct	incongruent	0.47266	no	H	T
549.5820312	n/a	140693	responseSmallT	correct	n/a	0.47266	no	n/a	n/a
550.65625	n/a	140968	largeHSmallH	correct	congruent	0.48438	no	H	H
551.140625	n/a	141092	responseSmallH	correct	n/a	0.48438	no	n/a	n/a
552.21875	n/a	141368	largeTSmallT	correct	congruent	0.52734	no	T	T
552.7460938	n/a	141503	responseSmallT	correct	n/a	0.52734	no	n/a	n/a
553.8164062	n/a	141777	largeTSmallT	correct	congruent	0.62109	no	T	T
554.4375	n/a	141936	responseSmallT	correct	n/a	0.62109	no	n/a	n/a
555.5117188	n/a	142211	largeTSmallT	correct	congruent	0.5	no	T	T
556.0117188	n/a	142339	responseSmallT	correct	n/a	0.5	no	n/a	n/a
557.0820312	n/a	142613	largeHSmallH	correct	congruent	0.67578	no	H	H
557.7578125	n/a	142786	responseSmallH	correct	n/a	0.67578	no	n/a	n/a
558.8320312	n/a	143061	largeTSmallH	error	incongruent	1.7109	yes	T	H
560.5429688	n/a	143499	responseSmallT	error	n/a	1.7109	yes	n/a	n/a
561.6054688	n/a	143771	largeHSmallH	correct	congruent	0.49609	no	H	H
562.1015625	n/a	143898	responseSmallH	correct	n/a	0.49609	no	n/a	n/a
563.1640625	n/a	144170	largeTSmallT	correct	congruent	0.55469	no	T	T
563.71875	n/a	144312	responseSmallT	correct	n/a	0.55469	no	n/a	n/a
564.7890625	n/a	144586	largeHSmallT	error	incongruent	0.48828	no	H	T
565.2773438	n/a	144711	responseSmallH	error	n/a	0.48828	no	n/a	n/a
566.3515625	n/a	144986	largeTSmallH	error	incongruent	1.2812	no	T	H
567.6328125	n/a	145314	responseSmallT	error	n/a	1.2812	no	n/a	n/a
568.7109375	n/a	145590	largeTSmallT	correct	congruent	1.3242	no	T	T
570.0351562	n/a	145929	responseSmallT	correct	n/a	1.3242	no	n/a	n/a
571.109375	n/a	146204	largeHSmallH	correct	congruent	0.44531	no	H	H
571.5546875	n/a	146318	responseSmallH	correct	n/a	0.44531	no	n/a	n/a
572.6171875	n/a	146590	largeTSmallH	correct	incongruent	0.57031	no	T	H
573.1875	n/a	146736	responseSmallH	correct	n/a	0.57031	no	n/a	n/a
574.2578125	n/a	147010	largeTSmallH	correct	incongruent	0.50391	no	T	H
574.7617188	n/a	147139	responseSmallH	correct	n/a	0.50391	no	n/a	n/a
575.8320312	n/a	147413	largeHSmallH	correct	congruent	0.63672	no	H	H
576.46875	n/a	147576	responseSmallH	correct	n/a	0.63672	no	n/a	n/a
577.5351562	n/a	147849	largeHSmallT	correct	incongruent	0.61328	no	H	T
578.1484375	n/a	148006	responseSmallT	correct	n/a	0.61328	no	n/a	n/a
579.2304688	n/a	148283	largeHSmallH	correct	congruent	0.71094	no	H	H
579.9414062	n/a	148465	responseSmallH	correct	n/a	0.71094	no	n/a	n/a
581.015625	n/a	148740	largeHSmallH	correct	congruent	0.51172	no	H	H
581.5273438	n/a	148871	responseSmallH	correct	n/a	0.51172	no	n/a	n/a
582.5898438	n/a	149143	largeTSmallH	correct	incongruent	0.49609	no	T	H
583.0859375	n/a	149270	responseSmallH	correct	n/a	0.49609	no	n/a	n/a
584.1484375	n/a	149542	largeHSmallT	correct	incongruent	0.51562	no	H	T
584.6640625	n/a	149674	responseSmallT	correct	n/a	0.51562	no	n/a	n/a
585.75	n/a	149952	largeTSmallT	correct	congruent	0.53516	no	T	T
586.2851562	n/a	150089	responseSmallT	correct	n/a	0.53516	no	n/a	n/a
587.3515625	n/a	150362	largeHSmallH	correct	congruent	0.44141	no	H	H
587.7929688	n/a	150475	responseSmallH	correct	n/a	0.44141	no	n/a	n/a
588.8710938	n/a	150751	largeHSmallH	correct	congruent	0.54688	no	H	H
589.4179688	n/a	150891	responseSmallH	correct	n/a	0.54688	no	n/a	n/a
590.484375	n/a	151164	largeTSmallH	correct	incongruent	0.57031	no	T	H
591.0546875	n/a	151310	responseSmallH	correct	n/a	0.57031	no	n/a	n/a
592.125	n/a	151584	largeTSmallH	correct	incongruent	0.50781	no	T	H
592.6328125	n/a	151714	responseSmallH	correct	n/a	0.50781	no	n/a	n/a
593.6953125	n/a	151986	largeHSmallT	correct	incongruent	0.55859	no	H	T
594.2539062	n/a	152129	responseSmallT	correct	n/a	0.55859	no	n/a	n/a
595.3242188	n/a	152403	largeHSmallH	correct	congruent	0.46484	no	H	H
595.7890625	n/a	152522	responseSmallH	correct	n/a	0.46484	no	n/a	n/a
596.8710938	n/a	152799	largeTSmallH	correct	incongruent	0.65234	no	T	H
597.5234375	n/a	152966	responseSmallH	correct	n/a	0.65234	no	n/a	n/a
598.6015625	n/a	153242	largeTSmallT	correct	congruent	0.53125	no	T	T
599.1328125	n/a	153378	responseSmallT	correct	n/a	0.53125	no	n/a	n/a
600.203125	n/a	153652	largeHSmallT	error	incongruent	0.52344	no	H	T
600.7265625	n/a	153786	responseSmallH	error	n/a	0.52344	no	n/a	n/a
601.8046875	n/a	154062	largeTSmallH	correct	incongruent	0.52344	no	T	H
602.328125	n/a	154196	responseSmallH	correct	n/a	0.52344	no	n/a	n/a
603.4023438	n/a	154471	largeHSmallH	correct	congruent	0.48438	no	H	H
603.8867188	n/a	154595	responseSmallH	correct	n/a	0.48438	no	n/a	n/a
604.9609375	n/a	154870	largeHSmallH	correct	congruent	0.46484	no	H	H
605.4257812	n/a	154989	responseSmallH	correct	n/a	0.46484	no	n/a	n/a
606.4960938	n/a	155263	largeHSmallH	correct	congruent	0.53906	no	H	H
607.0351562	n/a	155401	responseSmallH	correct	n/a	0.53906	no	n/a	n/a
608.109375	n/a	155676	largeHSmallH	correct	congruent	0.58203	no	H	H
608.6914062	n/a	155825	responseSmallH	correct	n/a	0.58203	no	n/a	n/a
609.7617188	n/a	156099	largeTSmallH	correct	incongruent	0.55469	no	T	H
610.3164062	n/a	156241	responseSmallH	correct	n/a	0.55469	no	n/a	n/a
611.390625	n/a	156516	largeTSmallH	correct	incongruent	0.58984	no	T	H
611.9804688	n/a	156667	responseSmallH	correct	n/a	0.58984	no	n/a	n/a
613.0429688	n/a	156939	largeHSmallH	correct	congruent	0.65234	no	H	H
613.6953125	n/a	157106	responseSmallH	correct	n/a	0.65234	no	n/a	n/a
614.7617188	n/a	157379	largeTSmallH	correct	incongruent	0.54688	no	T	H
615.3085938	n/a	157519	responseSmallH	correct	n/a	0.54688	no	n/a	n/a
616.390625	n/a	157796	largeHSmallH	correct	congruent	0.63281	no	H	H
617.0234375	n/a	157958	responseSmallH	correct	n/a	0.63281	no	n/a	n/a
618.09375	n/a	158232	largeHSmallH	correct	congruent	0.64844	no	H	H
618.7421875	n/a	158398	responseSmallH	correct	n/a	0.64844	no	n/a	n/a
619.8164062	n/a	158673	largeHSmallH	correct	congruent	0.51172	no	H	H
620.328125	n/a	158804	responseSmallH	correct	n/a	0.51172	no	n/a	n/a
621.4023438	n/a	159079	largeHSmallT	error	incongruent	0.51562	no	H	T
621.9179688	n/a	159211	responseSmallH	error	n/a	0.51562	no	n/a	n/a
622.9765625	n/a	159482	largeHSmallH	correct	congruent	0.78125	no	H	H
623.7578125	n/a	159682	responseSmallH	correct	n/a	0.78125	no	n/a	n/a
624.84375	n/a	159960	largeTSmallH	correct	incongruent	0.61328	no	T	H
625.4570312	n/a	160117	responseSmallH	correct	n/a	0.61328	no	n/a	n/a
626.5234375	n/a	160390	largeHSmallT	correct	incongruent	0.62109	no	H	T
627.1445312	n/a	160549	responseSmallT	correct	n/a	0.62109	no	n/a	n/a
628.2304688	n/a	160827	largeHSmallT	correct	incongruent	0.50391	no	H	T
628.734375	n/a	160956	responseSmallT	correct	n/a	0.50391	no	n/a	n/a
629.8164062	n/a	161233	largeHSmallT	correct	incongruent	0.50391	no	H	T
630.3203125	n/a	161362	responseSmallT	correct	n/a	0.50391	no	n/a	n/a
631.390625	n/a	161636	largeHSmallT	correct	incongruent	0.44922	no	H	T
631.8398438	n/a	161751	responseSmallT	correct	n/a	0.44922	no	n/a	n/a
632.8945312	n/a	162021	largeTSmallT	correct	congruent	0.52344	no	T	T
633.4179688	n/a	162155	responseSmallT	correct	n/a	0.52344	no	n/a	n/a
634.4960938	n/a	162431	largeHSmallT	correct	incongruent	0.46484	no	H	T
634.9609375	n/a	162550	responseSmallT	correct	n/a	0.46484	no	n/a	n/a
636.0429688	n/a	162827	largeTSmallH	correct	incongruent	0.74219	no	T	H
636.7851562	n/a	163017	responseSmallH	correct	n/a	0.74219	no	n/a	n/a
637.8671875	n/a	163294	largeTSmallH	correct	incongruent	0.51953	no	T	H
638.3867188	n/a	163427	responseSmallH	correct	n/a	0.51953	no	n/a	n/a
639.453125	n/a	163700	largeTSmallT	correct	congruent	0.79297	no	T	T
640.2460938	n/a	163903	responseSmallT	correct	n/a	0.79297	no	n/a	n/a
641.3085938	n/a	164175	largeHSmallH	correct	congruent	0.78125	no	H	H
642.0898438	n/a	164375	responseSmallH	correct	n/a	0.78125	no	n/a	n/a
643.1757812	n/a	164653	largeHSmallH	correct	congruent	0.69531	no	H	H
643.8710938	n/a	164831	responseSmallH	correct	n/a	0.69531	no	n/a	n/a
644.9492188	n/a	165107	largeTSmallT	correct	congruent	0.52344	no	T	T
645.4726562	n/a	165241	responseSmallT	correct	n/a	0.52344	no	n/a	n/a
646.5351562	n/a	165513	largeHSmallT	correct	incongruent	0.5	no	H	T
647.0351562	n/a	165641	responseSmallT	correct	n/a	0.5	no	n/a	n/a
648.109375	n/a	165916	largeHSmallT	correct	incongruent	0.54297	no	H	T
648.6523438	n/a	166055	responseSmallT	correct	n/a	0.54297	no	n/a	n/a
649.7226562	n/a	166329	largeHSmallT	correct	incongruent	0.4375	no	H	T
650.1601562	n/a	166441	responseSmallT	correct	n/a	0.4375	no	n/a	n/a
651.2265625	n/a	166714	largeTSmallH	correct	incongruent	0.74609	no	T	H
651.9726562	n/a	166905	responseSmallH	correct	n/a	0.74609	no	n/a	n/a
653.0429688	n/a	167179	largeTSmallH	correct	incongruent	0.89062	no	T	H
653.9335938	n/a	167407	responseSmallH	correct	n/a	0.89062	no	n/a	n/a
655	n/a	167680	largeTSmallH	correct	incongruent	1.4258	no	T	H
656.4257812	n/a	168045	responseSmallH	correct	n/a	1.4258	no	n/a	n/a
657.5078125	n/a	168322	largeHSmallT	correct	incongruent	0.6875	no	H	T
658.1953125	n/a	168498	responseSmallT	correct	n/a	0.6875	no	n/a	n/a
659.2695312	n/a	168773	largeTSmallT	correct	congruent	0.60547	no	T	T
659.875	n/a	168928	responseSmallT	correct	n/a	0.60547	no	n/a	n/a
660.9492188	n/a	169203	largeTSmallH	correct	incongruent	1.7461	yes	T	H
662.6953125	n/a	169650	responseSmallH	correct	n/a	1.7461	yes	n/a	n/a
663.7617188	n/a	169923	largeTSmallT	correct	congruent	0.62891	no	T	T
664.390625	n/a	170084	responseSmallT	correct	n/a	0.62891	no	n/a	n/a
665.453125	n/a	170356	largeTSmallH	correct	incongruent	0.39453	no	T	H
665.8476562	n/a	170457	responseSmallH	correct	n/a	0.39453	no	n/a	n/a
666.921875	n/a	170732	largeHSmallT	correct	incongruent	0.46875	no	H	T
667.390625	n/a	170852	responseSmallT	correct	n/a	0.46875	no	n/a	n/a
668.453125	n/a	171124	largeHSmallT	correct	incongruent	0.65625	no	H	T
669.109375	n/a	171292	responseSmallT	correct	n/a	0.65625	no	n/a	n/a
670.1875	n/a	171568	largeTSmallH	correct	incongruent	0.4375	no	T	H
670.625	n/a	171680	responseSmallH	correct	n/a	0.4375	no	n/a	n/a
671.6953125	n/a	171954	largeHSmallH	correct	congruent	0.48438	no	H	H
672.1796875	n/a	172078	responseSmallH	correct	n/a	0.48438	no	n/a	n/a
673.2421875	n/a	172350	largeHSmallH	error	congruent	0.5	no	H	H
673.7421875	n/a	172478	responseSmallT	error	n/a	0.5	no	n/a	n/a
674.8125	n/a	172752	largeTSmallT	correct	congruent	0.74219	no	T	T
675.5546875	n/a	172942	responseSmallT	correct	n/a	0.74219	no	n/a	n/a
676.6289062	n/a	173217	largeHSmallH	correct	congruent	0.42578	no	H	H
677.0546875	n/a	173326	responseSmallH	correct	n/a	0.42578	no	n/a	n/a
678.1328125	n/a	173602	largeHSmallT	correct	incongruent	0.54688	no	H	T
678.6796875	n/a	173742	responseSmallT	correct	n/a	0.54688	no	n/a	n/a
679.7460938	n/a	174015	largeTSmallH	correct	incongruent	0.74609	no	T	H
680.4921875	n/a	174206	responseSmallH	correct	n/a	0.74609	no	n/a	n/a
681.5625	n/a	174480	largeTSmallT	correct	congruent	0.46094	no	T	T
682.0234375	n/a	174598	responseSmallT	correct	n/a	0.46094	no	n/a	n/a
683.09375	n/a	174872	largeTSmallH	correct	incongruent	0.52344	no	T	H
683.6171875	n/a	175006	responseSmallH	correct	n/a	0.52344	no	n/a	n/a
684.6953125	n/a	175282	largeTSmallT	error	congruent	0.69922	no	T	T
685.3945312	n/a	175461	responseSmallH	error	n/a	0.69922	no	n/a	n/a
686.46875	n/a	175736	largeHSmallT	correct	incongruent	0.98438	no	H	T
687.453125	n/a	175988	responseSmallT	correct	n/a	0.98438	no	n/a	n/a
688.5195312	n/a	176261	largeTSmallT	correct	congruent	0.55859	no	T	T
689.078125	n/a	176404	responseSmallT	correct	n/a	0.55859	no	n/a	n/a
690.1601562	n/a	176681	largeTSmallT	correct	congruent	0.49609	no	T	T
690.65625	n/a	176808	responseSmallT	correct	n/a	0.49609	no	n/a	n/a
691.734375	n/a	177084	largeTSmallT	correct	congruent	0.42188	no	T	T
692.15625	n/a	177192	responseSmallT	correct	n/a	0.42188	no	n/a	n/a
693.2265625	n/a	177466	largeHSmallH	correct	congruent	0.45312	no	H	H
693.6796875	n/a	177582	responseSmallH	correct	n/a	0.45312	no	n/a	n/a
694.7617188	n/a	177859	largeTSmallT	correct	congruent	0.38281	no	T	T
695.1445312	n/a	177957	responseSmallT	correct	n/a	0.38281	no	n/a	n/a
696.2265625	n/a	178234	largeHSmallT	correct	incongruent	0.69141	no	H	T
696.9179688	n/a	178411	responseSmallT	correct	n/a	0.69141	no	n/a	n/a
697.9882812	n/a	178685	largeTSmallH	correct	incongruent	0.58203	no	T	H
698.5703125	n/a	178834	responseSmallH	correct	n/a	0.58203	no	n/a	n/a
699.640625	n/a	179108	largeTSmallT	correct	congruent	4.0352	yes	T	T
703.6757812	n/a	180141	responseSmallT	correct	n/a	4.0352	yes	n/a	n/a
704.734375	n/a	180412	largeHSmallH	correct	congruent	0.44531	no	H	H
705.1796875	n/a	180526	responseSmallH	correct	n/a	0.44531	no	n/a	n/a
706.2539062	n/a	180801	largeTSmallT	correct	congruent	0.63672	no	T	T
706.890625	n/a	180964	responseSmallT	correct	n/a	0.63672	no	n/a	n/a
707.9726562	n/a	181241	largeHSmallH	correct	congruent	0.44531	no	H	H
708.4179688	n/a	181355	responseSmallH	correct	n/a	0.44531	no	n/a	n/a
709.4804688	n/a	181627	largeHSmallT	correct	incongruent	0.48438	no	H	T
709.9648438	n/a	181751	responseSmallT	correct	n/a	0.48438	no	n/a	n/a
711.0390625	n/a	182026	largeHSmallT	correct	incongruent	0.6875	no	H	T
711.7265625	n/a	182202	responseSmallT	correct	n/a	0.6875	no	n/a	n/a
712.7851562	n/a	182473	largeHSmallH	correct	congruent	0.71094	no	H	H
713.4960938	n/a	182655	responseSmallH	correct	n/a	0.71094	no	n/a	n/a
714.5742188	n/a	182931	largeHSmallT	correct	incongruent	0.45312	no	H	T
715.0273438	n/a	183047	responseSmallT	correct	n/a	0.45312	no	n/a	n/a
716.09375	n/a	183320	largeTSmallH	correct	incongruent	0.41016	no	T	H
716.5039062	n/a	183425	responseSmallH	correct	n/a	0.41016	no	n/a	n/a
717.5742188	n/a	183699	largeTSmallH	correct	incongruent	0.59375	no	T	H
718.1679688	n/a	183851	responseSmallH	correct	n/a	0.59375	no	n/a	n/a
719.2265625	n/a	184122	largeHSmallH	correct	congruent	0.9375	no	H	H
720.1640625	n/a	184362	responseSmallH	correct	n/a	0.9375	no	n/a	n/a
727.015625	n/a	186116	largeTSmallT	correct	congruent	0.64453	no	T	T
727.6601562	n/a	186281	responseLargeT	correct	n/a	0.64453	no	n/a	n/a
728.734375	n/a	186556	largeTSmallH	error	incongruent	0.57812	no	T	H
729.3125	n/a	186704	responseLargeH	error	n/a	0.57812	no	n/a	n/a
730.3867188	n/a	186979	largeHSmallH	correct	congruent	0.57031	no	H	H
730.9570312	n/a	187125	responseLargeH	correct	n/a	0.57031	no	n/a	n/a
732.0273438	n/a	187399	largeTSmallH	correct	incongruent	0.78516	no	T	H
732.8125	n/a	187600	responseLargeT	correct	n/a	0.78516	no	n/a	n/a
733.8789062	n/a	187873	largeHSmallH	correct	congruent	0.54297	no	H	H
734.421875	n/a	188012	responseLargeH	correct	n/a	0.54297	no	n/a	n/a
735.4921875	n/a	188286	largeTSmallH	correct	incongruent	0.50781	no	T	H
736	n/a	188416	responseLargeT	correct	n/a	0.50781	no	n/a	n/a
737.0664062	n/a	188689	largeTSmallT	correct	congruent	0.57031	no	T	T
737.6367188	n/a	188835	responseLargeT	correct	n/a	0.57031	no	n/a	n/a
738.7070312	n/a	189109	largeHSmallT	correct	incongruent	0.53516	no	H	T
739.2421875	n/a	189246	responseLargeH	correct	n/a	0.53516	no	n/a	n/a
740.3046875	n/a	189518	largeHSmallT	correct	incongruent	1.0859	no	H	T
741.390625	n/a	189796	responseLargeH	correct	n/a	1.0859	no	n/a	n/a
742.4648438	n/a	190071	largeTSmallT	correct	congruent	0.51562	no	T	T
742.9804688	n/a	190203	responseLargeT	correct	n/a	0.51562	no	n/a	n/a
744.0507812	n/a	190477	largeTSmallH	correct	incongruent	0.55078	no	T	H
744.6015625	n/a	190618	responseLargeT	correct	n/a	0.55078	no	n/a	n/a
745.6796875	n/a	190894	largeHSmallT	correct	incongruent	0.47656	no	H	T
746.15625	n/a	191016	responseLargeH	correct	n/a	0.47656	no	n/a	n/a
747.2382812	n/a	191293	largeHSmallH	correct	congruent	0.48438	no	H	H
747.7226562	n/a	191417	responseLargeH	correct	n/a	0.48438	no	n/a	n/a
748.8007812	n/a	191693	largeHSmallT	correct	incongruent	0.61328	no	H	T
749.4140625	n/a	191850	responseLargeH	correct	n/a	0.61328	no	n/a	n/a
750.4804688	n/a	192123	largeHSmallT	correct	incongruent	0.5	no	H	T
750.9804688	n/a	192251	responseLargeH	correct	n/a	0.5	no	n/a	n/a
752.0507812	n/a	192525	largeTSmallT	correct	congruent	0.52734	no	T	T
752.578125	n/a	192660	responseLargeT	correct	n/a	0.52734	no	n/a	n/a
753.6523438	n/a	192935	largeTSmallT	correct	congruent	0.52344	no	T	T
754.1757812	n/a	193069	responseLargeT	correct	n/a	0.52344	no	n/a	n/a
755.2539062	n/a	193345	largeTSmallT	correct	congruent	0.47266	no	T	T
755.7265625	n/a	193466	responseLargeT	correct	n/a	0.47266	no	n/a	n/a
756.796875	n/a	193740	largeTSmallH	correct	incongruent	0.53125	no	T	H
757.328125	n/a	193876	responseLargeT	correct	n/a	0.53125	no	n/a	n/a
758.3984375	n/a	194150	largeTSmallT	correct	congruent	0.44531	no	T	T
758.84375	n/a	194264	responseLargeT	correct	n/a	0.44531	no	n/a	n/a
759.9179688	n/a	194539	largeHSmallT	correct	incongruent	0.61719	no	H	T
760.5351562	n/a	194697	responseLargeH	correct	n/a	0.61719	no	n/a	n/a
761.5976562	n/a	194969	largeTSmallT	correct	congruent	0.89844	no	T	T
762.4960938	n/a	195199	responseLargeT	correct	n/a	0.89844	no	n/a	n/a
763.5703125	n/a	195474	largeTSmallH	correct	incongruent	0.63672	no	T	H
764.2070312	n/a	195637	responseLargeT	correct	n/a	0.63672	no	n/a	n/a
765.2773438	n/a	195911	largeHSmallT	correct	incongruent	0.89844	no	H	T
766.1757812	n/a	196141	responseLargeH	correct	n/a	0.89844	no	n/a	n/a
767.25	n/a	196416	largeHSmallH	correct	congruent	0.54688	no	H	H
767.796875	n/a	196556	responseLargeH	correct	n/a	0.54688	no	n/a	n/a
768.8789062	n/a	196833	largeHSmallT	error	incongruent	0.46484	no	H	T
769.34375	n/a	196952	responseLargeT	error	n/a	0.46484	no	n/a	n/a
770.4101562	n/a	197225	largeTSmallH	correct	incongruent	0.53906	no	T	H
770.9492188	n/a	197363	responseLargeT	correct	n/a	0.53906	no	n/a	n/a
772.0234375	n/a	197638	largeTSmallH	correct	incongruent	0.55859	no	T	H
772.5820312	n/a	197781	responseLargeT	correct	n/a	0.55859	no	n/a	n/a
773.6523438	n/a	198055	largeTSmallH	correct	incongruent	0.375	no	T	H
774.0273438	n/a	198151	responseLargeT	correct	n/a	0.375	no	n/a	n/a
775.0898438	n/a	198423	largeHSmallT	correct	incongruent	0.52734	no	H	T
775.6171875	n/a	198558	responseLargeH	correct	n/a	0.52734	no	n/a	n/a
776.6914062	n/a	198833	largeTSmallT	correct	congruent	0.35938	no	T	T
777.0507812	n/a	198925	responseLargeT	correct	n/a	0.35938	no	n/a	n/a
778.1171875	n/a	199198	largeTSmallT	correct	congruent	0.40234	no	T	T
778.5195312	n/a	199301	responseLargeT	correct	n/a	0.40234	no	n/a	n/a
779.5859375	n/a	199574	largeHSmallH	correct	congruent	0.38672	no	H	H
779.9726562	n/a	199673	responseLargeH	correct	n/a	0.38672	no	n/a	n/a
781.0390625	n/a	199946	largeTSmallH	correct	incongruent	0.48047	no	T	H
781.5195312	n/a	200069	responseLargeT	correct	n/a	0.48047	no	n/a	n/a
782.5859375	n/a	200342	largeHSmallH	error	congruent	0.78516	no	H	H
783.3710938	n/a	200543	responseLargeT	error	n/a	0.78516	no	n/a	n/a
784.4375	n/a	200816	largeTSmallH	correct	incongruent	0.59375	no	T	H
785.03125	n/a	200968	responseLargeT	correct	n/a	0.59375	no	n/a	n/a
786.0898438	n/a	201239	largeHSmallT	correct	incongruent	0.69922	no	H	T
786.7890625	n/a	201418	responseLargeH	correct	n/a	0.69922	no	n/a	n/a
787.8632812	n/a	201693	largeHSmallH	correct	congruent	0.45703	no	H	H
788.3203125	n/a	201810	responseLargeH	correct	n/a	0.45703	no	n/a	n/a
789.3828125	n/a	202082	largeTSmallT	correct	congruent	0.84766	no	T	T
790.2304688	n/a	202299	responseLargeT	correct	n/a	0.84766	no	n/a	n/a
791.3046875	n/a	202574	largeTSmallT	correct	congruent	0.54297	no	T	T
791.8476562	n/a	202713	responseLargeT	correct	n/a	0.54297	no	n/a	n/a
792.9179688	n/a	202987	largeTSmallT	correct	congruent	0.41797	no	T	T
793.3359375	n/a	203094	responseLargeT	correct	n/a	0.41797	no	n/a	n/a
794.4101562	n/a	203369	largeTSmallH	correct	incongruent	0.4375	no	T	H
794.8476562	n/a	203481	responseLargeT	correct	n/a	0.4375	no	n/a	n/a
795.9179688	n/a	203755	largeHSmallH	correct	congruent	0.41797	no	H	H
796.3359375	n/a	203862	responseLargeH	correct	n/a	0.41797	no	n/a	n/a
797.3984375	n/a	204134	largeTSmallH	correct	incongruent	0.58594	no	T	H
797.984375	n/a	204284	responseLargeT	correct	n/a	0.58594	no	n/a	n/a
799.0625	n/a	204560	largeHSmallH	correct	congruent	0.68359	no	H	H
799.7460938	n/a	204735	responseLargeH	correct	n/a	0.68359	no	n/a	n/a
800.8242188	n/a	205011	largeHSmallH	correct	congruent	0.59375	no	H	H
801.4179688	n/a	205163	responseLargeH	correct	n/a	0.59375	no	n/a	n/a
802.4921875	n/a	205438	largeHSmallH	correct	congruent	0.54688	no	H	H
803.0390625	n/a	205578	responseLargeH	correct	n/a	0.54688	no	n/a	n/a
804.1171875	n/a	205854	largeTSmallH	correct	incongruent	0.60156	no	T	H
804.71875	n/a	206008	responseLargeT	correct	n/a	0.60156	no	n/a	n/a
805.7851562	n/a	206281	largeTSmallT	correct	congruent	0.58203	no	T	T
806.3671875	n/a	206430	responseLargeT	correct	n/a	0.58203	no	n/a	n/a
807.4375	n/a	206704	largeTSmallT	correct	congruent	0.51172	no	T	T
807.9492188	n/a	206835	responseLargeT	correct	n/a	0.51172	no	n/a	n/a
809.0117188	n/a	207107	largeTSmallT	correct	congruent	0.48828	no	T	T
809.5	n/a	207232	responseLargeT	correct	n/a	0.48828	no	n/a	n/a
810.5703125	n/a	207506	largeTSmallH	correct	incongruent	0.48047	no	T	H
811.0507812	n/a	207629	responseLargeT	correct	n/a	0.48047	no	n/a	n/a
812.1289062	n/a	207905	largeTSmallH	correct	incongruent	0.51562	no	T	H
812.6445312	n/a	208037	responseLargeT	correct	n/a	0.51562	no	n/a	n/a
813.71875	n/a	208312	largeHSmallH	correct	congruent	0.52734	no	H	H
814.2460938	n/a	208447	responseLargeH	correct	n/a	0.52734	no	n/a	n/a
815.3164062	n/a	208721	largeTSmallH	correct	incongruent	0.44922	no	T	H
815.765625	n/a	208836	responseLargeT	correct	n/a	0.44922	no	n/a	n/a
816.8359375	n/a	209110	largeTSmallH	correct	incongruent	0.55469	no	T	H
817.390625	n/a	209252	responseLargeT	correct	n/a	0.55469	no	n/a	n/a
818.4648438	n/a	209527	largeHSmallH	error	congruent	0.80078	no	H	H
819.265625	n/a	209732	responseLargeT	error	n/a	0.80078	no	n/a	n/a
820.34375	n/a	210008	largeTSmallH	correct	incongruent	0.62891	no	T	H
820.9726562	n/a	210169	responseLargeT	correct	n/a	0.62891	no	n/a	n/a
822.0351562	n/a	210441	largeTSmallH	correct	incongruent	0.56641	no	T	H
822.6015625	n/a	210586	responseLargeT	correct	n/a	0.56641	no	n/a	n/a
823.6757812	n/a	210861	largeHSmallH	correct	congruent	0.5	no	H	H
824.1757812	n/a	210989	responseLargeH	correct	n/a	0.5	no	n/a	n/a
825.25	n/a	211264	largeTSmallH	correct	incongruent	0.74219	no	T	H
825.9921875	n/a	211454	responseLargeT	correct	n/a	0.74219	no	n/a	n/a
827.0625	n/a	211728	largeHSmallH	correct	congruent	0.91406	no	H	H
827.9765625	n/a	211962	responseLargeH	correct	n/a	0.91406	no	n/a	n/a
829.0351562	n/a	212233	largeHSmallH	correct	congruent	0.74609	no	H	H
829.78125	n/a	212424	responseLargeH	correct	n/a	0.74609	no	n/a	n/a
830.8515625	n/a	212698	largeHSmallH	correct	congruent	0.57422	no	H	H
831.4257812	n/a	212845	responseLargeH	correct	n/a	0.57422	no	n/a	n/a
832.4882812	n/a	213117	largeTSmallT	correct	congruent	0.67188	no	T	T
833.1601562	n/a	213289	responseLargeT	correct	n/a	0.67188	no	n/a	n/a
834.2382812	n/a	213565	largeHSmallH	correct	congruent	0.78516	no	H	H
835.0234375	n/a	213766	responseLargeH	correct	n/a	0.78516	no	n/a	n/a
836.0898438	n/a	214039	largeHSmallT	correct	incongruent	0.54297	no	H	T
836.6328125	n/a	214178	responseLargeH	correct	n/a	0.54297	no	n/a	n/a
837.703125	n/a	214452	largeTSmallH	correct	incongruent	0.53906	no	T	H
838.2421875	n/a	214590	responseLargeT	correct	n/a	0.53906	no	n/a	n/a
839.3046875	n/a	214862	largeHSmallH	correct	congruent	0.35547	no	H	H
839.6601562	n/a	214953	responseLargeH	correct	n/a	0.35547	no	n/a	n/a
840.7304688	n/a	215227	largeTSmallH	correct	incongruent	0.54297	no	T	H
841.2734375	n/a	215366	responseLargeT	correct	n/a	0.54297	no	n/a	n/a
842.34375	n/a	215640	largeHSmallH	correct	congruent	0.42969	no	H	H
842.7734375	n/a	215750	responseLargeH	correct	n/a	0.42969	no	n/a	n/a
843.8515625	n/a	216026	largeHSmallH	correct	congruent	0.63281	no	H	H
844.484375	n/a	216188	responseLargeH	correct	n/a	0.63281	no	n/a	n/a
845.5546875	n/a	216462	largeTSmallT	correct	congruent	0.60156	no	T	T
846.15625	n/a	216616	responseLargeT	correct	n/a	0.60156	no	n/a	n/a
847.2382812	n/a	216893	largeTSmallH	error	incongruent	0.42188	no	T	H
847.6601562	n/a	217001	responseLargeH	error	n/a	0.42188	no	n/a	n/a
848.7304688	n/a	217275	largeHSmallH	correct	congruent	0.51172	no	H	H
849.2421875	n/a	217406	responseLargeH	correct	n/a	0.51172	no	n/a	n/a
850.3164062	n/a	217681	largeTSmallH	correct	incongruent	0.62109	no	T	H
850.9375	n/a	217840	responseLargeT	correct	n/a	0.62109	no	n/a	n/a
852.0078125	n/a	218114	largeHSmallH	correct	congruent	0.35547	no	H	H
852.3632812	n/a	218205	responseLargeH	correct	n/a	0.35547	no	n/a	n/a
853.4375	n/a	218480	largeTSmallT	correct	congruent	0.375	no	T	T
853.8125	n/a	218576	responseLargeT	correct	n/a	0.375	no	n/a	n/a
854.875	n/a	218848	largeHSmallT	correct	incongruent	0.34766	no	H	T
855.2226562	n/a	218937	responseLargeH	correct	n/a	0.34766	no	n/a	n/a
856.2890625	n/a	219210	largeHSmallT	error	incongruent	0.34766	no	H	T
856.6367188	n/a	219299	responseLargeT	error	n/a	0.34766	no	n/a	n/a
857.7148438	n/a	219575	largeTSmallT	correct	congruent	0.48438	no	T	T
858.1992188	n/a	219699	responseLargeT	correct	n/a	0.48438	no	n/a	n/a
859.2773438	n/a	219975	largeTSmallH	correct	incongruent	0.44922	no	T	H
859.7265625	n/a	220090	responseLargeT	correct	n/a	0.44922	no	n/a	n/a
860.796875	n/a	220364	largeTSmallH	correct	incongruent	0.41797	no	T	H
861.2148438	n/a	220471	responseLargeT	correct	n/a	0.41797	no	n/a	n/a
862.2890625	n/a	220746	largeTSmallH	correct	incongruent	0.39453	no	T	H
862.6835938	n/a	220847	responseLargeT	correct	n/a	0.39453	no	n/a	n/a
863.7539062	n/a	221121	largeHSmallT	correct	incongruent	0.71484	no	H	T
864.46875	n/a	221304	responseLargeH	correct	n/a	0.71484	no	n/a	n/a
865.5429688	n/a	221579	largeHSmallH	correct	congruent	0.50391	no	H	H
866.046875	n/a	221708	responseLargeH	correct	n/a	0.50391	no	n/a	n/a
867.1171875	n/a	221982	largeHSmallH	correct	congruent	0.73828	no	H	H
867.8554688	n/a	222171	responseLargeH	correct	n/a	0.73828	no	n/a	n/a
868.9296875	n/a	222446	largeTSmallT	correct	congruent	0.42969	no	T	T
869.359375	n/a	222556	responseLargeT	correct	n/a	0.42969	no	n/a	n/a
870.4375	n/a	222832	largeHSmallH	correct	congruent	0.88672	no	H	H
871.3242188	n/a	223059	responseLargeH	correct	n/a	0.88672	no	n/a	n/a
872.3945312	n/a	223333	largeTSmallT	correct	congruent	0.44531	no	T	T
872.8398438	n/a	223447	responseLargeT	correct	n/a	0.44531	no	n/a	n/a
873.9023438	n/a	223719	largeHSmallH	correct	congruent	0.78516	no	H	H
874.6875	n/a	223920	responseLargeH	correct	n/a	0.78516	no	n/a	n/a
875.7695312	n/a	224197	largeHSmallT	error	incongruent	1.0703	no	H	T
876.8398438	n/a	224471	responseLargeT	error	n/a	1.0703	no	n/a	n/a
877.9140625	n/a	224746	largeHSmallT	correct	incongruent	0.70312	no	H	T
878.6171875	n/a	224926	responseLargeH	correct	n/a	0.70312	no	n/a	n/a
879.6875	n/a	225200	largeHSmallT	correct	incongruent	0.46484	no	H	T
880.1523438	n/a	225319	responseLargeH	correct	n/a	0.46484	no	n/a	n/a
881.2226562	n/a	225593	largeHSmallH	correct	congruent	0.49219	no	H	H
881.7148438	n/a	225719	responseLargeH	correct	n/a	0.49219	no	n/a	n/a
882.78125	n/a	225992	largeHSmallT	correct	incongruent	0.92969	no	H	T
883.7109375	n/a	226230	responseLargeH	correct	n/a	0.92969	no	n/a	n/a
884.78125	n/a	226504	largeHSmallT	error	incongruent	0.40625	no	H	T
885.1875	n/a	226608	responseLargeT	error	n/a	0.40625	no	n/a	n/a
886.2617188	n/a	226883	largeTSmallH	correct	incongruent	0.50781	no	T	H
886.7695312	n/a	227013	responseLargeT	correct	n/a	0.50781	no	n/a	n/a
887.8359375	n/a	227286	largeHSmallT	error	incongruent	0.61719	no	H	T
888.453125	n/a	227444	responseLargeT	error	n/a	0.61719	no	n/a	n/a
889.515625	n/a	227716	largeTSmallH	error	incongruent	0.41797	no	T	H
889.9335938	n/a	227823	responseLargeH	error	n/a	0.41797	no	n/a	n/a
891.0078125	n/a	228098	largeTSmallT	correct	congruent	0.41406	no	T	T
891.421875	n/a	228204	responseLargeT	correct	n/a	0.41406	no	n/a	n/a
892.4882812	n/a	228477	largeTSmallT	correct	congruent	0.43359	no	T	T
892.921875	n/a	228588	responseLargeT	correct	n/a	0.43359	no	n/a	n/a
894.0078125	n/a	228866	largeTSmallT	correct	congruent	0.37109	no	T	T
894.3789062	n/a	228961	responseLargeT	correct	n/a	0.37109	no	n/a	n/a
895.4492188	n/a	229235	largeHSmallH	correct	congruent	0.51172	no	H	H
895.9609375	n/a	229366	responseLargeH	correct	n/a	0.51172	no	n/a	n/a
897.0234375	n/a	229638	largeTSmallT	correct	congruent	0.42188	no	T	T
897.4453125	n/a	229746	responseLargeT	correct	n/a	0.42188	no	n/a	n/a
898.5273438	n/a	230023	largeHSmallT	correct	incongruent	0.36328	no	H	T
898.890625	n/a	230116	responseLargeH	correct	n/a	0.36328	no	n/a	n/a
899.953125	n/a	230388	largeTSmallH	correct	incongruent	0.60547	no	T	H
900.5585938	n/a	230543	responseLargeT	correct	n/a	0.60547	no	n/a	n/a
901.6367188	n/a	230819	largeHSmallT	correct	incongruent	0.67188	no	H	T
902.3085938	n/a	230991	responseLargeH	correct	n/a	0.67188	no	n/a	n/a
903.3671875	n/a	231262	largeHSmallT	correct	incongruent	0.69531	no	H	T
904.0625	n/a	231440	responseLargeH	correct	n/a	0.69531	no	n/a	n/a
905.140625	n/a	231716	largeHSmallH	correct	congruent	0.90625	no	H	H
906.046875	n/a	231948	responseLargeH	correct	n/a	0.90625	no	n/a	n/a
907.1132812	n/a	232221	largeHSmallT	correct	incongruent	0.625	no	H	T
907.7382812	n/a	232381	responseLargeH	correct	n/a	0.625	no	n/a	n/a
908.8085938	n/a	232655	largeTSmallH	error	incongruent	1.8242	yes	T	H
910.6328125	n/a	233122	responseLargeH	error	n/a	1.8242	yes	n/a	n/a
911.703125	n/a	233396	largeHSmallT	correct	incongruent	0.64062	no	H	T
912.34375	n/a	233560	responseLargeH	correct	n/a	0.64062	no	n/a	n/a
913.421875	n/a	233836	largeTSmallH	correct	incongruent	0.52734	no	T	H
913.9492188	n/a	233971	responseLargeT	correct	n/a	0.52734	no	n/a	n/a
915.0078125	n/a	234242	largeHSmallH	correct	congruent	0.46875	no	H	H
915.4765625	n/a	234362	responseLargeH	correct	n/a	0.46875	no	n/a	n/a
916.5429688	n/a	234635	largeTSmallT	correct	congruent	0.45703	no	T	T
917	n/a	234752	responseLargeT	correct	n/a	0.45703	no	n/a	n/a
918.0742188	n/a	235027	largeTSmallT	correct	congruent	0.67578	no	T	T
918.75	n/a	235200	responseLargeT	correct	n/a	0.67578	no	n/a	n/a
919.8203125	n/a	235474	largeHSmallT	correct	incongruent	1.0391	no	H	T
920.859375	n/a	235740	responseLargeH	correct	n/a	1.0391	no	n/a	n/a
921.9257812	n/a	236013	largeHSmallH	correct	congruent	1.5781	yes	H	H
923.5039062	n/a	236417	responseLargeH	correct	n/a	1.5781	yes	n/a	n/a
924.5820312	n/a	236693	largeHSmallT	correct	incongruent	0.48828	no	H	T
925.0703125	n/a	236818	responseLargeH	correct	n/a	0.48828	no	n/a	n/a
926.140625	n/a	237092	largeHSmallT	correct	incongruent	0.42969	no	H	T
926.5703125	n/a	237202	responseLargeH	correct	n/a	0.42969	no	n/a	n/a
927.6328125	n/a	237474	largeTSmallT	error	congruent	0.47266	no	T	T
928.1054688	n/a	237595	responseLargeH	error	n/a	0.47266	no	n/a	n/a
929.1796875	n/a	237870	largeTSmallH	correct	incongruent	0.57812	no	T	H
929.7578125	n/a	238018	responseLargeT	correct	n/a	0.57812	no	n/a	n/a
930.8359375	n/a	238294	largeTSmallT	correct	congruent	0.46484	no	T	T
931.3007812	n/a	238413	responseLargeT	correct	n/a	0.46484	no	n/a	n/a
932.3789062	n/a	238689	largeTSmallT	correct	congruent	0.95312	no	T	T
933.3320312	n/a	238933	responseLargeT	correct	n/a	0.95312	no	n/a	n/a
934.40625	n/a	239208	largeTSmallH	correct	incongruent	0.66016	no	T	H
935.0664062	n/a	239377	responseLargeT	correct	n/a	0.66016	no	n/a	n/a
936.140625	n/a	239652	largeTSmallT	correct	congruent	0.5	no	T	T
936.640625	n/a	239780	responseLargeT	correct	n/a	0.5	no	n/a	n/a
937.7148438	n/a	240055	largeHSmallH	correct	congruent	0.5	no	H	H
938.2148438	n/a	240183	responseLargeH	correct	n/a	0.5	no	n/a	n/a
939.2890625	n/a	240458	largeHSmallH	correct	congruent	0.56641	no	H	H
939.8554688	n/a	240603	responseLargeH	correct	n/a	0.56641	no	n/a	n/a
940.9257812	n/a	240877	largeHSmallT	correct	incongruent	0.79688	no	H	T
941.7226562	n/a	241081	responseLargeH	correct	n/a	0.79688	no	n/a	n/a
942.7929688	n/a	241355	largeHSmallH	correct	congruent	0.54688	no	H	H
943.3398438	n/a	241495	responseLargeH	correct	n/a	0.54688	no	n/a	n/a
944.40625	n/a	241768	largeHSmallH	correct	congruent	0.53906	no	H	H
944.9453125	n/a	241906	responseLargeH	correct	n/a	0.53906	no	n/a	n/a
946.0078125	n/a	242178	largeHSmallT	correct	incongruent	0.55078	no	H	T
946.5585938	n/a	242319	responseLargeH	correct	n/a	0.55078	no	n/a	n/a
947.6328125	n/a	242594	largeHSmallT	correct	incongruent	0.67188	no	H	T
948.3046875	n/a	242766	responseLargeH	correct	n/a	0.67188	no	n/a	n/a
949.3789062	n/a	243041	largeTSmallT	correct	congruent	1.4453	no	T	T
950.8242188	n/a	243411	responseLargeT	correct	n/a	1.4453	no	n/a	n/a
951.8984375	n/a	243686	largeTSmallH	correct	incongruent	0.45312	no	T	H
952.3515625	n/a	243802	responseLargeT	correct	n/a	0.45312	no	n/a	n/a
953.421875	n/a	244076	largeTSmallT	correct	congruent	0.44922	no	T	T
953.8710938	n/a	244191	responseLargeT	correct	n/a	0.44922	no	n/a	n/a
954.953125	n/a	244468	largeTSmallT	correct	congruent	0.74219	no	T	T
955.6953125	n/a	244658	responseLargeT	correct	n/a	0.74219	no	n/a	n/a
956.765625	n/a	244932	largeHSmallH	correct	congruent	0.70312	no	H	H
957.46875	n/a	245112	responseLargeH	correct	n/a	0.70312	no	n/a	n/a
958.5390625	n/a	245386	largeTSmallH	correct	incongruent	0.35547	no	T	H
958.8945312	n/a	245477	responseLargeT	correct	n/a	0.35547	no	n/a	n/a
959.953125	n/a	245748	largeTSmallT	error	congruent	0.78516	no	T	T
960.7382812	n/a	245949	responseLargeH	error	n/a	0.78516	no	n/a	n/a
961.8085938	n/a	246223	largeHSmallH	error	congruent	0.51562	no	H	H
962.3242188	n/a	246355	responseLargeT	error	n/a	0.51562	no	n/a	n/a
963.3945312	n/a	246629	largeHSmallT	error	incongruent	0.24219	no	H	T
963.6367188	n/a	246691	responseLargeT	error	n/a	0.24219	no	n/a	n/a
964.7148438	n/a	246967	largeTSmallH	correct	incongruent	0.55078	no	T	H
965.265625	n/a	247108	responseLargeT	correct	n/a	0.55078	no	n/a	n/a
966.3398438	n/a	247383	largeHSmallT	correct	incongruent	1.3906	no	H	T
967.7304688	n/a	247739	responseLargeH	correct	n/a	1.3906	no	n/a	n/a
968.8046875	n/a	248014	largeHSmallH	correct	congruent	0.64062	no	H	H
969.4453125	n/a	248178	responseLargeH	correct	n/a	0.64062	no	n/a	n/a
970.5117188	n/a	248451	largeTSmallH	correct	incongruent	0.57422	no	T	H
971.0859375	n/a	248598	responseLargeT	correct	n/a	0.57422	no	n/a	n/a
972.1523438	n/a	248871	largeTSmallT	correct	congruent	0.53125	no	T	T
972.6835938	n/a	249007	responseLargeT	correct	n/a	0.53125	no	n/a	n/a
973.7539062	n/a	249281	largeHSmallT	correct	incongruent	0.51172	no	H	T
974.265625	n/a	249412	responseLargeH	correct	n/a	0.51172	no	n/a	n/a
975.3398438	n/a	249687	largeHSmallH	correct	congruent	0.5	no	H	H
975.8398438	n/a	249815	responseLargeH	correct	n/a	0.5	no	n/a	n/a
976.9140625	n/a	250090	largeTSmallT	correct	congruent	0.47266	no	T	T
977.3867188	n/a	250211	responseLargeT	correct	n/a	0.47266	no	n/a	n/a
978.4609375	n/a	250486	largeTSmallH	error	incongruent	0.44922	no	T	H
978.9101562	n/a	250601	responseLargeH	error	n/a	0.44922	no	n/a	n/a
979.9921875	n/a	250878	largeTSmallH	correct	incongruent	0.74609	no	T	H
980.7382812	n/a	251069	responseLargeT	correct	n/a	0.74609	no	n/a	n/a
981.8085938	n/a	251343	largeTSmallT	correct	congruent	0.44531	no	T	T
982.2539062	n/a	251457	responseLargeT	correct	n/a	0.44531	no	n/a	n/a
983.3242188	n/a	251731	largeHSmallT	correct	incongruent	0.60938	no	H	T
983.9335938	n/a	251887	responseLargeH	correct	n/a	0.60938	no	n/a	n/a
985.0078125	n/a	252162	largeHSmallH	correct	congruent	0.71094	no	H	H
985.71875	n/a	252344	responseLargeH	correct	n/a	0.71094	no	n/a	n/a
986.7929688	n/a	252619	largeHSmallH	correct	congruent	0.52734	no	H	H
987.3203125	n/a	252754	responseLargeH	correct	n/a	0.52734	no	n/a	n/a
988.3945312	n/a	253029	largeTSmallH	correct	incongruent	0.76562	no	T	H
989.1601562	n/a	253225	responseLargeT	correct	n/a	0.76562	no	n/a	n/a
990.234375	n/a	253500	largeHSmallH	correct	congruent	0.75781	no	H	H
990.9921875	n/a	253694	responseLargeH	correct	n/a	0.75781	no	n/a	n/a
992.0585938	n/a	253967	largeHSmallT	correct	incongruent	0.74219	no	H	T
992.8007812	n/a	254157	responseLargeH	correct	n/a	0.74219	no	n/a	n/a
993.8710938	n/a	254431	largeTSmallT	correct	congruent	1.1602	no	T	T
995.03125	n/a	254728	responseLargeT	correct	n/a	1.1602	no	n/a	n/a
996.0976562	n/a	255001	largeHSmallT	correct	incongruent	0.49609	no	H	T
996.59375	n/a	255128	responseLargeH	correct	n/a	0.49609	no	n/a	n/a
997.6601562	n/a	255401	largeHSmallT	correct	incongruent	0.48438	no	H	T
998.1445312	n/a	255525	responseLargeH	correct	n/a	0.48438	no	n/a	n/a
999.2070312	n/a	255797	largeHSmallT	correct	incongruent	0.57031	no	H	T
999.7773438	n/a	255943	responseLargeH	correct	n/a	0.57031	no	n/a	n/a
1000.84375	n/a	256216	largeHSmallH	correct	congruent	0.51953	no	H	H
1001.363281	n/a	256349	responseLargeH	correct	n/a	0.51953	no	n/a	n/a
1002.433594	n/a	256623	largeHSmallH	correct	congruent	0.72656	no	H	H
1003.160156	n/a	256809	responseLargeH	correct	n/a	0.72656	no	n/a	n/a
1004.230469	n/a	257083	largeTSmallH	correct	incongruent	0.47656	no	T	H
1004.707031	n/a	257205	responseLargeT	correct	n/a	0.47656	no	n/a	n/a
1005.777344	n/a	257479	largeTSmallT	correct	congruent	1.0898	no	T	T
1006.867188	n/a	257758	responseLargeT	correct	n/a	1.0898	no	n/a	n/a
1007.9375	n/a	258032	largeHSmallH	correct	congruent	0.41406	no	H	H
1008.351562	n/a	258138	responseLargeH	correct	n/a	0.41406	no	n/a	n/a
1009.417969	n/a	258411	largeTSmallT	correct	congruent	0.63281	no	T	T
1010.050781	n/a	258573	responseLargeT	correct	n/a	0.63281	no	n/a	n/a
1011.125	n/a	258848	largeTSmallH	error	incongruent	0.43359	no	T	H
1011.558594	n/a	258959	responseLargeH	error	n/a	0.43359	no	n/a	n/a
1012.632812	n/a	259234	largeTSmallH	correct	incongruent	0.53516	no	T	H
1013.167969	n/a	259371	responseLargeT	correct	n/a	0.53516	no	n/a	n/a
1014.230469	n/a	259643	largeTSmallH	correct	incongruent	0.74219	no	T	H
1014.972656	n/a	259833	responseLargeT	correct	n/a	0.74219	no	n/a	n/a
1016.046875	n/a	260108	largeTSmallH	correct	incongruent	0.42188	no	T	H
1016.46875	n/a	260216	responseLargeT	correct	n/a	0.42188	no	n/a	n/a
1017.539062	n/a	260490	largeHSmallT	correct	incongruent	0.625	no	H	T
1018.164062	n/a	260650	responseLargeH	correct	n/a	0.625	no	n/a	n/a
1019.230469	n/a	260923	largeTSmallT	correct	congruent	0.44922	no	T	T
1019.679688	n/a	261038	responseLargeT	correct	n/a	0.44922	no	n/a	n/a
1020.75	n/a	261312	largeHSmallH	error	congruent	0.46484	no	H	H
1021.214844	n/a	261431	responseLargeT	error	n/a	0.46484	no	n/a	n/a
1022.285156	n/a	261705	largeHSmallT	correct	incongruent	0.92578	no	H	T
1023.210938	n/a	261942	responseLargeH	correct	n/a	0.92578	no	n/a	n/a
1024.273438	n/a	262214	largeHSmallT	correct	incongruent	0.45312	no	H	T
1024.726562	n/a	262330	responseLargeH	correct	n/a	0.45312	no	n/a	n/a
1025.804688	n/a	262606	largeTSmallH	correct	incongruent	0.52344	no	T	H
1026.328125	n/a	262740	responseLargeT	correct	n/a	0.52344	no	n/a	n/a
1027.390625	n/a	263012	largeHSmallT	correct	incongruent	0.72266	no	H	T
1028.113281	n/a	263197	responseLargeH	correct	n/a	0.72266	no	n/a	n/a
1029.191406	n/a	263473	largeHSmallT	correct	incongruent	0.70312	no	H	T
1029.894531	n/a	263653	responseLargeH	correct	n/a	0.70312	no	n/a	n/a
1030.964844	n/a	263927	largeTSmallH	correct	incongruent	0.58203	no	T	H
1031.546875	n/a	264076	responseLargeT	correct	n/a	0.58203	no	n/a	n/a
1032.617188	n/a	264350	largeHSmallH	correct	congruent	0.65625	no	H	H
1033.273438	n/a	264518	responseLargeH	correct	n/a	0.65625	no	n/a	n/a
1034.339844	n/a	264791	largeTSmallT	correct	congruent	0.69922	no	T	T
1035.039062	n/a	264970	responseLargeT	correct	n/a	0.69922	no	n/a	n/a
1036.113281	n/a	265245	largeTSmallT	correct	congruent	1.3359	no	T	T
1037.449219	n/a	265587	responseLargeT	correct	n/a	1.3359	no	n/a	n/a
1038.523438	n/a	265862	largeTSmallH	correct	incongruent	0.85938	no	T	H
1039.382812	n/a	266082	responseLargeT	correct	n/a	0.85938	no	n/a	n/a
1040.457031	n/a	266357	largeTSmallT	correct	congruent	1.4492	no	T	T
1041.90625	n/a	266728	responseLargeT	correct	n/a	1.4492	no	n/a	n/a
1042.976562	n/a	267002	largeHSmallT	correct	incongruent	0.39453	no	H	T
1043.371094	n/a	267103	responseLargeH	correct	n/a	0.39453	no	n/a	n/a
1044.445312	n/a	267378	largeHSmallT	correct	incongruent	0.53906	no	H	T
1044.984375	n/a	267516	responseLargeH	correct	n/a	0.53906	no	n/a	n/a
1046.058594	n/a	267791	largeHSmallT	correct	incongruent	0.54297	no	H	T
1046.601562	n/a	267930	responseLargeH	correct	n/a	0.54297	no	n/a	n/a
1047.671875	n/a	268204	largeTSmallT	correct	congruent	0.51953	no	T	T
1048.191406	n/a	268337	responseLargeT	correct	n/a	0.51953	no	n/a	n/a
1049.269531	n/a	268613	largeHSmallT	correct	incongruent	0.58203	no	H	T
1049.851562	n/a	268762	responseLargeH	correct	n/a	0.58203	no	n/a	n/a
1050.925781	n/a	269037	largeHSmallT	correct	incongruent	0.50781	no	H	T
1051.433594	n/a	269167	responseLargeH	correct	n/a	0.50781	no	n/a	n/a
1052.511719	n/a	269443	largeHSmallT	correct	incongruent	0.49609	no	H	T
1053.007812	n/a	269570	responseLargeH	correct	n/a	0.49609	no	n/a	n/a
1054.070312	n/a	269842	largeHSmallH	correct	congruent	0.73438	no	H	H
1054.804688	n/a	270030	responseLargeH	correct	n/a	0.73438	no	n/a	n/a
1055.882812	n/a	270306	largeHSmallH	correct	congruent	0.54688	no	H	H
1056.429688	n/a	270446	responseLargeH	correct	n/a	0.54688	no	n/a	n/a
1057.511719	n/a	270723	largeTSmallT	correct	congruent	1.2461	no	T	T
1058.757812	n/a	271042	responseLargeT	correct	n/a	1.2461	no	n/a	n/a
1059.832031	n/a	271317	largeTSmallT	correct	congruent	0.5	no	T	T
1060.332031	n/a	271445	responseLargeT	correct	n/a	0.5	no	n/a	n/a
1061.402344	n/a	271719	largeTSmallT	correct	congruent	0.44141	no	T	T
1061.84375	n/a	271832	responseLargeT	correct	n/a	0.44141	no	n/a	n/a
1087.832031	n/a	278485	largeHSmallH	correct	congruent	0.73828	no	H	H
1088.570312	n/a	278674	responseSmallH	correct	n/a	0.73828	no	n/a	n/a
1089.644531	n/a	278949	largeHSmallT	correct	incongruent	0.55469	no	H	T
1090.199219	n/a	279091	responseSmallT	correct	n/a	0.55469	no	n/a	n/a
1091.257812	n/a	279362	largeHSmallT	correct	incongruent	0.52734	no	H	T
1091.785156	n/a	279497	responseSmallT	correct	n/a	0.52734	no	n/a	n/a
1092.855469	n/a	279771	largeHSmallT	correct	incongruent	0.58594	no	H	T
1093.441406	n/a	279921	responseSmallT	correct	n/a	0.58594	no	n/a	n/a
1094.511719	n/a	280195	largeHSmallH	correct	congruent	0.54297	no	H	H
1095.054688	n/a	280334	responseSmallH	correct	n/a	0.54297	no	n/a	n/a
1096.125	n/a	280608	largeHSmallT	correct	incongruent	0.69531	no	H	T
1096.820312	n/a	280786	responseSmallT	correct	n/a	0.69531	no	n/a	n/a
1097.898438	n/a	281062	largeHSmallH	correct	congruent	0.51172	no	H	H
1098.410156	n/a	281193	responseSmallH	correct	n/a	0.51172	no	n/a	n/a
1099.484375	n/a	281468	largeHSmallH	correct	congruent	0.67969	no	H	H
1100.164062	n/a	281642	responseSmallH	correct	n/a	0.67969	no	n/a	n/a
1101.230469	n/a	281915	largeTSmallT	correct	congruent	0.64844	no	T	T
1101.878906	n/a	282081	responseSmallT	correct	n/a	0.64844	no	n/a	n/a
1102.949219	n/a	282355	largeTSmallH	correct	incongruent	1.3516	no	T	H
1104.300781	n/a	282701	responseSmallH	correct	n/a	1.3516	no	n/a	n/a
1105.363281	n/a	282973	largeTSmallT	correct	congruent	0.61719	no	T	T
1105.980469	n/a	283131	responseSmallT	correct	n/a	0.61719	no	n/a	n/a
1107.054688	n/a	283406	largeHSmallT	error	incongruent	0.49609	no	H	T
1107.550781	n/a	283533	responseSmallH	error	n/a	0.49609	no	n/a	n/a
1108.628906	n/a	283809	largeHSmallH	correct	congruent	0.55859	no	H	H
1109.1875	n/a	283952	responseSmallH	correct	n/a	0.55859	no	n/a	n/a
1110.269531	n/a	284229	largeHSmallT	correct	incongruent	0.61719	no	H	T
1110.886719	n/a	284387	responseSmallT	correct	n/a	0.61719	no	n/a	n/a
1111.960938	n/a	284662	largeTSmallH	correct	incongruent	0.50391	no	T	H
1112.464844	n/a	284791	responseSmallH	correct	n/a	0.50391	no	n/a	n/a
1113.535156	n/a	285065	largeHSmallT	correct	incongruent	0.50391	no	H	T
1114.039062	n/a	285194	responseSmallT	correct	n/a	0.50391	no	n/a	n/a
1115.109375	n/a	285468	largeHSmallT	correct	incongruent	0.64844	no	H	T
1115.757812	n/a	285634	responseSmallT	correct	n/a	0.64844	no	n/a	n/a
1116.828125	n/a	285908	largeTSmallH	correct	incongruent	0.60547	no	T	H
1117.433594	n/a	286063	responseSmallH	correct	n/a	0.60547	no	n/a	n/a
1118.496094	n/a	286335	largeHSmallT	correct	incongruent	0.45312	no	H	T
1118.949219	n/a	286451	responseSmallT	correct	n/a	0.45312	no	n/a	n/a
1120.015625	n/a	286724	largeTSmallT	correct	congruent	0.55078	no	T	T
1120.566406	n/a	286865	responseSmallT	correct	n/a	0.55078	no	n/a	n/a
1121.640625	n/a	287140	largeTSmallH	correct	incongruent	0.67969	no	T	H
1122.320312	n/a	287314	responseSmallH	correct	n/a	0.67969	no	n/a	n/a
1123.402344	n/a	287591	largeTSmallT	error	congruent	0.57031	no	T	T
1123.972656	n/a	287737	responseSmallH	error	n/a	0.57031	no	n/a	n/a
1125.042969	n/a	288011	largeHSmallT	correct	incongruent	0.67578	no	H	T
1125.71875	n/a	288184	responseSmallT	correct	n/a	0.67578	no	n/a	n/a
1126.789062	n/a	288458	largeHSmallT	correct	incongruent	0.49219	no	H	T
1127.28125	n/a	288584	responseSmallT	correct	n/a	0.49219	no	n/a	n/a
1128.347656	n/a	288857	largeTSmallT	correct	congruent	0.45312	no	T	T
1128.800781	n/a	288973	responseSmallT	correct	n/a	0.45312	no	n/a	n/a
1129.867188	n/a	289246	largeTSmallH	correct	incongruent	0.51562	no	T	H
1130.382812	n/a	289378	responseSmallH	correct	n/a	0.51562	no	n/a	n/a
1131.441406	n/a	289649	largeHSmallH	correct	congruent	0.44531	no	H	H
1131.886719	n/a	289763	responseSmallH	correct	n/a	0.44531	no	n/a	n/a
1132.960938	n/a	290038	largeTSmallH	correct	incongruent	0.49609	no	T	H
1133.457031	n/a	290165	responseSmallH	correct	n/a	0.49609	no	n/a	n/a
1134.523438	n/a	290438	largeTSmallH	correct	incongruent	0.60156	no	T	H
1135.125	n/a	290592	responseSmallH	correct	n/a	0.60156	no	n/a	n/a
1136.1875	n/a	290864	largeTSmallT	correct	congruent	0.51562	no	T	T
1136.703125	n/a	290996	responseSmallT	correct	n/a	0.51562	no	n/a	n/a
1137.773438	n/a	291270	largeHSmallT	correct	incongruent	0.75781	no	H	T
1138.53125	n/a	291464	responseSmallT	correct	n/a	0.75781	no	n/a	n/a
1139.617188	n/a	291742	largeTSmallT	correct	congruent	0.67969	no	T	T
1140.296875	n/a	291916	responseSmallT	correct	n/a	0.67969	no	n/a	n/a
1141.375	n/a	292192	largeHSmallT	correct	incongruent	0.75	no	H	T
1142.125	n/a	292384	responseSmallT	correct	n/a	0.75	no	n/a	n/a
1143.203125	n/a	292660	largeTSmallH	correct	incongruent	0.45312	no	T	H
1143.65625	n/a	292776	responseSmallH	correct	n/a	0.45312	no	n/a	n/a
1144.722656	n/a	293049	largeTSmallH	correct	incongruent	0.67969	no	T	H
1145.402344	n/a	293223	responseSmallH	correct	n/a	0.67969	no	n/a	n/a
1146.46875	n/a	293496	largeHSmallH	correct	congruent	1.9258	yes	H	H
1148.394531	n/a	293989	responseSmallH	correct	n/a	1.9258	yes	n/a	n/a
1149.46875	n/a	294264	largeTSmallH	error	incongruent	0.40234	no	T	H
1149.871094	n/a	294367	responseSmallT	error	n/a	0.40234	no	n/a	n/a
1150.933594	n/a	294639	largeHSmallH	correct	congruent	0.47266	no	H	H
1151.40625	n/a	294760	responseSmallH	correct	n/a	0.47266	no	n/a	n/a
1152.480469	n/a	295035	largeTSmallT	correct	congruent	0.53516	no	T	T
1153.015625	n/a	295172	responseSmallT	correct	n/a	0.53516	no	n/a	n/a
1154.082031	n/a	295445	largeHSmallT	correct	incongruent	0.50391	no	H	T
1154.585938	n/a	295574	responseSmallT	correct	n/a	0.50391	no	n/a	n/a
1155.65625	n/a	295848	largeTSmallT	correct	congruent	0.41797	no	T	T
1156.074219	n/a	295955	responseSmallT	correct	n/a	0.41797	no	n/a	n/a
1157.148438	n/a	296230	largeHSmallH	correct	congruent	0.58594	no	H	H
1157.734375	n/a	296380	responseSmallH	correct	n/a	0.58594	no	n/a	n/a
1158.816406	n/a	296657	largeTSmallH	correct	incongruent	0.75391	no	T	H
1159.570312	n/a	296850	responseSmallH	correct	n/a	0.75391	no	n/a	n/a
1160.640625	n/a	297124	largeTSmallH	correct	incongruent	0.83203	no	T	H
1161.472656	n/a	297337	responseSmallH	correct	n/a	0.83203	no	n/a	n/a
1162.535156	n/a	297609	largeHSmallH	correct	congruent	0.56641	no	H	H
1163.101562	n/a	297754	responseSmallH	correct	n/a	0.56641	no	n/a	n/a
1164.175781	n/a	298029	largeTSmallH	correct	incongruent	0.53125	no	T	H
1164.707031	n/a	298165	responseSmallH	correct	n/a	0.53125	no	n/a	n/a
1165.789062	n/a	298442	largeTSmallH	correct	incongruent	0.68359	no	T	H
1166.472656	n/a	298617	responseSmallH	correct	n/a	0.68359	no	n/a	n/a
1167.546875	n/a	298892	largeHSmallT	error	incongruent	0.66016	no	H	T
1168.207031	n/a	299061	responseSmallH	error	n/a	0.66016	no	n/a	n/a
1169.28125	n/a	299336	largeHSmallT	error	incongruent	0.86719	no	H	T
1170.148438	n/a	299558	responseSmallH	error	n/a	0.86719	no	n/a	n/a
1171.226562	n/a	299834	largeHSmallH	correct	congruent	0.83594	no	H	H
1172.0625	n/a	300048	responseSmallH	correct	n/a	0.83594	no	n/a	n/a
1173.132812	n/a	300322	largeTSmallT	correct	congruent	0.67969	no	T	T
1173.8125	n/a	300496	responseSmallT	correct	n/a	0.67969	no	n/a	n/a
1174.882812	n/a	300770	largeHSmallT	correct	incongruent	0.80469	no	H	T
1175.6875	n/a	300976	responseSmallT	correct	n/a	0.80469	no	n/a	n/a
1176.746094	n/a	301247	largeTSmallH	correct	incongruent	0.76172	no	T	H
1177.507812	n/a	301442	responseSmallH	correct	n/a	0.76172	no	n/a	n/a
1178.574219	n/a	301715	largeHSmallH	correct	congruent	0.52344	no	H	H
1179.097656	n/a	301849	responseSmallH	correct	n/a	0.52344	no	n/a	n/a
1180.160156	n/a	302121	largeTSmallT	correct	congruent	0.51562	no	T	T
1180.675781	n/a	302253	responseSmallT	correct	n/a	0.51562	no	n/a	n/a
1181.746094	n/a	302527	largeHSmallH	correct	congruent	0.60547	no	H	H
1182.351562	n/a	302682	responseSmallH	correct	n/a	0.60547	no	n/a	n/a
1183.425781	n/a	302957	largeHSmallH	correct	congruent	4.332	yes	H	H
1187.757812	n/a	304066	responseSmallH	correct	n/a	4.332	yes	n/a	n/a
1188.828125	n/a	304340	largeHSmallT	correct	incongruent	0.4375	no	H	T
1189.265625	n/a	304452	responseSmallT	correct	n/a	0.4375	no	n/a	n/a
1190.332031	n/a	304725	largeTSmallT	correct	congruent	0.58594	no	T	T
1190.917969	n/a	304875	responseSmallT	correct	n/a	0.58594	no	n/a	n/a
1191.988281	n/a	305149	largeHSmallT	correct	incongruent	0.49219	no	H	T
1192.480469	n/a	305275	responseSmallT	correct	n/a	0.49219	no	n/a	n/a
1193.546875	n/a	305548	largeHSmallH	correct	congruent	0.57422	no	H	H
1194.121094	n/a	305695	responseSmallH	correct	n/a	0.57422	no	n/a	n/a
1195.1875	n/a	305968	largeTSmallT	correct	congruent	0.43359	no	T	T
1195.621094	n/a	306079	responseSmallT	correct	n/a	0.43359	no	n/a	n/a
1196.695312	n/a	306354	largeHSmallT	error	incongruent	0.40625	no	H	T
1197.101562	n/a	306458	responseSmallH	error	n/a	0.40625	no	n/a	n/a
1198.171875	n/a	306732	largeTSmallT	correct	congruent	0.48047	no	T	T
1198.652344	n/a	306855	responseSmallT	correct	n/a	0.48047	no	n/a	n/a
1199.734375	n/a	307132	largeHSmallT	correct	incongruent	0.48828	no	H	T
1200.222656	n/a	307257	responseSmallT	correct	n/a	0.48828	no	n/a	n/a
1201.292969	n/a	307531	largeHSmallT	correct	incongruent	0.51953	no	H	T
1201.8125	n/a	307664	responseSmallT	correct	n/a	0.51953	no	n/a	n/a
1202.878906	n/a	307937	largeTSmallT	correct	congruent	0.72656	no	T	T
1203.605469	n/a	308123	responseSmallT	correct	n/a	0.72656	no	n/a	n/a
1204.679688	n/a	308398	largeTSmallH	correct	incongruent	0.95312	no	T	H
1205.632812	n/a	308642	responseSmallH	correct	n/a	0.95312	no	n/a	n/a
1206.707031	n/a	308917	largeTSmallT	correct	congruent	1.3672	no	T	T
1208.074219	n/a	309267	responseSmallT	correct	n/a	1.3672	no	n/a	n/a
1209.148438	n/a	309542	largeTSmallT	correct	congruent	0.46484	no	T	T
1209.613281	n/a	309661	responseSmallT	correct	n/a	0.46484	no	n/a	n/a
1210.679688	n/a	309934	largeHSmallT	correct	incongruent	0.67969	no	H	T
1211.359375	n/a	310108	responseSmallT	correct	n/a	0.67969	no	n/a	n/a
1212.425781	n/a	310381	largeTSmallH	correct	incongruent	0.8125	no	T	H
1213.238281	n/a	310589	responseSmallH	correct	n/a	0.8125	no	n/a	n/a
1214.320312	n/a	310866	largeTSmallH	error	incongruent	0.46875	no	T	H
1214.789062	n/a	310986	responseSmallT	error	n/a	0.46875	no	n/a	n/a
1215.867188	n/a	311262	largeHSmallT	error	incongruent	0.54297	no	H	T
1216.410156	n/a	311401	responseSmallH	error	n/a	0.54297	no	n/a	n/a
1217.480469	n/a	311675	largeTSmallT	correct	congruent	0.5	no	T	T
1217.980469	n/a	311803	responseSmallT	correct	n/a	0.5	no	n/a	n/a
1219.066406	n/a	312081	largeTSmallT	correct	congruent	0.56641	no	T	T
1219.632812	n/a	312226	responseSmallT	correct	n/a	0.56641	no	n/a	n/a
1220.691406	n/a	312497	largeHSmallH	correct	congruent	0.74609	no	H	H
1221.4375	n/a	312688	responseSmallH	correct	n/a	0.74609	no	n/a	n/a
1222.507812	n/a	312962	largeTSmallT	correct	congruent	0.74609	no	T	T
1223.253906	n/a	313153	responseSmallT	correct	n/a	0.74609	no	n/a	n/a
1224.332031	n/a	313429	largeHSmallT	correct	incongruent	1.4883	no	H	T
1225.820312	n/a	313810	responseSmallT	correct	n/a	1.4883	no	n/a	n/a
1226.894531	n/a	314085	largeHSmallH	correct	congruent	0.44531	no	H	H
1227.339844	n/a	314199	responseSmallH	correct	n/a	0.44531	no	n/a	n/a
1228.398438	n/a	314470	largeTSmallT	correct	congruent	0.55078	no	T	T
1228.949219	n/a	314611	responseSmallT	correct	n/a	0.55078	no	n/a	n/a
1230.027344	n/a	314887	largeHSmallT	correct	incongruent	0.67188	no	H	T
1230.699219	n/a	315059	responseSmallT	correct	n/a	0.67188	no	n/a	n/a
1231.773438	n/a	315334	largeTSmallH	error	incongruent	0.75	no	T	H
1232.523438	n/a	315526	responseSmallT	error	n/a	0.75	no	n/a	n/a
1233.597656	n/a	315801	largeHSmallH	correct	congruent	0.61719	no	H	H
1234.214844	n/a	315959	responseSmallH	correct	n/a	0.61719	no	n/a	n/a
1235.28125	n/a	316232	largeHSmallH	correct	congruent	0.73047	no	H	H
1236.011719	n/a	316419	responseSmallH	correct	n/a	0.73047	no	n/a	n/a
1237.078125	n/a	316692	largeHSmallH	correct	congruent	1.1523	no	H	H
1238.230469	n/a	316987	responseSmallH	correct	n/a	1.1523	no	n/a	n/a
1239.304688	n/a	317262	largeTSmallH	correct	incongruent	0.57031	no	T	H
1239.875	n/a	317408	responseSmallH	correct	n/a	0.57031	no	n/a	n/a
1240.945312	n/a	317682	largeHSmallH	correct	congruent	0.94141	no	H	H
1241.886719	n/a	317923	responseSmallH	correct	n/a	0.94141	no	n/a	n/a
1242.960938	n/a	318198	largeHSmallH	correct	congruent	0.51172	no	H	H
1243.472656	n/a	318329	responseSmallH	correct	n/a	0.51172	no	n/a	n/a
1244.546875	n/a	318604	largeHSmallH	correct	congruent	0.41016	no	H	H
1244.957031	n/a	318709	responseSmallH	correct	n/a	0.41016	no	n/a	n/a
1246.027344	n/a	318983	largeHSmallH	correct	congruent	1.8633	yes	H	H
1247.890625	n/a	319460	responseSmallH	correct	n/a	1.8633	yes	n/a	n/a
1248.960938	n/a	319734	largeTSmallH	correct	incongruent	0.57031	no	T	H
1249.53125	n/a	319880	responseSmallH	correct	n/a	0.57031	no	n/a	n/a
1250.597656	n/a	320153	largeTSmallT	correct	congruent	0.70703	no	T	T
1251.304688	n/a	320334	responseSmallT	correct	n/a	0.70703	no	n/a	n/a
1252.386719	n/a	320611	largeTSmallH	correct	incongruent	0.69922	no	T	H
1253.085938	n/a	320790	responseSmallH	correct	n/a	0.69922	no	n/a	n/a
1254.160156	n/a	321065	largeHSmallT	correct	incongruent	0.78516	no	H	T
1254.945312	n/a	321266	responseSmallT	correct	n/a	0.78516	no	n/a	n/a
1256.011719	n/a	321539	largeHSmallH	correct	congruent	0.67969	no	H	H
1256.691406	n/a	321713	responseSmallH	correct	n/a	0.67969	no	n/a	n/a
1257.757812	n/a	321986	largeTSmallT	correct	congruent	1.4727	no	T	T
1259.230469	n/a	322363	responseSmallT	correct	n/a	1.4727	no	n/a	n/a
1260.304688	n/a	322638	largeTSmallH	correct	incongruent	0.86328	no	T	H
1261.167969	n/a	322859	responseSmallH	correct	n/a	0.86328	no	n/a	n/a
1262.238281	n/a	323133	largeHSmallT	correct	incongruent	1.0938	no	H	T
1263.332031	n/a	323413	responseSmallT	correct	n/a	1.0938	no	n/a	n/a
1264.410156	n/a	323689	largeHSmallT	correct	incongruent	0.60938	no	H	T
1265.019531	n/a	323845	responseSmallT	correct	n/a	0.60938	no	n/a	n/a
1266.09375	n/a	324120	largeTSmallH	correct	incongruent	0.51172	no	T	H
1266.605469	n/a	324251	responseSmallH	correct	n/a	0.51172	no	n/a	n/a
1267.679688	n/a	324526	largeTSmallH	error	incongruent	2.8555	yes	T	H
1270.535156	n/a	325257	responseSmallT	error	n/a	2.8555	yes	n/a	n/a
1271.597656	n/a	325529	largeTSmallT	correct	congruent	0.66797	no	T	T
1272.265625	n/a	325700	responseSmallT	correct	n/a	0.66797	no	n/a	n/a
1273.332031	n/a	325973	largeHSmallT	correct	incongruent	0.64062	no	H	T
1273.972656	n/a	326137	responseSmallT	correct	n/a	0.64062	no	n/a	n/a
1275.050781	n/a	326413	largeTSmallH	correct	incongruent	0.48438	no	T	H
1275.535156	n/a	326537	responseSmallH	correct	n/a	0.48438	no	n/a	n/a
1276.613281	n/a	326813	largeHSmallT	correct	incongruent	0.48047	no	H	T
1277.09375	n/a	326936	responseSmallT	correct	n/a	0.48047	no	n/a	n/a
1278.171875	n/a	327212	largeHSmallH	correct	congruent	0.48047	no	H	H
1278.652344	n/a	327335	responseSmallH	correct	n/a	0.48047	no	n/a	n/a
1279.730469	n/a	327611	largeHSmallT	error	incongruent	0.57031	no	H	T
1280.300781	n/a	327757	responseSmallH	error	n/a	0.57031	no	n/a	n/a
1281.386719	n/a	328035	largeHSmallH	correct	congruent	0.51562	no	H	H
1281.902344	n/a	328167	responseSmallH	correct	n/a	0.51562	no	n/a	n/a
1282.972656	n/a	328441	largeTSmallT	correct	congruent	0.5625	no	T	T
1283.535156	n/a	328585	responseSmallT	correct	n/a	0.5625	no	n/a	n/a
1284.613281	n/a	328861	largeHSmallT	correct	incongruent	0.48828	no	H	T
1285.101562	n/a	328986	responseSmallT	correct	n/a	0.48828	no	n/a	n/a
1286.171875	n/a	329260	largeTSmallH	correct	incongruent	0.49609	no	T	H
1286.667969	n/a	329387	responseSmallH	correct	n/a	0.49609	no	n/a	n/a
1287.746094	n/a	329663	largeHSmallH	correct	congruent	0.64453	no	H	H
1288.390625	n/a	329828	responseSmallH	correct	n/a	0.64453	no	n/a	n/a
1289.464844	n/a	330103	largeTSmallT	correct	congruent	0.93359	no	T	T
1290.398438	n/a	330342	responseSmallT	correct	n/a	0.93359	no	n/a	n/a
1291.476562	n/a	330618	largeTSmallH	correct	incongruent	0.48047	no	T	H
1291.957031	n/a	330741	responseSmallH	correct	n/a	0.48047	no	n/a	n/a
1293.039062	n/a	331018	largeHSmallH	correct	congruent	0.67969	no	H	H
1293.71875	n/a	331192	responseSmallH	correct	n/a	0.67969	no	n/a	n/a
1294.796875	n/a	331468	largeTSmallT	correct	congruent	1.0625	no	T	T
1295.859375	n/a	331740	responseSmallT	correct	n/a	1.0625	no	n/a	n/a
1296.929688	n/a	332014	largeTSmallH	correct	incongruent	0.54688	no	T	H
1297.476562	n/a	332154	responseSmallH	correct	n/a	0.54688	no	n/a	n/a
1298.558594	n/a	332431	largeHSmallT	correct	incongruent	0.70312	no	H	T
1299.261719	n/a	332611	responseSmallT	correct	n/a	0.70312	no	n/a	n/a
1300.332031	n/a	332885	largeTSmallH	correct	incongruent	0.49219	no	T	H
1300.824219	n/a	333011	responseSmallH	correct	n/a	0.49219	no	n/a	n/a
1301.890625	n/a	333284	largeTSmallT	correct	congruent	0.39062	no	T	T
1302.28125	n/a	333384	responseSmallT	correct	n/a	0.39062	no	n/a	n/a
1303.34375	n/a	333656	largeTSmallT	correct	congruent	0.51953	no	T	T
1303.863281	n/a	333789	responseSmallT	correct	n/a	0.51953	no	n/a	n/a
1304.929688	n/a	334062	largeTSmallT	correct	congruent	0.47656	no	T	T
1305.40625	n/a	334184	responseSmallT	correct	n/a	0.47656	no	n/a	n/a
1306.476562	n/a	334458	largeTSmallT	correct	congruent	0.47656	no	T	T
1306.953125	n/a	334580	responseSmallT	correct	n/a	0.47656	no	n/a	n/a
1308.023438	n/a	334854	largeHSmallH	correct	congruent	0.53516	no	H	H
1308.558594	n/a	334991	responseSmallH	correct	n/a	0.53516	no	n/a	n/a
1309.636719	n/a	335267	largeHSmallT	correct	incongruent	0.52734	no	H	T
1310.164062	n/a	335402	responseSmallT	correct	n/a	0.52734	no	n/a	n/a
1311.238281	n/a	335677	largeHSmallH	error	congruent	0.51953	no	H	H
1311.757812	n/a	335810	responseSmallT	error	n/a	0.51953	no	n/a	n/a
1312.835938	n/a	336086	largeTSmallT	correct	congruent	0.61719	no	T	T
1313.453125	n/a	336244	responseSmallT	correct	n/a	0.61719	no	n/a	n/a
1314.53125	n/a	336520	largeTSmallH	correct	incongruent	0.46875	no	T	H
1315	n/a	336640	responseSmallH	correct	n/a	0.46875	no	n/a	n/a
1316.078125	n/a	336916	largeHSmallH	correct	congruent	0.57812	no	H	H
1316.65625	n/a	337064	responseSmallH	correct	n/a	0.57812	no	n/a	n/a
1317.730469	n/a	337339	largeHSmallH	correct	congruent	0.51953	no	H	H
