onset	duration	sample	value	response_type	congruence	response_time	response_out_of_range	largeletter	smallletter
6.88671875	n/a	1763	largeTSmallH	correct	incongruent	1.1562	no	T	H
8.04296875	n/a	2059	responseLargeT	correct	n/a	1.1562	no	n/a	n/a
9.125	n/a	2336	largeTSmallH	correct	incongruent	0.63281	no	T	H
9.7578125	n/a	2498	responseLargeT	correct	n/a	0.63281	no	n/a	n/a
10.83203125	n/a	2773	largeTSmallT	correct	congruent	0.44531	no	T	T
11.27734375	n/a	2887	responseLargeT	correct	n/a	0.44531	no	n/a	n/a
12.3515625	n/a	3162	largeHSmallH	correct	congruent	0.46094	no	H	H
12.8125	n/a	3280	responseLargeH	correct	n/a	0.46094	no	n/a	n/a
13.87109375	n/a	3551	largeTSmallT	correct	congruent	0.44922	no	T	T
14.3203125	n/a	3666	responseLargeT	correct	n/a	0.44922	no	n/a	n/a
15.390625	n/a	3940	largeHSmallT	correct	incongruent	0.46094	no	H	T
15.8515625	n/a	4058	responseLargeH	correct	n/a	0.46094	no	n/a	n/a
16.91015625	n/a	4329	largeHSmallH	correct	congruent	0.40625	no	H	H
17.31640625	n/a	4433	responseLargeH	correct	n/a	0.40625	no	n/a	n/a
18.37890625	n/a	4705	largeTSmallH	correct	incongruent	0.4375	no	T	H
18.81640625	n/a	4817	responseLargeT	correct	n/a	0.4375	no	n/a	n/a
19.8828125	n/a	5090	largeTSmallT	correct	congruent	0.47266	no	T	T
20.35546875	n/a	5211	responseLargeT	correct	n/a	0.47266	no	n/a	n/a
21.4296875	n/a	5486	largeHSmallH	correct	congruent	0.41797	no	H	H
21.84765625	n/a	5593	responseLargeH	correct	n/a	0.41797	no	n/a	n/a
22.92578125	n/a	5869	largeHSmallT	correct	incongruent	0.41797	no	H	T
23.34375	n/a	5976	responseLargeH	correct	n/a	0.41797	no	n/a	n/a
24.40234375	n/a	6247	largeHSmallH	correct	congruent	0.33203	no	H	H
24.734375	n/a	6332	responseLargeH	correct	n/a	0.33203	no	n/a	n/a
25.8046875	n/a	6606	largeHSmallH	correct	congruent	0.375	no	H	H
26.1796875	n/a	6702	responseLargeH	correct	n/a	0.375	no	n/a	n/a
27.2421875	n/a	6974	largeTSmallT	correct	congruent	0.42969	no	T	T
27.671875	n/a	7084	responseLargeT	correct	n/a	0.42969	no	n/a	n/a
28.73828125	n/a	7357	largeTSmallT	correct	congruent	0.46484	no	T	T
29.203125	n/a	7476	responseLargeT	correct	n/a	0.46484	no	n/a	n/a
30.26953125	n/a	7749	largeTSmallH	correct	incongruent	0.375	no	T	H
30.64453125	n/a	7845	responseLargeT	correct	n/a	0.375	no	n/a	n/a
31.69921875	n/a	8115	largeTSmallT	correct	congruent	0.43359	no	T	T
32.1328125	n/a	8226	responseLargeT	correct	n/a	0.43359	no	n/a	n/a
33.203125	n/a	8500	largeTSmallH	correct	incongruent	0.41406	no	T	H
33.6171875	n/a	8606	responseLargeT	correct	n/a	0.41406	no	n/a	n/a
34.68359375	n/a	8879	largeTSmallH	correct	incongruent	0.47266	no	T	H
35.15625	n/a	9000	responseLargeT	correct	n/a	0.47266	no	n/a	n/a
36.23046875	n/a	9275	largeHSmallT	correct	incongruent	0.47656	no	H	T
36.70703125	n/a	9397	responseLargeH	correct	n/a	0.47656	no	n/a	n/a
37.77734375	n/a	9671	largeTSmallH	correct	incongruent	0.49219	no	T	H
38.26953125	n/a	9797	responseLargeT	correct	n/a	0.49219	no	n/a	n/a
39.3359375	n/a	10070	largeHSmallT	correct	incongruent	0.40234	no	H	T
39.73828125	n/a	10173	responseLargeH	correct	n/a	0.40234	no	n/a	n/a
40.8046875	n/a	10446	largeHSmallH	correct	congruent	0.42188	no	H	H
41.2265625	n/a	10554	responseLargeH	correct	n/a	0.42188	no	n/a	n/a
42.296875	n/a	10828	largeTSmallH	correct	incongruent	0.39844	no	T	H
42.6953125	n/a	10930	responseLargeT	correct	n/a	0.39844	no	n/a	n/a
43.76171875	n/a	11203	largeHSmallT	correct	incongruent	0.44531	no	H	T
44.20703125	n/a	11317	responseLargeH	correct	n/a	0.44531	no	n/a	n/a
45.28515625	n/a	11593	largeTSmallH	correct	incongruent	0.41797	no	T	H
45.703125	n/a	11700	responseLargeT	correct	n/a	0.41797	no	n/a	n/a
46.77734375	n/a	11975	largeHSmallT	correct	incongruent	0.41406	no	H	T
47.19140625	n/a	12081	responseLargeH	correct	n/a	0.41406	no	n/a	n/a
48.2578125	n/a	12354	largeTSmallH	correct	incongruent	0.35547	no	T	H
48.61328125	n/a	12445	responseLargeT	correct	n/a	0.35547	no	n/a	n/a
49.68359375	n/a	12719	largeHSmallH	correct	congruent	0.46484	no	H	H
50.1484375	n/a	12838	responseLargeH	correct	n/a	0.46484	no	n/a	n/a
51.21875	n/a	13112	largeTSmallH	correct	incongruent	0.42969	no	T	H
51.6484375	n/a	13222	responseLargeT	correct	n/a	0.42969	no	n/a	n/a
52.72265625	n/a	13497	largeHSmallH	correct	congruent	0.39453	no	H	H
53.1171875	n/a	13598	responseLargeH	correct	n/a	0.39453	no	n/a	n/a
54.19140625	n/a	13873	largeTSmallH	correct	incongruent	0.41797	no	T	H
54.609375	n/a	13980	responseLargeT	correct	n/a	0.41797	no	n/a	n/a
55.68359375	n/a	14255	largeTSmallH	correct	incongruent	0.41406	no	T	H
56.09765625	n/a	14361	responseLargeT	correct	n/a	0.41406	no	n/a	n/a
57.1640625	n/a	14634	largeTSmallH	correct	incongruent	0.38281	no	T	H
57.546875	n/a	14732	responseLargeT	correct	n/a	0.38281	no	n/a	n/a
58.6171875	n/a	15006	largeHSmallT	correct	incongruent	0.40625	no	H	T
59.0234375	n/a	15110	responseLargeH	correct	n/a	0.40625	no	n/a	n/a
60.09765625	n/a	15385	largeTSmallT	correct	congruent	0.37891	no	T	T
60.4765625	n/a	15482	responseLargeT	correct	n/a	0.37891	no	n/a	n/a
61.55078125	n/a	15757	largeHSmallT	correct	incongruent	0.34375	no	H	T
61.89453125	n/a	15845	responseLargeH	correct	n/a	0.34375	no	n/a	n/a
62.96484375	n/a	16119	largeTSmallH	correct	incongruent	0.3125	no	T	H
63.27734375	n/a	16199	responseLargeT	correct	n/a	0.3125	no	n/a	n/a
64.3359375	n/a	16470	largeTSmallT	correct	congruent	0.44922	no	T	T
64.78515625	n/a	16585	responseLargeT	correct	n/a	0.44922	no	n/a	n/a
65.85546875	n/a	16859	largeTSmallT	correct	congruent	0.37109	no	T	T
66.2265625	n/a	16954	responseLargeT	correct	n/a	0.37109	no	n/a	n/a
67.28125	n/a	17224	largeTSmallT	correct	congruent	0.37109	no	T	T
67.65234375	n/a	17319	responseLargeT	correct	n/a	0.37109	no	n/a	n/a
68.72265625	n/a	17593	largeTSmallH	correct	incongruent	0.37109	no	T	H
69.09375	n/a	17688	responseLargeT	correct	n/a	0.37109	no	n/a	n/a
70.1640625	n/a	17962	largeHSmallH	correct	congruent	0.41016	no	H	H
70.57421875	n/a	18067	responseLargeH	correct	n/a	0.41016	no	n/a	n/a
71.64453125	n/a	18341	largeTSmallH	correct	incongruent	0.49219	no	T	H
72.13671875	n/a	18467	responseLargeT	correct	n/a	0.49219	no	n/a	n/a
73.203125	n/a	18740	largeHSmallH	correct	congruent	0.39844	no	H	H
73.6015625	n/a	18842	responseLargeH	correct	n/a	0.39844	no	n/a	n/a
74.66796875	n/a	19115	largeTSmallH	correct	incongruent	0.46094	no	T	H
75.12890625	n/a	19233	responseLargeT	correct	n/a	0.46094	no	n/a	n/a
76.203125	n/a	19508	largeTSmallH	correct	incongruent	0.40234	no	T	H
76.60546875	n/a	19611	responseLargeT	correct	n/a	0.40234	no	n/a	n/a
77.68359375	n/a	19887	largeTSmallT	correct	congruent	0.37891	no	T	T
78.0625	n/a	19984	responseLargeT	correct	n/a	0.37891	no	n/a	n/a
79.12109375	n/a	20255	largeHSmallH	correct	congruent	0.39844	no	H	H
79.51953125	n/a	20357	responseLargeH	correct	n/a	0.39844	no	n/a	n/a
80.57421875	n/a	20627	largeHSmallT	correct	incongruent	0.37891	no	H	T
80.953125	n/a	20724	responseLargeH	correct	n/a	0.37891	no	n/a	n/a
82.015625	n/a	20996	largeHSmallT	correct	incongruent	0.40234	no	H	T
82.41796875	n/a	21099	responseLargeH	correct	n/a	0.40234	no	n/a	n/a
83.484375	n/a	21372	largeHSmallH	correct	congruent	0.48438	no	H	H
83.96875	n/a	21496	responseLargeH	correct	n/a	0.48438	no	n/a	n/a
85.04296875	n/a	21771	largeTSmallH	correct	incongruent	0.43359	no	T	H
85.4765625	n/a	21882	responseLargeT	correct	n/a	0.43359	no	n/a	n/a
86.53515625	n/a	22153	largeTSmallH	correct	incongruent	0.38281	no	T	H
86.91796875	n/a	22251	responseLargeT	correct	n/a	0.38281	no	n/a	n/a
87.98828125	n/a	22525	largeTSmallH	correct	incongruent	0.40234	no	T	H
88.390625	n/a	22628	responseLargeT	correct	n/a	0.40234	no	n/a	n/a
89.45703125	n/a	22901	largeHSmallH	correct	congruent	0.40234	no	H	H
89.859375	n/a	23004	responseLargeH	correct	n/a	0.40234	no	n/a	n/a
90.921875	n/a	23276	largeHSmallT	error	incongruent	0.36328	no	H	T
91.28515625	n/a	23369	responseLargeT	error	n/a	0.36328	no	n/a	n/a
92.36328125	n/a	23645	largeHSmallH	correct	congruent	0.48828	no	H	H
92.8515625	n/a	23770	responseLargeH	correct	n/a	0.48828	no	n/a	n/a
93.921875	n/a	24044	largeHSmallH	correct	congruent	0.45312	no	H	H
94.375	n/a	24160	responseLargeH	correct	n/a	0.45312	no	n/a	n/a
95.44140625	n/a	24433	largeTSmallT	correct	congruent	0.41797	no	T	T
95.859375	n/a	24540	responseLargeT	correct	n/a	0.41797	no	n/a	n/a
96.9375	n/a	24816	largeHSmallT	correct	incongruent	0.44922	no	H	T
97.38671875	n/a	24931	responseLargeH	correct	n/a	0.44922	no	n/a	n/a
98.45703125	n/a	25205	largeTSmallT	correct	congruent	0.39062	no	T	T
98.84765625	n/a	25305	responseLargeT	correct	n/a	0.39062	no	n/a	n/a
99.91015625	n/a	25577	largeHSmallT	correct	incongruent	0.39844	no	H	T
100.3085938	n/a	25679	responseLargeH	correct	n/a	0.39844	no	n/a	n/a
101.375	n/a	25952	largeHSmallT	correct	incongruent	0.41797	no	H	T
101.7929688	n/a	26059	responseLargeH	correct	n/a	0.41797	no	n/a	n/a
102.8554688	n/a	26331	largeTSmallH	correct	incongruent	0.42578	no	T	H
103.28125	n/a	26440	responseLargeT	correct	n/a	0.42578	no	n/a	n/a
104.3476562	n/a	26713	largeHSmallH	correct	congruent	0.37891	no	H	H
104.7265625	n/a	26810	responseLargeH	correct	n/a	0.37891	no	n/a	n/a
105.7890625	n/a	27082	largeHSmallH	correct	congruent	0.40234	no	H	H
106.1914062	n/a	27185	responseLargeH	correct	n/a	0.40234	no	n/a	n/a
107.2539062	n/a	27457	largeTSmallT	correct	congruent	0.38672	no	T	T
107.640625	n/a	27556	responseLargeT	correct	n/a	0.38672	no	n/a	n/a
108.7070312	n/a	27829	largeTSmallT	correct	congruent	0.43359	no	T	T
109.140625	n/a	27940	responseLargeT	correct	n/a	0.43359	no	n/a	n/a
110.203125	n/a	28212	largeTSmallH	correct	incongruent	0.375	no	T	H
110.578125	n/a	28308	responseLargeT	correct	n/a	0.375	no	n/a	n/a
111.640625	n/a	28580	largeTSmallH	correct	incongruent	0.36719	no	T	H
112.0078125	n/a	28674	responseLargeT	correct	n/a	0.36719	no	n/a	n/a
113.0820312	n/a	28949	largeTSmallH	correct	incongruent	0.38281	no	T	H
113.4648438	n/a	29047	responseLargeT	correct	n/a	0.38281	no	n/a	n/a
114.5234375	n/a	29318	largeTSmallT	correct	congruent	0.40625	no	T	T
114.9296875	n/a	29422	responseLargeT	correct	n/a	0.40625	no	n/a	n/a
115.9882812	n/a	29693	largeHSmallT	correct	incongruent	0.47656	no	H	T
116.4648438	n/a	29815	responseLargeH	correct	n/a	0.47656	no	n/a	n/a
117.5351562	n/a	30089	largeTSmallH	correct	incongruent	0.46094	no	T	H
117.9960938	n/a	30207	responseLargeT	correct	n/a	0.46094	no	n/a	n/a
119.0703125	n/a	30482	largeTSmallT	correct	congruent	0.375	no	T	T
119.4453125	n/a	30578	responseLargeT	correct	n/a	0.375	no	n/a	n/a
120.5234375	n/a	30854	largeTSmallH	correct	incongruent	0.41016	no	T	H
120.9335938	n/a	30959	responseLargeT	correct	n/a	0.41016	no	n/a	n/a
122	n/a	31232	largeHSmallT	correct	incongruent	0.44141	no	H	T
122.4414062	n/a	31345	responseLargeH	correct	n/a	0.44141	no	n/a	n/a
123.5078125	n/a	31618	largeTSmallT	correct	congruent	0.39844	no	T	T
123.90625	n/a	31720	responseLargeT	correct	n/a	0.39844	no	n/a	n/a
124.9765625	n/a	31994	largeTSmallH	correct	incongruent	0.39453	no	T	H
125.3710938	n/a	32095	responseLargeT	correct	n/a	0.39453	no	n/a	n/a
126.4414062	n/a	32369	largeHSmallH	correct	congruent	0.46094	no	H	H
126.9023438	n/a	32487	responseLargeH	correct	n/a	0.46094	no	n/a	n/a
127.9765625	n/a	32762	largeHSmallH	correct	congruent	0.42188	no	H	H
128.3984375	n/a	32870	responseLargeH	correct	n/a	0.42188	no	n/a	n/a
129.46875	n/a	33144	largeHSmallH	correct	congruent	0.52734	no	H	H
129.9960938	n/a	33279	responseLargeH	correct	n/a	0.52734	no	n/a	n/a
131.0546875	n/a	33550	largeTSmallT	correct	congruent	0.44531	no	T	T
131.5	n/a	33664	responseLargeT	correct	n/a	0.44531	no	n/a	n/a
132.5742188	n/a	33939	largeHSmallH	correct	congruent	0.42188	no	H	H
132.9960938	n/a	34047	responseLargeH	correct	n/a	0.42188	no	n/a	n/a
134.0664062	n/a	34321	largeTSmallH	correct	incongruent	0.41797	no	T	H
134.484375	n/a	34428	responseLargeT	correct	n/a	0.41797	no	n/a	n/a
135.546875	n/a	34700	largeHSmallH	correct	congruent	0.48047	no	H	H
136.0273438	n/a	34823	responseLargeH	correct	n/a	0.48047	no	n/a	n/a
137.09375	n/a	35096	largeHSmallH	correct	congruent	0.42969	no	H	H
137.5234375	n/a	35206	responseLargeH	correct	n/a	0.42969	no	n/a	n/a
138.6015625	n/a	35482	largeTSmallT	correct	congruent	0.42969	no	T	T
139.03125	n/a	35592	responseLargeT	correct	n/a	0.42969	no	n/a	n/a
140.09375	n/a	35864	largeTSmallH	correct	incongruent	0.39062	no	T	H
140.484375	n/a	35964	responseLargeT	correct	n/a	0.39062	no	n/a	n/a
141.546875	n/a	36236	largeHSmallH	correct	congruent	0.42969	no	H	H
141.9765625	n/a	36346	responseLargeH	correct	n/a	0.42969	no	n/a	n/a
143.0429688	n/a	36619	largeTSmallT	correct	congruent	0.46094	no	T	T
143.5039062	n/a	36737	responseLargeT	correct	n/a	0.46094	no	n/a	n/a
144.5742188	n/a	37011	largeTSmallT	correct	congruent	0.40234	no	T	T
144.9765625	n/a	37114	responseLargeT	correct	n/a	0.40234	no	n/a	n/a
146.0429688	n/a	37387	largeHSmallH	correct	congruent	0.41406	no	H	H
146.4570312	n/a	37493	responseLargeH	correct	n/a	0.41406	no	n/a	n/a
147.5195312	n/a	37765	largeHSmallT	correct	incongruent	0.38281	no	H	T
147.9023438	n/a	37863	responseLargeH	correct	n/a	0.38281	no	n/a	n/a
148.9726562	n/a	38137	largeHSmallT	correct	incongruent	0.38672	no	H	T
149.359375	n/a	38236	responseLargeH	correct	n/a	0.38672	no	n/a	n/a
150.4140625	n/a	38506	largeHSmallT	correct	incongruent	0.44922	no	H	T
150.8632812	n/a	38621	responseLargeH	correct	n/a	0.44922	no	n/a	n/a
151.9335938	n/a	38895	largeTSmallH	correct	incongruent	0.39453	no	T	H
152.328125	n/a	38996	responseLargeT	correct	n/a	0.39453	no	n/a	n/a
153.4023438	n/a	39271	largeHSmallT	correct	incongruent	0.40625	no	H	T
153.8085938	n/a	39375	responseLargeH	correct	n/a	0.40625	no	n/a	n/a
154.8828125	n/a	39650	largeTSmallT	correct	congruent	0.40625	no	T	T
155.2890625	n/a	39754	responseLargeT	correct	n/a	0.40625	no	n/a	n/a
156.3476562	n/a	40025	largeTSmallT	correct	congruent	0.41406	no	T	T
156.7617188	n/a	40131	responseLargeT	correct	n/a	0.41406	no	n/a	n/a
157.828125	n/a	40404	largeHSmallH	correct	congruent	0.41016	no	H	H
158.2382812	n/a	40509	responseLargeH	correct	n/a	0.41016	no	n/a	n/a
159.3085938	n/a	40783	largeTSmallT	correct	congruent	0.41406	no	T	T
159.7226562	n/a	40889	responseLargeT	correct	n/a	0.41406	no	n/a	n/a
160.8007812	n/a	41165	largeTSmallH	correct	incongruent	0.44922	no	T	H
161.25	n/a	41280	responseLargeT	correct	n/a	0.44922	no	n/a	n/a
162.3203125	n/a	41554	largeHSmallT	correct	incongruent	0.41406	no	H	T
162.734375	n/a	41660	responseLargeH	correct	n/a	0.41406	no	n/a	n/a
163.8007812	n/a	41933	largeHSmallH	correct	congruent	0.38281	no	H	H
164.1835938	n/a	42031	responseLargeH	correct	n/a	0.38281	no	n/a	n/a
165.2539062	n/a	42305	largeTSmallT	correct	congruent	0.41016	no	T	T
165.6640625	n/a	42410	responseLargeT	correct	n/a	0.41016	no	n/a	n/a
166.7226562	n/a	42681	largeHSmallH	correct	congruent	0.37109	no	H	H
167.09375	n/a	42776	responseLargeH	correct	n/a	0.37109	no	n/a	n/a
168.1601562	n/a	43049	largeTSmallH	correct	incongruent	0.34375	no	T	H
168.5039062	n/a	43137	responseLargeT	correct	n/a	0.34375	no	n/a	n/a
169.5625	n/a	43408	largeHSmallH	correct	congruent	0.35156	no	H	H
169.9140625	n/a	43498	responseLargeH	correct	n/a	0.35156	no	n/a	n/a
170.9882812	n/a	43773	largeHSmallT	correct	incongruent	0.37891	no	H	T
171.3671875	n/a	43870	responseLargeH	correct	n/a	0.37891	no	n/a	n/a
172.4414062	n/a	44145	largeHSmallT	correct	incongruent	0.35156	no	H	T
172.7929688	n/a	44235	responseLargeH	correct	n/a	0.35156	no	n/a	n/a
173.8554688	n/a	44507	largeTSmallT	correct	congruent	0.43359	no	T	T
174.2890625	n/a	44618	responseLargeT	correct	n/a	0.43359	no	n/a	n/a
175.3476562	n/a	44889	largeTSmallT	correct	congruent	0.35938	no	T	T
175.7070312	n/a	44981	responseLargeT	correct	n/a	0.35938	no	n/a	n/a
176.7734375	n/a	45254	largeHSmallT	correct	incongruent	0.38672	no	H	T
177.1601562	n/a	45353	responseLargeH	correct	n/a	0.38672	no	n/a	n/a
178.2148438	n/a	45623	largeTSmallH	correct	incongruent	0.38672	no	T	H
178.6015625	n/a	45722	responseLargeT	correct	n/a	0.38672	no	n/a	n/a
179.6679688	n/a	45995	largeHSmallT	correct	incongruent	0.34766	no	H	T
180.015625	n/a	46084	responseLargeH	correct	n/a	0.34766	no	n/a	n/a
181.09375	n/a	46360	largeHSmallH	correct	congruent	0.41406	no	H	H
181.5078125	n/a	46466	responseLargeH	correct	n/a	0.41406	no	n/a	n/a
182.5742188	n/a	46739	largeHSmallH	correct	congruent	0.37891	no	H	H
182.953125	n/a	46836	responseLargeH	correct	n/a	0.37891	no	n/a	n/a
184.0273438	n/a	47111	largeHSmallH	correct	congruent	0.37109	no	H	H
184.3984375	n/a	47206	responseLargeH	correct	n/a	0.37109	no	n/a	n/a
185.46875	n/a	47480	largeTSmallT	correct	congruent	0.45312	no	T	T
185.921875	n/a	47596	responseLargeT	correct	n/a	0.45312	no	n/a	n/a
186.9882812	n/a	47869	largeHSmallT	correct	incongruent	0.37891	no	H	T
187.3671875	n/a	47966	responseLargeH	correct	n/a	0.37891	no	n/a	n/a
188.4414062	n/a	48241	largeHSmallT	correct	incongruent	0.39844	no	H	T
188.8398438	n/a	48343	responseLargeH	correct	n/a	0.39844	no	n/a	n/a
189.90625	n/a	48616	largeHSmallH	correct	congruent	0.38281	no	H	H
190.2890625	n/a	48714	responseLargeH	correct	n/a	0.38281	no	n/a	n/a
191.359375	n/a	48988	largeTSmallT	correct	congruent	0.42578	no	T	T
191.7851562	n/a	49097	responseLargeT	correct	n/a	0.42578	no	n/a	n/a
192.8554688	n/a	49371	largeTSmallT	correct	congruent	0.41406	no	T	T
193.2695312	n/a	49477	responseLargeT	correct	n/a	0.41406	no	n/a	n/a
194.3320312	n/a	49749	largeTSmallH	correct	incongruent	0.40234	no	T	H
194.734375	n/a	49852	responseLargeT	correct	n/a	0.40234	no	n/a	n/a
195.8007812	n/a	50125	largeHSmallH	correct	congruent	0.39453	no	H	H
196.1953125	n/a	50226	responseLargeH	correct	n/a	0.39453	no	n/a	n/a
197.265625	n/a	50500	largeTSmallT	correct	congruent	0.42578	no	T	T
197.6914062	n/a	50609	responseLargeT	correct	n/a	0.42578	no	n/a	n/a
198.7460938	n/a	50879	largeTSmallH	correct	incongruent	0.41406	no	T	H
199.1601562	n/a	50985	responseLargeT	correct	n/a	0.41406	no	n/a	n/a
200.2265625	n/a	51258	largeHSmallH	correct	congruent	0.39453	no	H	H
200.6210938	n/a	51359	responseLargeH	correct	n/a	0.39453	no	n/a	n/a
201.6796875	n/a	51630	largeHSmallH	correct	congruent	0.37891	no	H	H
202.0585938	n/a	51727	responseLargeH	correct	n/a	0.37891	no	n/a	n/a
203.1210938	n/a	51999	largeTSmallH	correct	incongruent	0.43359	no	T	H
203.5546875	n/a	52110	responseLargeT	correct	n/a	0.43359	no	n/a	n/a
204.6132812	n/a	52381	largeHSmallT	correct	incongruent	0.38672	no	H	T
205	n/a	52480	responseLargeH	correct	n/a	0.38672	no	n/a	n/a
206.0664062	n/a	52753	largeHSmallT	correct	incongruent	0.44141	no	H	T
206.5078125	n/a	52866	responseLargeH	correct	n/a	0.44141	no	n/a	n/a
207.5859375	n/a	53142	largeHSmallT	correct	incongruent	0.39453	no	H	T
207.9804688	n/a	53243	responseLargeH	correct	n/a	0.39453	no	n/a	n/a
209.0546875	n/a	53518	largeHSmallT	correct	incongruent	0.41797	no	H	T
209.4726562	n/a	53625	responseLargeH	correct	n/a	0.41797	no	n/a	n/a
210.546875	n/a	53900	largeTSmallT	correct	congruent	0.41406	no	T	T
210.9609375	n/a	54006	responseLargeT	correct	n/a	0.41406	no	n/a	n/a
212.0273438	n/a	54279	largeTSmallT	correct	congruent	0.40234	no	T	T
212.4296875	n/a	54382	responseLargeT	correct	n/a	0.40234	no	n/a	n/a
213.4921875	n/a	54654	largeHSmallH	correct	congruent	0.41016	no	H	H
213.9023438	n/a	54759	responseLargeH	correct	n/a	0.41016	no	n/a	n/a
214.9726562	n/a	55033	largeHSmallT	correct	incongruent	0.38672	no	H	T
215.359375	n/a	55132	responseLargeH	correct	n/a	0.38672	no	n/a	n/a
216.4257812	n/a	55405	largeHSmallH	correct	congruent	0.35156	no	H	H
216.7773438	n/a	55495	responseLargeH	correct	n/a	0.35156	no	n/a	n/a
217.8398438	n/a	55767	largeHSmallT	correct	incongruent	0.37891	no	H	T
218.21875	n/a	55864	responseLargeH	correct	n/a	0.37891	no	n/a	n/a
219.28125	n/a	56136	largeHSmallH	correct	congruent	0.41016	no	H	H
219.6914062	n/a	56241	responseLargeH	correct	n/a	0.41016	no	n/a	n/a
220.7578125	n/a	56514	largeHSmallT	correct	incongruent	0.39453	no	H	T
221.1523438	n/a	56615	responseLargeH	correct	n/a	0.39453	no	n/a	n/a
222.2265625	n/a	56890	largeTSmallH	correct	incongruent	0.45312	no	T	H
222.6796875	n/a	57006	responseLargeT	correct	n/a	0.45312	no	n/a	n/a
223.7460938	n/a	57279	largeHSmallH	correct	congruent	0.38672	no	H	H
224.1328125	n/a	57378	responseLargeH	correct	n/a	0.38672	no	n/a	n/a
225.1875	n/a	57648	largeTSmallH	correct	incongruent	0.45312	no	T	H
225.640625	n/a	57764	responseLargeT	correct	n/a	0.45312	no	n/a	n/a
226.7070312	n/a	58037	largeTSmallT	correct	congruent	0.38281	no	T	T
227.0898438	n/a	58135	responseLargeT	correct	n/a	0.38281	no	n/a	n/a
228.1601562	n/a	58409	largeTSmallT	correct	congruent	0.40234	no	T	T
228.5625	n/a	58512	responseLargeT	correct	n/a	0.40234	no	n/a	n/a
229.640625	n/a	58788	largeTSmallT	correct	congruent	0.37891	no	T	T
230.0195312	n/a	58885	responseLargeT	correct	n/a	0.37891	no	n/a	n/a
231.09375	n/a	59160	largeHSmallT	correct	incongruent	0.51172	no	H	T
231.6054688	n/a	59291	responseLargeH	correct	n/a	0.51172	no	n/a	n/a
232.6679688	n/a	59563	largeTSmallH	correct	incongruent	0.47656	no	T	H
233.1445312	n/a	59685	responseLargeT	correct	n/a	0.47656	no	n/a	n/a
234.2109375	n/a	59958	largeTSmallT	correct	congruent	0.42578	no	T	T
234.6367188	n/a	60067	responseLargeT	correct	n/a	0.42578	no	n/a	n/a
235.7070312	n/a	60341	largeTSmallH	correct	incongruent	0.39453	no	T	H
236.1015625	n/a	60442	responseLargeT	correct	n/a	0.39453	no	n/a	n/a
237.171875	n/a	60716	largeHSmallH	correct	congruent	0.39453	no	H	H
237.5664062	n/a	60817	responseLargeH	correct	n/a	0.39453	no	n/a	n/a
238.640625	n/a	61092	largeTSmallH	correct	incongruent	0.38281	no	T	H
239.0234375	n/a	61190	responseLargeT	correct	n/a	0.38281	no	n/a	n/a
240.09375	n/a	61464	largeHSmallH	correct	congruent	0.37891	no	H	H
240.4726562	n/a	61561	responseLargeH	correct	n/a	0.37891	no	n/a	n/a
241.546875	n/a	61836	largeTSmallH	correct	incongruent	0.32422	no	T	H
241.8710938	n/a	61919	responseLargeT	correct	n/a	0.32422	no	n/a	n/a
242.9335938	n/a	62191	largeTSmallH	correct	incongruent	0.44531	no	T	H
243.3789062	n/a	62305	responseLargeT	correct	n/a	0.44531	no	n/a	n/a
244.4375	n/a	62576	largeTSmallT	correct	congruent	0.59766	no	T	T
245.0351562	n/a	62729	responseLargeT	correct	n/a	0.59766	no	n/a	n/a
246.09375	n/a	63000	largeHSmallT	correct	incongruent	0.44922	no	H	T
246.5429688	n/a	63115	responseLargeH	correct	n/a	0.44922	no	n/a	n/a
247.6132812	n/a	63389	largeHSmallT	correct	incongruent	0.39453	no	H	T
248.0078125	n/a	63490	responseLargeH	correct	n/a	0.39453	no	n/a	n/a
249.078125	n/a	63764	largeHSmallT	correct	incongruent	0.39062	no	H	T
249.46875	n/a	63864	responseLargeH	correct	n/a	0.39062	no	n/a	n/a
250.546875	n/a	64140	largeTSmallH	correct	incongruent	0.44922	no	T	H
250.9960938	n/a	64255	responseLargeT	correct	n/a	0.44922	no	n/a	n/a
252.0507812	n/a	64525	largeHSmallH	correct	congruent	0.39453	no	H	H
252.4453125	n/a	64626	responseLargeH	correct	n/a	0.39453	no	n/a	n/a
253.5039062	n/a	64897	largeHSmallT	correct	incongruent	0.38281	no	H	T
253.8867188	n/a	64995	responseLargeH	correct	n/a	0.38281	no	n/a	n/a
254.9570312	n/a	65269	largeTSmallT	correct	congruent	0.40625	no	T	T
255.3632812	n/a	65373	responseLargeT	correct	n/a	0.40625	no	n/a	n/a
256.4375	n/a	65648	largeHSmallT	correct	incongruent	0.39453	no	H	T
256.8320312	n/a	65749	responseLargeH	correct	n/a	0.39453	no	n/a	n/a
257.90625	n/a	66024	largeHSmallT	correct	incongruent	0.37109	no	H	T
258.2773438	n/a	66119	responseLargeH	correct	n/a	0.37109	no	n/a	n/a
259.34375	n/a	66392	largeTSmallT	correct	congruent	0.45312	no	T	T
259.796875	n/a	66508	responseLargeT	correct	n/a	0.45312	no	n/a	n/a
260.8671875	n/a	66782	largeHSmallT	correct	incongruent	0.35938	no	H	T
261.2265625	n/a	66874	responseLargeH	correct	n/a	0.35938	no	n/a	n/a
262.2929688	n/a	67147	largeTSmallT	correct	congruent	0.40625	no	T	T
262.6992188	n/a	67251	responseLargeT	correct	n/a	0.40625	no	n/a	n/a
263.7734375	n/a	67526	largeHSmallT	correct	incongruent	0.31641	no	H	T
264.0898438	n/a	67607	responseLargeH	correct	n/a	0.31641	no	n/a	n/a
265.1601562	n/a	67881	largeHSmallT	correct	incongruent	0.40625	no	H	T
265.5664062	n/a	67985	responseLargeH	correct	n/a	0.40625	no	n/a	n/a
266.625	n/a	68256	largeHSmallT	correct	incongruent	0.40625	no	H	T
267.03125	n/a	68360	responseLargeH	correct	n/a	0.40625	no	n/a	n/a
268.09375	n/a	68632	largeTSmallH	correct	incongruent	0.40625	no	T	H
268.5	n/a	68736	responseLargeT	correct	n/a	0.40625	no	n/a	n/a
269.5585938	n/a	69007	largeTSmallT	correct	congruent	0.38672	no	T	T
269.9453125	n/a	69106	responseLargeT	correct	n/a	0.38672	no	n/a	n/a
271.0117188	n/a	69379	largeHSmallH	correct	congruent	0.36719	no	H	H
271.3789062	n/a	69473	responseLargeH	correct	n/a	0.36719	no	n/a	n/a
272.4375	n/a	69744	largeHSmallT	correct	incongruent	0.38281	no	H	T
272.8203125	n/a	69842	responseLargeH	correct	n/a	0.38281	no	n/a	n/a
273.890625	n/a	70116	largeHSmallT	correct	incongruent	0.37109	no	H	T
274.2617188	n/a	70211	responseLargeH	correct	n/a	0.37109	no	n/a	n/a
275.3320312	n/a	70485	largeHSmallH	correct	congruent	0.39062	no	H	H
275.7226562	n/a	70585	responseLargeH	correct	n/a	0.39062	no	n/a	n/a
276.796875	n/a	70860	largeHSmallT	correct	incongruent	0.40234	no	H	T
277.1992188	n/a	70963	responseLargeH	correct	n/a	0.40234	no	n/a	n/a
278.265625	n/a	71236	largeHSmallH	correct	congruent	0.34375	no	H	H
278.609375	n/a	71324	responseLargeH	correct	n/a	0.34375	no	n/a	n/a
279.6796875	n/a	71598	largeTSmallT	correct	congruent	0.39062	no	T	T
280.0703125	n/a	71698	responseLargeT	correct	n/a	0.39062	no	n/a	n/a
281.1328125	n/a	71970	largeTSmallH	correct	incongruent	0.41406	no	T	H
281.546875	n/a	72076	responseLargeT	correct	n/a	0.41406	no	n/a	n/a
282.6132812	n/a	72349	largeHSmallT	correct	incongruent	0.37891	no	H	T
282.9921875	n/a	72446	responseLargeH	correct	n/a	0.37891	no	n/a	n/a
284.0507812	n/a	72717	largeTSmallH	correct	incongruent	0.42578	no	T	H
284.4765625	n/a	72826	responseLargeT	correct	n/a	0.42578	no	n/a	n/a
285.5429688	n/a	73099	largeTSmallT	correct	congruent	0.38281	no	T	T
285.9257812	n/a	73197	responseLargeT	correct	n/a	0.38281	no	n/a	n/a
286.9960938	n/a	73471	largeHSmallT	correct	incongruent	0.37109	no	H	T
287.3671875	n/a	73566	responseLargeH	correct	n/a	0.37109	no	n/a	n/a
288.4375	n/a	73840	largeTSmallT	correct	congruent	0.375	no	T	T
288.8125	n/a	73936	responseLargeT	correct	n/a	0.375	no	n/a	n/a
289.8632812	n/a	74205	largeHSmallH	correct	congruent	0.37891	no	H	H
290.2421875	n/a	74302	responseLargeH	correct	n/a	0.37891	no	n/a	n/a
291.3046875	n/a	74574	largeTSmallT	correct	congruent	0.31641	no	T	T
291.6210938	n/a	74655	responseLargeT	correct	n/a	0.31641	no	n/a	n/a
292.6914062	n/a	74929	largeHSmallH	correct	congruent	0.35547	no	H	H
293.046875	n/a	75020	responseLargeH	correct	n/a	0.35547	no	n/a	n/a
294.1171875	n/a	75294	largeTSmallT	correct	congruent	0.26953	no	T	T
294.3867188	n/a	75363	responseLargeT	correct	n/a	0.26953	no	n/a	n/a
295.4492188	n/a	75635	largeHSmallH	correct	congruent	0.42188	no	H	H
295.8710938	n/a	75743	responseLargeH	correct	n/a	0.42188	no	n/a	n/a
296.9453125	n/a	76018	largeTSmallT	correct	congruent	0.29297	no	T	T
297.2382812	n/a	76093	responseLargeT	correct	n/a	0.29297	no	n/a	n/a
298.3046875	n/a	76366	largeTSmallT	correct	congruent	0.41016	no	T	T
298.7148438	n/a	76471	responseLargeT	correct	n/a	0.41016	no	n/a	n/a
299.7695312	n/a	76741	largeTSmallH	correct	incongruent	0.45312	no	T	H
300.2226562	n/a	76857	responseLargeT	correct	n/a	0.45312	no	n/a	n/a
301.2929688	n/a	77131	largeHSmallH	correct	congruent	0.44141	no	H	H
301.734375	n/a	77244	responseLargeH	correct	n/a	0.44141	no	n/a	n/a
305.7304688	n/a	78267	largeHSmallT	correct	incongruent	0.98828	no	H	T
306.71875	n/a	78520	responseSmallT	correct	n/a	0.98828	no	n/a	n/a
307.7851562	n/a	78793	largeTSmallH	correct	incongruent	0.51562	no	T	H
308.3007812	n/a	78925	responseSmallH	correct	n/a	0.51562	no	n/a	n/a
309.3710938	n/a	79199	largeHSmallT	correct	incongruent	0.55469	no	H	T
309.9257812	n/a	79341	responseSmallT	correct	n/a	0.55469	no	n/a	n/a
310.9960938	n/a	79615	largeHSmallT	correct	incongruent	0.49219	no	H	T
311.4882812	n/a	79741	responseSmallT	correct	n/a	0.49219	no	n/a	n/a
312.5585938	n/a	80015	largeTSmallT	correct	congruent	0.78516	no	T	T
313.34375	n/a	80216	responseSmallT	correct	n/a	0.78516	no	n/a	n/a
314.4101562	n/a	80489	largeTSmallT	correct	congruent	0.43359	no	T	T
314.84375	n/a	80600	responseSmallT	correct	n/a	0.43359	no	n/a	n/a
315.9023438	n/a	80871	largeHSmallH	correct	congruent	0.53516	no	H	H
316.4375	n/a	81008	responseSmallH	correct	n/a	0.53516	no	n/a	n/a
317.515625	n/a	81284	largeTSmallH	error	incongruent	0.42188	no	T	H
317.9375	n/a	81392	responseSmallT	error	n/a	0.42188	no	n/a	n/a
319.0117188	n/a	81667	largeHSmallH	correct	congruent	0.49219	no	H	H
319.5039062	n/a	81793	responseSmallH	correct	n/a	0.49219	no	n/a	n/a
320.5703125	n/a	82066	largeTSmallT	correct	congruent	0.71484	no	T	T
321.2851562	n/a	82249	responseSmallT	correct	n/a	0.71484	no	n/a	n/a
322.34375	n/a	82520	largeTSmallT	correct	congruent	0.47266	no	T	T
322.8164062	n/a	82641	responseSmallT	correct	n/a	0.47266	no	n/a	n/a
323.8789062	n/a	82913	largeTSmallT	correct	congruent	0.45312	no	T	T
324.3320312	n/a	83029	responseSmallT	correct	n/a	0.45312	no	n/a	n/a
325.4101562	n/a	83305	largeHSmallT	correct	incongruent	0.55859	no	H	T
325.96875	n/a	83448	responseSmallT	correct	n/a	0.55859	no	n/a	n/a
327.0234375	n/a	83718	largeTSmallT	correct	congruent	0.44922	no	T	T
327.4726562	n/a	83833	responseSmallT	correct	n/a	0.44922	no	n/a	n/a
328.5429688	n/a	84107	largeTSmallH	correct	incongruent	0.50391	no	T	H
329.046875	n/a	84236	responseSmallH	correct	n/a	0.50391	no	n/a	n/a
330.1171875	n/a	84510	largeTSmallH	correct	incongruent	0.49609	no	T	H
330.6132812	n/a	84637	responseSmallH	correct	n/a	0.49609	no	n/a	n/a
331.6757812	n/a	84909	largeHSmallH	correct	congruent	0.55078	no	H	H
332.2265625	n/a	85050	responseSmallH	correct	n/a	0.55078	no	n/a	n/a
333.3046875	n/a	85326	largeHSmallH	correct	congruent	0.42969	no	H	H
333.734375	n/a	85436	responseSmallH	correct	n/a	0.42969	no	n/a	n/a
334.796875	n/a	85708	largeHSmallH	correct	congruent	0.42578	no	H	H
335.2226562	n/a	85817	responseSmallH	correct	n/a	0.42578	no	n/a	n/a
336.2890625	n/a	86090	largeHSmallH	correct	congruent	0.41406	no	H	H
336.703125	n/a	86196	responseSmallH	correct	n/a	0.41406	no	n/a	n/a
337.7851562	n/a	86473	largeTSmallT	correct	congruent	0.45312	no	T	T
338.2382812	n/a	86589	responseSmallT	correct	n/a	0.45312	no	n/a	n/a
339.3046875	n/a	86862	largeHSmallH	correct	congruent	0.47656	no	H	H
339.78125	n/a	86984	responseSmallH	correct	n/a	0.47656	no	n/a	n/a
340.8515625	n/a	87258	largeTSmallH	correct	incongruent	0.48828	no	T	H
341.3398438	n/a	87383	responseSmallH	correct	n/a	0.48828	no	n/a	n/a
342.4101562	n/a	87657	largeTSmallT	correct	congruent	0.4375	no	T	T
342.8476562	n/a	87769	responseSmallT	correct	n/a	0.4375	no	n/a	n/a
343.9023438	n/a	88039	largeHSmallT	correct	incongruent	0.47266	no	H	T
344.375	n/a	88160	responseSmallT	correct	n/a	0.47266	no	n/a	n/a
345.4375	n/a	88432	largeHSmallT	correct	incongruent	0.39844	no	H	T
345.8359375	n/a	88534	responseSmallT	correct	n/a	0.39844	no	n/a	n/a
346.9023438	n/a	88807	largeTSmallT	correct	congruent	0.4375	no	T	T
347.3398438	n/a	88919	responseSmallT	correct	n/a	0.4375	no	n/a	n/a
348.3984375	n/a	89190	largeHSmallH	correct	congruent	0.42969	no	H	H
348.828125	n/a	89300	responseSmallH	correct	n/a	0.42969	no	n/a	n/a
349.9023438	n/a	89575	largeHSmallT	correct	incongruent	0.46094	no	H	T
350.3632812	n/a	89693	responseSmallT	correct	n/a	0.46094	no	n/a	n/a
351.421875	n/a	89964	largeHSmallT	correct	incongruent	0.41016	no	H	T
351.8320312	n/a	90069	responseSmallT	correct	n/a	0.41016	no	n/a	n/a
352.890625	n/a	90340	largeTSmallT	correct	congruent	0.40234	no	T	T
353.2929688	n/a	90443	responseSmallT	correct	n/a	0.40234	no	n/a	n/a
354.3554688	n/a	90715	largeTSmallT	correct	congruent	0.38672	no	T	T
354.7421875	n/a	90814	responseSmallT	correct	n/a	0.38672	no	n/a	n/a
355.8085938	n/a	91087	largeHSmallT	correct	incongruent	0.41797	no	H	T
356.2265625	n/a	91194	responseSmallT	correct	n/a	0.41797	no	n/a	n/a
357.2890625	n/a	91466	largeHSmallH	correct	congruent	0.51562	no	H	H
357.8046875	n/a	91598	responseSmallH	correct	n/a	0.51562	no	n/a	n/a
358.8632812	n/a	91869	largeHSmallH	correct	congruent	0.55469	no	H	H
359.4179688	n/a	92011	responseSmallH	correct	n/a	0.55469	no	n/a	n/a
360.4882812	n/a	92285	largeHSmallT	correct	incongruent	0.46484	no	H	T
360.953125	n/a	92404	responseSmallT	correct	n/a	0.46484	no	n/a	n/a
362.0234375	n/a	92678	largeHSmallT	correct	incongruent	0.50391	no	H	T
362.5273438	n/a	92807	responseSmallT	correct	n/a	0.50391	no	n/a	n/a
363.5976562	n/a	93081	largeHSmallT	correct	incongruent	0.48047	no	H	T
364.078125	n/a	93204	responseSmallT	correct	n/a	0.48047	no	n/a	n/a
365.1445312	n/a	93477	largeTSmallH	correct	incongruent	0.44922	no	T	H
365.59375	n/a	93592	responseSmallH	correct	n/a	0.44922	no	n/a	n/a
366.6484375	n/a	93862	largeHSmallT	correct	incongruent	0.46094	no	H	T
367.109375	n/a	93980	responseSmallT	correct	n/a	0.46094	no	n/a	n/a
368.1835938	n/a	94255	largeHSmallT	correct	incongruent	0.44141	no	H	T
368.625	n/a	94368	responseSmallT	correct	n/a	0.44141	no	n/a	n/a
369.6914062	n/a	94641	largeTSmallH	correct	incongruent	0.45703	no	T	H
370.1484375	n/a	94758	responseSmallH	correct	n/a	0.45703	no	n/a	n/a
371.2109375	n/a	95030	largeTSmallT	correct	congruent	0.42969	no	T	T
371.640625	n/a	95140	responseSmallT	correct	n/a	0.42969	no	n/a	n/a
372.703125	n/a	95412	largeHSmallH	correct	congruent	0.41016	no	H	H
373.1132812	n/a	95517	responseSmallH	correct	n/a	0.41016	no	n/a	n/a
374.1679688	n/a	95787	largeTSmallH	correct	incongruent	0.40625	no	T	H
374.5742188	n/a	95891	responseSmallH	correct	n/a	0.40625	no	n/a	n/a
375.6367188	n/a	96163	largeHSmallT	correct	incongruent	0.44922	no	H	T
376.0859375	n/a	96278	responseSmallT	correct	n/a	0.44922	no	n/a	n/a
377.15625	n/a	96552	largeTSmallT	correct	congruent	0.52734	no	T	T
377.6835938	n/a	96687	responseSmallT	correct	n/a	0.52734	no	n/a	n/a
378.7421875	n/a	96958	largeTSmallH	correct	incongruent	0.49609	no	T	H
379.2382812	n/a	97085	responseSmallH	correct	n/a	0.49609	no	n/a	n/a
380.3046875	n/a	97358	largeHSmallH	correct	congruent	0.46875	no	H	H
380.7734375	n/a	97478	responseSmallH	correct	n/a	0.46875	no	n/a	n/a
381.8476562	n/a	97753	largeTSmallH	correct	incongruent	0.54297	no	T	H
382.390625	n/a	97892	responseSmallH	correct	n/a	0.54297	no	n/a	n/a
383.4492188	n/a	98163	largeTSmallH	correct	incongruent	0.41797	no	T	H
383.8671875	n/a	98270	responseSmallH	correct	n/a	0.41797	no	n/a	n/a
384.9414062	n/a	98545	largeHSmallH	correct	congruent	0.51562	no	H	H
385.4570312	n/a	98677	responseSmallH	correct	n/a	0.51562	no	n/a	n/a
386.53125	n/a	98952	largeTSmallT	correct	congruent	0.39062	no	T	T
386.921875	n/a	99052	responseSmallT	correct	n/a	0.39062	no	n/a	n/a
387.9960938	n/a	99327	largeHSmallH	correct	congruent	0.39062	no	H	H
388.3867188	n/a	99427	responseSmallH	correct	n/a	0.39062	no	n/a	n/a
389.4609375	n/a	99702	largeHSmallH	correct	congruent	0.41406	no	H	H
389.875	n/a	99808	responseSmallH	correct	n/a	0.41406	no	n/a	n/a
390.9414062	n/a	100081	largeTSmallH	correct	incongruent	0.42969	no	T	H
391.3710938	n/a	100191	responseSmallH	correct	n/a	0.42969	no	n/a	n/a
392.4375	n/a	100464	largeTSmallH	correct	incongruent	0.42969	no	T	H
392.8671875	n/a	100574	responseSmallH	correct	n/a	0.42969	no	n/a	n/a
393.9414062	n/a	100849	largeHSmallH	correct	congruent	0.43359	no	H	H
394.375	n/a	100960	responseSmallH	correct	n/a	0.43359	no	n/a	n/a
395.4375	n/a	101232	largeHSmallH	correct	congruent	0.42969	no	H	H
395.8671875	n/a	101342	responseSmallH	correct	n/a	0.42969	no	n/a	n/a
396.9296875	n/a	101614	largeTSmallT	correct	congruent	0.42188	no	T	T
397.3515625	n/a	101722	responseSmallT	correct	n/a	0.42188	no	n/a	n/a
398.4101562	n/a	101993	largeHSmallH	correct	congruent	0.375	no	H	H
398.7851562	n/a	102089	responseSmallH	correct	n/a	0.375	no	n/a	n/a
399.8476562	n/a	102361	largeHSmallT	error	incongruent	0.33203	no	H	T
400.1796875	n/a	102446	responseSmallH	error	n/a	0.33203	no	n/a	n/a
401.234375	n/a	102716	largeHSmallH	correct	congruent	0.51953	no	H	H
401.7539062	n/a	102849	responseSmallH	correct	n/a	0.51953	no	n/a	n/a
402.8085938	n/a	103119	largeTSmallH	correct	incongruent	0.41797	no	T	H
403.2265625	n/a	103226	responseSmallH	correct	n/a	0.41797	no	n/a	n/a
404.3007812	n/a	103501	largeTSmallH	correct	incongruent	0.48828	no	T	H
404.7890625	n/a	103626	responseSmallH	correct	n/a	0.48828	no	n/a	n/a
405.8632812	n/a	103901	largeTSmallT	correct	congruent	0.4375	no	T	T
406.3007812	n/a	104013	responseSmallT	correct	n/a	0.4375	no	n/a	n/a
407.3671875	n/a	104286	largeHSmallT	correct	incongruent	0.48047	no	H	T
407.8476562	n/a	104409	responseSmallT	correct	n/a	0.48047	no	n/a	n/a
408.9140625	n/a	104682	largeTSmallH	correct	incongruent	0.45312	no	T	H
409.3671875	n/a	104798	responseSmallH	correct	n/a	0.45312	no	n/a	n/a
410.421875	n/a	105068	largeHSmallT	correct	incongruent	0.43359	no	H	T
410.8554688	n/a	105179	responseSmallT	correct	n/a	0.43359	no	n/a	n/a
411.9296875	n/a	105454	largeTSmallH	correct	incongruent	0.4375	no	T	H
412.3671875	n/a	105566	responseSmallH	correct	n/a	0.4375	no	n/a	n/a
413.4335938	n/a	105839	largeTSmallH	correct	incongruent	0.4375	no	T	H
413.8710938	n/a	105951	responseSmallH	correct	n/a	0.4375	no	n/a	n/a
414.9414062	n/a	106225	largeTSmallT	correct	congruent	0.48438	no	T	T
415.4257812	n/a	106349	responseSmallT	correct	n/a	0.48438	no	n/a	n/a
416.5039062	n/a	106625	largeHSmallH	correct	congruent	0.41406	no	H	H
416.9179688	n/a	106731	responseSmallH	correct	n/a	0.41406	no	n/a	n/a
417.9804688	n/a	107003	largeHSmallT	correct	incongruent	0.40234	no	H	T
418.3828125	n/a	107106	responseSmallT	correct	n/a	0.40234	no	n/a	n/a
419.4492188	n/a	107379	largeTSmallH	correct	incongruent	0.42578	no	T	H
419.875	n/a	107488	responseSmallH	correct	n/a	0.42578	no	n/a	n/a
420.9414062	n/a	107761	largeTSmallT	correct	congruent	0.44531	no	T	T
421.3867188	n/a	107875	responseSmallT	correct	n/a	0.44531	no	n/a	n/a
422.4609375	n/a	108150	largeTSmallH	correct	incongruent	0.5	no	T	H
422.9609375	n/a	108278	responseSmallH	correct	n/a	0.5	no	n/a	n/a
424.0351562	n/a	108553	largeHSmallH	correct	congruent	0.47266	no	H	H
424.5078125	n/a	108674	responseSmallH	correct	n/a	0.47266	no	n/a	n/a
425.5820312	n/a	108949	largeHSmallT	correct	incongruent	0.45703	no	H	T
426.0390625	n/a	109066	responseSmallT	correct	n/a	0.45703	no	n/a	n/a
427.1015625	n/a	109338	largeTSmallT	correct	congruent	0.44531	no	T	T
427.546875	n/a	109452	responseSmallT	correct	n/a	0.44531	no	n/a	n/a
428.6210938	n/a	109727	largeHSmallT	correct	incongruent	0.49219	no	H	T
429.1132812	n/a	109853	responseSmallT	correct	n/a	0.49219	no	n/a	n/a
430.1835938	n/a	110127	largeHSmallH	correct	congruent	0.51953	no	H	H
430.703125	n/a	110260	responseSmallH	correct	n/a	0.51953	no	n/a	n/a
431.7695312	n/a	110533	largeTSmallT	correct	congruent	0.38672	no	T	T
432.15625	n/a	110632	responseSmallT	correct	n/a	0.38672	no	n/a	n/a
433.2226562	n/a	110905	largeTSmallT	correct	congruent	0.46875	no	T	T
433.6914062	n/a	111025	responseSmallT	correct	n/a	0.46875	no	n/a	n/a
434.7695312	n/a	111301	largeTSmallH	correct	incongruent	0.41797	no	T	H
435.1875	n/a	111408	responseSmallH	correct	n/a	0.41797	no	n/a	n/a
436.2617188	n/a	111683	largeTSmallH	correct	incongruent	0.41797	no	T	H
436.6796875	n/a	111790	responseSmallH	correct	n/a	0.41797	no	n/a	n/a
437.7421875	n/a	112062	largeTSmallH	correct	incongruent	0.40234	no	T	H
438.1445312	n/a	112165	responseSmallH	correct	n/a	0.40234	no	n/a	n/a
439.2070312	n/a	112437	largeTSmallH	correct	incongruent	0.41016	no	T	H
439.6171875	n/a	112542	responseSmallH	correct	n/a	0.41016	no	n/a	n/a
440.6875	n/a	112816	largeTSmallT	correct	congruent	0.44922	no	T	T
441.1367188	n/a	112931	responseSmallT	correct	n/a	0.44922	no	n/a	n/a
442.2070312	n/a	113205	largeHSmallT	correct	incongruent	0.52734	no	H	T
442.734375	n/a	113340	responseSmallT	correct	n/a	0.52734	no	n/a	n/a
443.7929688	n/a	113611	largeTSmallH	correct	incongruent	0.41406	no	T	H
444.2070312	n/a	113717	responseSmallH	correct	n/a	0.41406	no	n/a	n/a
445.2734375	n/a	113990	largeTSmallH	correct	incongruent	0.44531	no	T	H
445.71875	n/a	114104	responseSmallH	correct	n/a	0.44531	no	n/a	n/a
446.7929688	n/a	114379	largeTSmallT	correct	congruent	0.38672	no	T	T
447.1796875	n/a	114478	responseSmallT	correct	n/a	0.38672	no	n/a	n/a
448.2460938	n/a	114751	largeHSmallH	correct	congruent	0.4375	no	H	H
448.6835938	n/a	114863	responseSmallH	correct	n/a	0.4375	no	n/a	n/a
449.7539062	n/a	115137	largeTSmallT	correct	congruent	0.35156	no	T	T
450.1054688	n/a	115227	responseSmallT	correct	n/a	0.35156	no	n/a	n/a
451.1679688	n/a	115499	largeHSmallT	correct	incongruent	0.50391	no	H	T
451.671875	n/a	115628	responseSmallT	correct	n/a	0.50391	no	n/a	n/a
452.7265625	n/a	115898	largeTSmallH	correct	incongruent	0.40234	no	T	H
453.1289062	n/a	116001	responseSmallH	correct	n/a	0.40234	no	n/a	n/a
454.1953125	n/a	116274	largeHSmallT	correct	incongruent	0.40234	no	H	T
454.5976562	n/a	116377	responseSmallT	correct	n/a	0.40234	no	n/a	n/a
455.6601562	n/a	116649	largeHSmallT	correct	incongruent	0.47266	no	H	T
456.1328125	n/a	116770	responseSmallT	correct	n/a	0.47266	no	n/a	n/a
457.1953125	n/a	117042	largeTSmallT	correct	congruent	0.42188	no	T	T
457.6171875	n/a	117150	responseSmallT	correct	n/a	0.42188	no	n/a	n/a
458.6757812	n/a	117421	largeTSmallT	correct	congruent	0.42578	no	T	T
459.1015625	n/a	117530	responseSmallT	correct	n/a	0.42578	no	n/a	n/a
460.1796875	n/a	117806	largeTSmallH	correct	incongruent	0.44922	no	T	H
460.6289062	n/a	117921	responseSmallH	correct	n/a	0.44922	no	n/a	n/a
461.6875	n/a	118192	largeHSmallH	correct	congruent	0.41016	no	H	H
462.0976562	n/a	118297	responseSmallH	correct	n/a	0.41016	no	n/a	n/a
463.1679688	n/a	118571	largeTSmallH	correct	incongruent	0.42188	no	T	H
463.5898438	n/a	118679	responseSmallH	correct	n/a	0.42188	no	n/a	n/a
464.6484375	n/a	118950	largeTSmallT	correct	congruent	0.50781	no	T	T
465.15625	n/a	119080	responseSmallT	correct	n/a	0.50781	no	n/a	n/a
466.234375	n/a	119356	largeHSmallH	correct	congruent	0.44531	no	H	H
466.6796875	n/a	119470	responseSmallH	correct	n/a	0.44531	no	n/a	n/a
467.7421875	n/a	119742	largeHSmallT	correct	incongruent	0.49219	no	H	T
468.234375	n/a	119868	responseSmallT	correct	n/a	0.49219	no	n/a	n/a
469.3007812	n/a	120141	largeHSmallH	correct	congruent	0.40234	no	H	H
469.703125	n/a	120244	responseSmallH	correct	n/a	0.40234	no	n/a	n/a
470.765625	n/a	120516	largeHSmallH	correct	congruent	0.45703	no	H	H
471.2226562	n/a	120633	responseSmallH	correct	n/a	0.45703	no	n/a	n/a
472.3007812	n/a	120909	largeTSmallT	correct	congruent	0.43359	no	T	T
472.734375	n/a	121020	responseSmallT	correct	n/a	0.43359	no	n/a	n/a
473.7929688	n/a	121291	largeHSmallH	correct	congruent	0.43359	no	H	H
474.2265625	n/a	121402	responseSmallH	correct	n/a	0.43359	no	n/a	n/a
475.3007812	n/a	121677	largeHSmallH	correct	congruent	0.39453	no	H	H
475.6953125	n/a	121778	responseSmallH	correct	n/a	0.39453	no	n/a	n/a
476.7539062	n/a	122049	largeHSmallH	correct	congruent	0.40625	no	H	H
477.1601562	n/a	122153	responseSmallH	correct	n/a	0.40625	no	n/a	n/a
478.21875	n/a	122424	largeTSmallT	correct	congruent	0.41406	no	T	T
478.6328125	n/a	122530	responseSmallT	correct	n/a	0.41406	no	n/a	n/a
479.7148438	n/a	122807	largeHSmallH	correct	congruent	0.41406	no	H	H
480.1289062	n/a	122913	responseSmallH	correct	n/a	0.41406	no	n/a	n/a
481.1953125	n/a	123186	largeHSmallH	correct	congruent	0.45703	no	H	H
481.6523438	n/a	123303	responseSmallH	correct	n/a	0.45703	no	n/a	n/a
482.7148438	n/a	123575	largeHSmallT	correct	incongruent	0.40625	no	H	T
483.1210938	n/a	123679	responseSmallT	correct	n/a	0.40625	no	n/a	n/a
484.1796875	n/a	123950	largeHSmallH	error	congruent	0.41016	no	H	H
484.5898438	n/a	124055	responseSmallT	error	n/a	0.41016	no	n/a	n/a
485.6484375	n/a	124326	largeTSmallT	correct	congruent	0.43359	no	T	T
486.0820312	n/a	124437	responseSmallT	correct	n/a	0.43359	no	n/a	n/a
487.1523438	n/a	124711	largeTSmallH	correct	incongruent	0.54297	no	T	H
487.6953125	n/a	124850	responseSmallH	correct	n/a	0.54297	no	n/a	n/a
488.7539062	n/a	125121	largeHSmallT	correct	incongruent	0.42969	no	H	T
489.1835938	n/a	125231	responseSmallT	correct	n/a	0.42969	no	n/a	n/a
490.2460938	n/a	125503	largeHSmallH	correct	congruent	0.43359	no	H	H
490.6796875	n/a	125614	responseSmallH	correct	n/a	0.43359	no	n/a	n/a
491.7539062	n/a	125889	largeHSmallH	correct	congruent	0.4375	no	H	H
492.1914062	n/a	126001	responseSmallH	correct	n/a	0.4375	no	n/a	n/a
493.2617188	n/a	126275	largeTSmallH	correct	incongruent	0.43359	no	T	H
493.6953125	n/a	126386	responseSmallH	correct	n/a	0.43359	no	n/a	n/a
494.765625	n/a	126660	largeHSmallT	correct	incongruent	0.48828	no	H	T
495.2539062	n/a	126785	responseSmallT	correct	n/a	0.48828	no	n/a	n/a
496.328125	n/a	127060	largeTSmallT	correct	congruent	0.47656	no	T	T
496.8046875	n/a	127182	responseSmallT	correct	n/a	0.47656	no	n/a	n/a
497.859375	n/a	127452	largeHSmallT	correct	incongruent	0.43359	no	H	T
498.2929688	n/a	127563	responseSmallT	correct	n/a	0.43359	no	n/a	n/a
499.3671875	n/a	127838	largeHSmallH	correct	congruent	0.39844	no	H	H
499.765625	n/a	127940	responseSmallH	correct	n/a	0.39844	no	n/a	n/a
500.8320312	n/a	128213	largeTSmallT	correct	congruent	0.42969	no	T	T
501.2617188	n/a	128323	responseSmallT	correct	n/a	0.42969	no	n/a	n/a
502.328125	n/a	128596	largeHSmallT	correct	incongruent	0.42969	no	H	T
502.7578125	n/a	128706	responseSmallT	correct	n/a	0.42969	no	n/a	n/a
503.8203125	n/a	128978	largeHSmallT	correct	incongruent	0.37109	no	H	T
504.1914062	n/a	129073	responseSmallT	correct	n/a	0.37109	no	n/a	n/a
505.2617188	n/a	129347	largeTSmallH	correct	incongruent	0.46094	no	T	H
505.7226562	n/a	129465	responseSmallH	correct	n/a	0.46094	no	n/a	n/a
506.7929688	n/a	129739	largeTSmallH	correct	incongruent	0.4375	no	T	H
507.2304688	n/a	129851	responseSmallH	correct	n/a	0.4375	no	n/a	n/a
508.3007812	n/a	130125	largeTSmallT	correct	congruent	0.42578	no	T	T
508.7265625	n/a	130234	responseSmallT	correct	n/a	0.42578	no	n/a	n/a
509.7929688	n/a	130507	largeHSmallT	correct	incongruent	0.51953	no	H	T
510.3125	n/a	130640	responseSmallT	correct	n/a	0.51953	no	n/a	n/a
511.3789062	n/a	130913	largeTSmallH	correct	incongruent	0.42188	no	T	H
511.8007812	n/a	131021	responseSmallH	correct	n/a	0.42188	no	n/a	n/a
512.875	n/a	131296	largeTSmallT	correct	congruent	0.45312	no	T	T
513.328125	n/a	131412	responseSmallT	correct	n/a	0.45312	no	n/a	n/a
514.3789062	n/a	131681	largeHSmallH	correct	congruent	0.39062	no	H	H
514.7695312	n/a	131781	responseSmallH	correct	n/a	0.39062	no	n/a	n/a
515.8320312	n/a	132053	largeHSmallH	correct	congruent	0.42188	no	H	H
516.2539062	n/a	132161	responseSmallH	correct	n/a	0.42188	no	n/a	n/a
517.3125	n/a	132432	largeHSmallH	correct	congruent	0.43359	no	H	H
517.7460938	n/a	132543	responseSmallH	correct	n/a	0.43359	no	n/a	n/a
518.8203125	n/a	132818	largeTSmallT	correct	congruent	0.46875	no	T	T
519.2890625	n/a	132938	responseSmallT	correct	n/a	0.46875	no	n/a	n/a
520.3671875	n/a	133214	largeTSmallH	correct	incongruent	0.47656	no	T	H
520.84375	n/a	133336	responseSmallH	correct	n/a	0.47656	no	n/a	n/a
521.8984375	n/a	133606	largeHSmallT	correct	incongruent	0.48047	no	H	T
522.3789062	n/a	133729	responseSmallT	correct	n/a	0.48047	no	n/a	n/a
523.4453125	n/a	134002	largeHSmallT	correct	incongruent	0.48828	no	H	T
523.9335938	n/a	134127	responseSmallT	correct	n/a	0.48828	no	n/a	n/a
524.9921875	n/a	134398	largeHSmallH	correct	congruent	0.44531	no	H	H
525.4375	n/a	134512	responseSmallH	correct	n/a	0.44531	no	n/a	n/a
526.5117188	n/a	134787	largeHSmallT	correct	incongruent	0.53906	no	H	T
527.0507812	n/a	134925	responseSmallT	correct	n/a	0.53906	no	n/a	n/a
528.1132812	n/a	135197	largeHSmallT	correct	incongruent	0.48438	no	H	T
528.5976562	n/a	135321	responseSmallT	correct	n/a	0.48438	no	n/a	n/a
529.6601562	n/a	135593	largeTSmallH	correct	incongruent	0.45312	no	T	H
530.1132812	n/a	135709	responseSmallH	correct	n/a	0.45312	no	n/a	n/a
531.1914062	n/a	135985	largeHSmallH	correct	congruent	0.52344	no	H	H
531.7148438	n/a	136119	responseSmallH	correct	n/a	0.52344	no	n/a	n/a
532.78125	n/a	136392	largeHSmallH	correct	congruent	0.46094	no	H	H
533.2421875	n/a	136510	responseSmallH	correct	n/a	0.46094	no	n/a	n/a
534.3125	n/a	136784	largeHSmallT	correct	incongruent	0.45703	no	H	T
534.7695312	n/a	136901	responseSmallT	correct	n/a	0.45703	no	n/a	n/a
535.8320312	n/a	137173	largeTSmallT	correct	congruent	0.5625	no	T	T
536.3945312	n/a	137317	responseSmallT	correct	n/a	0.5625	no	n/a	n/a
537.4609375	n/a	137590	largeTSmallT	correct	congruent	0.49219	no	T	T
537.953125	n/a	137716	responseSmallT	correct	n/a	0.49219	no	n/a	n/a
539.0195312	n/a	137989	largeTSmallT	correct	congruent	0.51562	no	T	T
539.5351562	n/a	138121	responseSmallT	correct	n/a	0.51562	no	n/a	n/a
540.59375	n/a	138392	largeHSmallT	correct	incongruent	0.62109	no	H	T
541.2148438	n/a	138551	responseSmallT	correct	n/a	0.62109	no	n/a	n/a
542.2851562	n/a	138825	largeTSmallH	correct	incongruent	0.40625	no	T	H
542.6914062	n/a	138929	responseSmallH	correct	n/a	0.40625	no	n/a	n/a
543.765625	n/a	139204	largeTSmallH	correct	incongruent	0.42969	no	T	H
544.1953125	n/a	139314	responseSmallH	correct	n/a	0.42969	no	n/a	n/a
545.2578125	n/a	139586	largeTSmallT	correct	congruent	0.40625	no	T	T
545.6640625	n/a	139690	responseSmallT	correct	n/a	0.40625	no	n/a	n/a
546.7265625	n/a	139962	largeHSmallT	correct	incongruent	0.51562	no	H	T
547.2421875	n/a	140094	responseSmallT	correct	n/a	0.51562	no	n/a	n/a
548.3125	n/a	140368	largeHSmallH	correct	congruent	0.53125	no	H	H
548.84375	n/a	140504	responseSmallH	correct	n/a	0.53125	no	n/a	n/a
549.9140625	n/a	140778	largeHSmallH	correct	congruent	0.48828	no	H	H
550.4023438	n/a	140903	responseSmallH	correct	n/a	0.48828	no	n/a	n/a
551.4726562	n/a	141177	largeHSmallH	correct	congruent	0.48047	no	H	H
551.953125	n/a	141300	responseSmallH	correct	n/a	0.48047	no	n/a	n/a
553.03125	n/a	141576	largeTSmallT	correct	congruent	0.45703	no	T	T
553.4882812	n/a	141693	responseSmallT	correct	n/a	0.45703	no	n/a	n/a
554.5507812	n/a	141965	largeHSmallT	correct	incongruent	0.44141	no	H	T
554.9921875	n/a	142078	responseSmallT	correct	n/a	0.44141	no	n/a	n/a
556.0585938	n/a	142351	largeHSmallH	correct	congruent	0.48047	no	H	H
556.5390625	n/a	142474	responseSmallH	correct	n/a	0.48047	no	n/a	n/a
557.6171875	n/a	142750	largeTSmallH	correct	incongruent	0.48047	no	T	H
558.0976562	n/a	142873	responseSmallH	correct	n/a	0.48047	no	n/a	n/a
559.1640625	n/a	143146	largeTSmallH	correct	incongruent	0.42188	no	T	H
559.5859375	n/a	143254	responseSmallH	correct	n/a	0.42188	no	n/a	n/a
560.6601562	n/a	143529	largeTSmallH	correct	incongruent	0.4375	no	T	H
561.0976562	n/a	143641	responseSmallH	correct	n/a	0.4375	no	n/a	n/a
562.1640625	n/a	143914	largeTSmallH	correct	incongruent	0.51953	no	T	H
562.6835938	n/a	144047	responseSmallH	correct	n/a	0.51953	no	n/a	n/a
563.7382812	n/a	144317	largeTSmallH	correct	incongruent	0.42969	no	T	H
564.1679688	n/a	144427	responseSmallH	correct	n/a	0.42969	no	n/a	n/a
565.2304688	n/a	144699	largeHSmallT	correct	incongruent	0.48047	no	H	T
565.7109375	n/a	144822	responseSmallT	correct	n/a	0.48047	no	n/a	n/a
566.765625	n/a	145092	largeTSmallT	correct	congruent	0.51953	no	T	T
567.2851562	n/a	145225	responseSmallT	correct	n/a	0.51953	no	n/a	n/a
568.3515625	n/a	145498	largeTSmallH	correct	incongruent	0.50781	no	T	H
568.859375	n/a	145628	responseSmallH	correct	n/a	0.50781	no	n/a	n/a
569.9257812	n/a	145901	largeTSmallH	correct	incongruent	0.48047	no	T	H
570.40625	n/a	146024	responseSmallH	correct	n/a	0.48047	no	n/a	n/a
571.4726562	n/a	146297	largeHSmallT	correct	incongruent	0.45312	no	H	T
571.9257812	n/a	146413	responseSmallT	correct	n/a	0.45312	no	n/a	n/a
572.9921875	n/a	146686	largeTSmallH	correct	incongruent	0.50391	no	T	H
573.4960938	n/a	146815	responseSmallH	correct	n/a	0.50391	no	n/a	n/a
574.5664062	n/a	147089	largeHSmallT	correct	incongruent	0.53516	no	H	T
575.1015625	n/a	147226	responseSmallT	correct	n/a	0.53516	no	n/a	n/a
576.1640625	n/a	147498	largeHSmallH	correct	congruent	0.50781	no	H	H
576.671875	n/a	147628	responseSmallH	correct	n/a	0.50781	no	n/a	n/a
577.7382812	n/a	147901	largeHSmallH	correct	congruent	0.52344	no	H	H
578.2617188	n/a	148035	responseSmallH	correct	n/a	0.52344	no	n/a	n/a
579.3242188	n/a	148307	largeHSmallT	correct	incongruent	0.48047	no	H	T
579.8046875	n/a	148430	responseSmallT	correct	n/a	0.48047	no	n/a	n/a
580.8710938	n/a	148703	largeTSmallT	correct	congruent	0.54688	no	T	T
581.4179688	n/a	148843	responseSmallT	correct	n/a	0.54688	no	n/a	n/a
582.484375	n/a	149116	largeHSmallH	correct	congruent	0.54688	no	H	H
583.03125	n/a	149256	responseSmallH	correct	n/a	0.54688	no	n/a	n/a
584.0976562	n/a	149529	largeTSmallH	correct	incongruent	0.46875	no	T	H
584.5664062	n/a	149649	responseSmallH	correct	n/a	0.46875	no	n/a	n/a
585.6328125	n/a	149922	largeTSmallT	correct	congruent	0.45312	no	T	T
586.0859375	n/a	150038	responseSmallT	correct	n/a	0.45312	no	n/a	n/a
587.1523438	n/a	150311	largeTSmallT	correct	congruent	0.51562	no	T	T
587.6679688	n/a	150443	responseSmallT	correct	n/a	0.51562	no	n/a	n/a
588.7382812	n/a	150717	largeHSmallT	correct	incongruent	0.6875	no	H	T
589.4257812	n/a	150893	responseSmallT	correct	n/a	0.6875	no	n/a	n/a
590.5	n/a	151168	largeHSmallT	correct	incongruent	0.45703	no	H	T
590.9570312	n/a	151285	responseSmallT	correct	n/a	0.45703	no	n/a	n/a
592.03125	n/a	151560	largeTSmallT	correct	congruent	0.45703	no	T	T
592.4882812	n/a	151677	responseSmallT	correct	n/a	0.45703	no	n/a	n/a
593.5507812	n/a	151949	largeTSmallT	correct	congruent	0.42578	no	T	T
593.9765625	n/a	152058	responseSmallT	correct	n/a	0.42578	no	n/a	n/a
595.03125	n/a	152328	largeTSmallT	correct	congruent	0.41406	no	T	T
595.4453125	n/a	152434	responseSmallT	correct	n/a	0.41406	no	n/a	n/a
596.5117188	n/a	152707	largeHSmallT	correct	incongruent	0.48047	no	H	T
596.9921875	n/a	152830	responseSmallT	correct	n/a	0.48047	no	n/a	n/a
598.0703125	n/a	153106	largeTSmallT	correct	congruent	0.44531	no	T	T
598.515625	n/a	153220	responseSmallT	correct	n/a	0.44531	no	n/a	n/a
599.578125	n/a	153492	largeTSmallT	correct	congruent	0.38672	no	T	T
599.9648438	n/a	153591	responseSmallT	correct	n/a	0.38672	no	n/a	n/a
601.03125	n/a	153864	largeTSmallH	correct	incongruent	0.52734	no	T	H
601.5585938	n/a	153999	responseSmallH	correct	n/a	0.52734	no	n/a	n/a
602.6171875	n/a	154270	largeHSmallH	correct	congruent	0.48828	no	H	H
603.1054688	n/a	154395	responseSmallH	correct	n/a	0.48828	no	n/a	n/a
604.1796875	n/a	154670	largeHSmallT	correct	incongruent	0.47656	no	H	T
604.65625	n/a	154792	responseSmallT	correct	n/a	0.47656	no	n/a	n/a
605.7226562	n/a	155065	largeHSmallT	correct	incongruent	0.42969	no	H	T
606.1523438	n/a	155175	responseSmallT	correct	n/a	0.42969	no	n/a	n/a
607.21875	n/a	155448	largeTSmallH	correct	incongruent	0.53906	no	T	H
607.7578125	n/a	155586	responseSmallH	correct	n/a	0.53906	no	n/a	n/a
608.8320312	n/a	155861	largeTSmallT	correct	congruent	0.46875	no	T	T
609.3007812	n/a	155981	responseSmallT	correct	n/a	0.46875	no	n/a	n/a
610.3789062	n/a	156257	largeTSmallH	correct	incongruent	0.45703	no	T	H
610.8359375	n/a	156374	responseSmallH	correct	n/a	0.45703	no	n/a	n/a
617.6992188	n/a	158131	largeHSmallH	correct	congruent	0.57422	no	H	H
618.2734375	n/a	158278	responseLargeH	correct	n/a	0.57422	no	n/a	n/a
619.3359375	n/a	158550	largeHSmallT	correct	incongruent	0.46094	no	H	T
619.796875	n/a	158668	responseLargeH	correct	n/a	0.46094	no	n/a	n/a
620.859375	n/a	158940	largeTSmallH	correct	incongruent	0.41406	no	T	H
621.2734375	n/a	159046	responseLargeT	correct	n/a	0.41406	no	n/a	n/a
622.3359375	n/a	159318	largeTSmallH	correct	incongruent	0.44531	no	T	H
622.78125	n/a	159432	responseLargeT	correct	n/a	0.44531	no	n/a	n/a
623.859375	n/a	159708	largeTSmallT	correct	congruent	0.41016	no	T	T
624.2695312	n/a	159813	responseLargeT	correct	n/a	0.41016	no	n/a	n/a
625.3359375	n/a	160086	largeTSmallH	correct	incongruent	0.41797	no	T	H
625.7539062	n/a	160193	responseLargeT	correct	n/a	0.41797	no	n/a	n/a
626.8164062	n/a	160465	largeHSmallH	correct	congruent	0.42578	no	H	H
627.2421875	n/a	160574	responseLargeH	correct	n/a	0.42578	no	n/a	n/a
628.3125	n/a	160848	largeHSmallH	correct	congruent	0.36719	no	H	H
628.6796875	n/a	160942	responseLargeH	correct	n/a	0.36719	no	n/a	n/a
629.75	n/a	161216	largeHSmallT	correct	incongruent	0.40234	no	H	T
630.1523438	n/a	161319	responseLargeH	correct	n/a	0.40234	no	n/a	n/a
631.21875	n/a	161592	largeTSmallH	correct	incongruent	0.44531	no	T	H
631.6640625	n/a	161706	responseLargeT	correct	n/a	0.44531	no	n/a	n/a
632.7226562	n/a	161977	largeHSmallH	correct	congruent	0.35938	no	H	H
633.0820312	n/a	162069	responseLargeH	correct	n/a	0.35938	no	n/a	n/a
634.1523438	n/a	162343	largeHSmallH	correct	congruent	0.39062	no	H	H
634.5429688	n/a	162443	responseLargeH	correct	n/a	0.39062	no	n/a	n/a
635.6171875	n/a	162718	largeHSmallH	correct	congruent	0.37109	no	H	H
635.9882812	n/a	162813	responseLargeH	correct	n/a	0.37109	no	n/a	n/a
637.0585938	n/a	163087	largeHSmallH	correct	congruent	0.35156	no	H	H
637.4101562	n/a	163177	responseLargeH	correct	n/a	0.35156	no	n/a	n/a
638.484375	n/a	163452	largeTSmallH	error	incongruent	0.3125	no	T	H
638.796875	n/a	163532	responseLargeH	error	n/a	0.3125	no	n/a	n/a
639.8710938	n/a	163807	largeTSmallT	correct	congruent	0.39844	no	T	T
640.2695312	n/a	163909	responseLargeT	correct	n/a	0.39844	no	n/a	n/a
641.3359375	n/a	164182	largeTSmallH	correct	incongruent	0.36328	no	T	H
641.6992188	n/a	164275	responseLargeT	correct	n/a	0.36328	no	n/a	n/a
642.7773438	n/a	164551	largeHSmallT	correct	incongruent	0.37891	no	H	T
643.15625	n/a	164648	responseLargeH	correct	n/a	0.37891	no	n/a	n/a
644.2304688	n/a	164923	largeTSmallT	correct	congruent	0.47266	no	T	T
644.703125	n/a	165044	responseLargeT	correct	n/a	0.47266	no	n/a	n/a
645.7773438	n/a	165319	largeTSmallH	correct	incongruent	0.39062	no	T	H
646.1679688	n/a	165419	responseLargeT	correct	n/a	0.39062	no	n/a	n/a
647.2304688	n/a	165691	largeTSmallT	correct	congruent	0.37891	no	T	T
647.609375	n/a	165788	responseLargeT	correct	n/a	0.37891	no	n/a	n/a
648.671875	n/a	166060	largeHSmallH	correct	congruent	0.39062	no	H	H
649.0625	n/a	166160	responseLargeH	correct	n/a	0.39062	no	n/a	n/a
650.125	n/a	166432	largeHSmallT	correct	incongruent	0.39844	no	H	T
650.5234375	n/a	166534	responseLargeH	correct	n/a	0.39844	no	n/a	n/a
651.5898438	n/a	166807	largeHSmallT	correct	incongruent	0.38672	no	H	T
651.9765625	n/a	166906	responseLargeH	correct	n/a	0.38672	no	n/a	n/a
653.0429688	n/a	167179	largeTSmallH	correct	incongruent	0.41406	no	T	H
653.4570312	n/a	167285	responseLargeT	correct	n/a	0.41406	no	n/a	n/a
654.5234375	n/a	167558	largeTSmallH	correct	incongruent	0.49219	no	T	H
655.015625	n/a	167684	responseLargeT	correct	n/a	0.49219	no	n/a	n/a
656.0820312	n/a	167957	largeHSmallH	correct	congruent	0.41797	no	H	H
656.5	n/a	168064	responseLargeH	correct	n/a	0.41797	no	n/a	n/a
657.5625	n/a	168336	largeHSmallH	correct	congruent	0.39062	no	H	H
657.953125	n/a	168436	responseLargeH	correct	n/a	0.39062	no	n/a	n/a
659.015625	n/a	168708	largeTSmallT	correct	congruent	0.40625	no	T	T
659.421875	n/a	168812	responseLargeT	correct	n/a	0.40625	no	n/a	n/a
660.4960938	n/a	169087	largeTSmallH	correct	incongruent	0.37891	no	T	H
660.875	n/a	169184	responseLargeT	correct	n/a	0.37891	no	n/a	n/a
661.9492188	n/a	169459	largeTSmallT	correct	congruent	0.40625	no	T	T
662.3554688	n/a	169563	responseLargeT	correct	n/a	0.40625	no	n/a	n/a
663.4179688	n/a	169835	largeTSmallT	correct	congruent	0.37109	no	T	T
663.7890625	n/a	169930	responseLargeT	correct	n/a	0.37109	no	n/a	n/a
664.8710938	n/a	170207	largeHSmallT	correct	incongruent	0.42578	no	H	T
665.296875	n/a	170316	responseLargeH	correct	n/a	0.42578	no	n/a	n/a
666.3632812	n/a	170589	largeTSmallT	correct	congruent	0.34375	no	T	T
666.7070312	n/a	170677	responseLargeT	correct	n/a	0.34375	no	n/a	n/a
667.7773438	n/a	170951	largeTSmallH	correct	incongruent	0.50391	no	T	H
668.28125	n/a	171080	responseLargeT	correct	n/a	0.50391	no	n/a	n/a
669.3359375	n/a	171350	largeHSmallT	correct	incongruent	0.32031	no	H	T
669.65625	n/a	171432	responseLargeH	correct	n/a	0.32031	no	n/a	n/a
670.7109375	n/a	171702	largeTSmallT	correct	congruent	0.43359	no	T	T
671.1445312	n/a	171813	responseLargeT	correct	n/a	0.43359	no	n/a	n/a
672.2148438	n/a	172087	largeHSmallT	correct	incongruent	0.37891	no	H	T
672.59375	n/a	172184	responseLargeH	correct	n/a	0.37891	no	n/a	n/a
673.65625	n/a	172456	largeTSmallT	correct	congruent	0.32422	no	T	T
673.9804688	n/a	172539	responseLargeT	correct	n/a	0.32422	no	n/a	n/a
675.0585938	n/a	172815	largeTSmallT	correct	congruent	0.37891	no	T	T
675.4375	n/a	172912	responseLargeT	correct	n/a	0.37891	no	n/a	n/a
676.4960938	n/a	173183	largeHSmallT	correct	incongruent	0.35547	no	H	T
676.8515625	n/a	173274	responseLargeH	correct	n/a	0.35547	no	n/a	n/a
677.921875	n/a	173548	largeHSmallH	correct	congruent	0.36328	no	H	H
678.2851562	n/a	173641	responseLargeH	correct	n/a	0.36328	no	n/a	n/a
679.3632812	n/a	173917	largeHSmallT	correct	incongruent	0.35938	no	H	T
679.7226562	n/a	174009	responseLargeH	correct	n/a	0.35938	no	n/a	n/a
680.7890625	n/a	174282	largeTSmallH	correct	incongruent	0.37891	no	T	H
681.1679688	n/a	174379	responseLargeT	correct	n/a	0.37891	no	n/a	n/a
682.2304688	n/a	174651	largeHSmallH	correct	congruent	0.30469	no	H	H
682.5351562	n/a	174729	responseLargeH	correct	n/a	0.30469	no	n/a	n/a
683.6015625	n/a	175002	largeHSmallT	correct	incongruent	0.35547	no	H	T
683.9570312	n/a	175093	responseLargeH	correct	n/a	0.35547	no	n/a	n/a
685.015625	n/a	175364	largeTSmallT	correct	congruent	0.33203	no	T	T
685.3476562	n/a	175449	responseLargeT	correct	n/a	0.33203	no	n/a	n/a
686.4140625	n/a	175722	largeTSmallH	correct	incongruent	0.45703	no	T	H
686.8710938	n/a	175839	responseLargeT	correct	n/a	0.45703	no	n/a	n/a
687.9375	n/a	176112	largeTSmallH	correct	incongruent	0.39453	no	T	H
688.3320312	n/a	176213	responseLargeT	correct	n/a	0.39453	no	n/a	n/a
689.4023438	n/a	176487	largeTSmallT	correct	congruent	0.33594	no	T	T
689.7382812	n/a	176573	responseLargeT	correct	n/a	0.33594	no	n/a	n/a
690.8007812	n/a	176845	largeHSmallT	correct	incongruent	0.37891	no	H	T
691.1796875	n/a	176942	responseLargeH	correct	n/a	0.37891	no	n/a	n/a
692.2421875	n/a	177214	largeHSmallT	correct	incongruent	0.40625	no	H	T
692.6484375	n/a	177318	responseLargeH	correct	n/a	0.40625	no	n/a	n/a
693.7109375	n/a	177590	largeTSmallH	correct	incongruent	0.36719	no	T	H
694.078125	n/a	177684	responseLargeT	correct	n/a	0.36719	no	n/a	n/a
695.1484375	n/a	177958	largeHSmallH	correct	congruent	0.35156	no	H	H
695.5	n/a	178048	responseLargeH	correct	n/a	0.35156	no	n/a	n/a
696.5625	n/a	178320	largeTSmallH	correct	incongruent	0.33984	no	T	H
696.9023438	n/a	178407	responseLargeT	correct	n/a	0.33984	no	n/a	n/a
697.9609375	n/a	178678	largeHSmallH	correct	congruent	0.32422	no	H	H
698.2851562	n/a	178761	responseLargeH	correct	n/a	0.32422	no	n/a	n/a
699.3632812	n/a	179037	largeTSmallH	correct	incongruent	0.33984	no	T	H
699.703125	n/a	179124	responseLargeT	correct	n/a	0.33984	no	n/a	n/a
700.7773438	n/a	179399	largeTSmallH	correct	incongruent	0.39453	no	T	H
701.171875	n/a	179500	responseLargeT	correct	n/a	0.39453	no	n/a	n/a
702.2421875	n/a	179774	largeHSmallH	correct	congruent	0.35547	no	H	H
702.5976562	n/a	179865	responseLargeH	correct	n/a	0.35547	no	n/a	n/a
703.6679688	n/a	180139	largeTSmallH	correct	incongruent	0.33984	no	T	H
704.0078125	n/a	180226	responseLargeT	correct	n/a	0.33984	no	n/a	n/a
705.0820312	n/a	180501	largeTSmallT	correct	congruent	0.38672	no	T	T
705.46875	n/a	180600	responseLargeT	correct	n/a	0.38672	no	n/a	n/a
706.5351562	n/a	180873	largeHSmallH	correct	congruent	0.36328	no	H	H
706.8984375	n/a	180966	responseLargeH	correct	n/a	0.36328	no	n/a	n/a
707.9609375	n/a	181238	largeHSmallH	error	congruent	0.30859	no	H	H
708.2695312	n/a	181317	responseLargeT	error	n/a	0.30859	no	n/a	n/a
709.3359375	n/a	181590	largeTSmallH	correct	incongruent	0.39844	no	T	H
709.734375	n/a	181692	responseLargeT	correct	n/a	0.39844	no	n/a	n/a
710.8007812	n/a	181965	largeTSmallT	correct	congruent	0.375	no	T	T
711.1757812	n/a	182061	responseLargeT	correct	n/a	0.375	no	n/a	n/a
712.2421875	n/a	182334	largeTSmallT	correct	congruent	0.34375	no	T	T
712.5859375	n/a	182422	responseLargeT	correct	n/a	0.34375	no	n/a	n/a
713.640625	n/a	182692	largeTSmallT	correct	congruent	0.34375	no	T	T
713.984375	n/a	182780	responseLargeT	correct	n/a	0.34375	no	n/a	n/a
715.0546875	n/a	183054	largeHSmallH	correct	congruent	0.38672	no	H	H
715.4414062	n/a	183153	responseLargeH	correct	n/a	0.38672	no	n/a	n/a
716.5234375	n/a	183430	largeTSmallH	correct	incongruent	0.33984	no	T	H
716.8632812	n/a	183517	responseLargeT	correct	n/a	0.33984	no	n/a	n/a
717.9335938	n/a	183791	largeHSmallH	correct	congruent	0.31641	no	H	H
718.25	n/a	183872	responseLargeH	correct	n/a	0.31641	no	n/a	n/a
719.3203125	n/a	184146	largeHSmallH	correct	congruent	0.37891	no	H	H
719.6992188	n/a	184243	responseLargeH	correct	n/a	0.37891	no	n/a	n/a
720.7617188	n/a	184515	largeTSmallH	correct	incongruent	0.39844	no	T	H
721.1601562	n/a	184617	responseLargeT	correct	n/a	0.39844	no	n/a	n/a
722.2304688	n/a	184891	largeTSmallH	correct	incongruent	0.42578	no	T	H
722.65625	n/a	185000	responseLargeT	correct	n/a	0.42578	no	n/a	n/a
723.7226562	n/a	185273	largeHSmallT	correct	incongruent	0.38281	no	H	T
724.1054688	n/a	185371	responseLargeH	correct	n/a	0.38281	no	n/a	n/a
725.1757812	n/a	185645	largeTSmallT	correct	congruent	0.28906	no	T	T
725.4648438	n/a	185719	responseLargeT	correct	n/a	0.28906	no	n/a	n/a
726.5351562	n/a	185993	largeTSmallT	correct	congruent	0.40234	no	T	T
726.9375	n/a	186096	responseLargeT	correct	n/a	0.40234	no	n/a	n/a
728	n/a	186368	largeTSmallT	correct	congruent	0.35547	no	T	T
728.3554688	n/a	186459	responseLargeT	correct	n/a	0.35547	no	n/a	n/a
729.4140625	n/a	186730	largeHSmallT	correct	incongruent	0.39062	no	H	T
729.8046875	n/a	186830	responseLargeH	correct	n/a	0.39062	no	n/a	n/a
730.8671875	n/a	187102	largeHSmallT	correct	incongruent	0.42578	no	H	T
731.2929688	n/a	187211	responseLargeH	correct	n/a	0.42578	no	n/a	n/a
732.3632812	n/a	187485	largeTSmallH	correct	incongruent	0.43359	no	T	H
732.796875	n/a	187596	responseLargeT	correct	n/a	0.43359	no	n/a	n/a
733.8671875	n/a	187870	largeHSmallH	correct	congruent	0.40625	no	H	H
734.2734375	n/a	187974	responseLargeH	correct	n/a	0.40625	no	n/a	n/a
735.3476562	n/a	188249	largeTSmallT	correct	congruent	0.32031	no	T	T
735.6679688	n/a	188331	responseLargeT	correct	n/a	0.32031	no	n/a	n/a
736.734375	n/a	188604	largeTSmallT	correct	congruent	0.35547	no	T	T
737.0898438	n/a	188695	responseLargeT	correct	n/a	0.35547	no	n/a	n/a
738.1601562	n/a	188969	largeHSmallH	correct	congruent	0.34766	no	H	H
738.5078125	n/a	189058	responseLargeH	correct	n/a	0.34766	no	n/a	n/a
739.5742188	n/a	189331	largeTSmallH	correct	incongruent	0.33984	no	T	H
739.9140625	n/a	189418	responseLargeT	correct	n/a	0.33984	no	n/a	n/a
740.9765625	n/a	189690	largeHSmallH	correct	congruent	0.33203	no	H	H
741.3085938	n/a	189775	responseLargeH	correct	n/a	0.33203	no	n/a	n/a
742.3867188	n/a	190051	largeTSmallT	correct	congruent	0.32031	no	T	T
742.7070312	n/a	190133	responseLargeT	correct	n/a	0.32031	no	n/a	n/a
743.7734375	n/a	190406	largeTSmallT	correct	congruent	0.41016	no	T	T
744.1835938	n/a	190511	responseLargeT	correct	n/a	0.41016	no	n/a	n/a
745.2539062	n/a	190785	largeTSmallT	correct	congruent	0.38672	no	T	T
745.640625	n/a	190884	responseLargeT	correct	n/a	0.38672	no	n/a	n/a
746.7070312	n/a	191157	largeTSmallT	correct	congruent	0.33594	no	T	T
747.0429688	n/a	191243	responseLargeT	correct	n/a	0.33594	no	n/a	n/a
748.109375	n/a	191516	largeTSmallT	correct	congruent	0.30469	no	T	T
748.4140625	n/a	191594	responseLargeT	correct	n/a	0.30469	no	n/a	n/a
749.4804688	n/a	191867	largeHSmallH	correct	congruent	0.41016	no	H	H
749.890625	n/a	191972	responseLargeH	correct	n/a	0.41016	no	n/a	n/a
750.9609375	n/a	192246	largeHSmallH	correct	congruent	0.43359	no	H	H
751.3945312	n/a	192357	responseLargeH	correct	n/a	0.43359	no	n/a	n/a
752.453125	n/a	192628	largeHSmallT	correct	incongruent	0.38672	no	H	T
752.8398438	n/a	192727	responseLargeH	correct	n/a	0.38672	no	n/a	n/a
753.90625	n/a	193000	largeTSmallT	correct	congruent	0.41797	no	T	T
754.3242188	n/a	193107	responseLargeT	correct	n/a	0.41797	no	n/a	n/a
755.3867188	n/a	193379	largeHSmallT	correct	incongruent	0.38672	no	H	T
755.7734375	n/a	193478	responseLargeH	correct	n/a	0.38672	no	n/a	n/a
756.8398438	n/a	193751	largeHSmallH	correct	congruent	0.36328	no	H	H
757.203125	n/a	193844	responseLargeH	correct	n/a	0.36328	no	n/a	n/a
758.28125	n/a	194120	largeHSmallH	correct	congruent	0.48047	no	H	H
758.7617188	n/a	194243	responseLargeH	correct	n/a	0.48047	no	n/a	n/a
759.828125	n/a	194516	largeTSmallT	correct	congruent	0.38672	no	T	T
760.2148438	n/a	194615	responseLargeT	correct	n/a	0.38672	no	n/a	n/a
761.2929688	n/a	194891	largeTSmallT	correct	congruent	0.40234	no	T	T
761.6953125	n/a	194994	responseLargeT	correct	n/a	0.40234	no	n/a	n/a
762.7734375	n/a	195270	largeTSmallH	correct	incongruent	0.54297	no	T	H
763.3164062	n/a	195409	responseLargeT	correct	n/a	0.54297	no	n/a	n/a
764.375	n/a	195680	largeTSmallH	correct	incongruent	0.46094	no	T	H
764.8359375	n/a	195798	responseLargeT	correct	n/a	0.46094	no	n/a	n/a
765.90625	n/a	196072	largeTSmallH	correct	incongruent	0.53125	no	T	H
766.4375	n/a	196208	responseLargeT	correct	n/a	0.53125	no	n/a	n/a
767.5078125	n/a	196482	largeHSmallT	correct	incongruent	0.41406	no	H	T
767.921875	n/a	196588	responseLargeH	correct	n/a	0.41406	no	n/a	n/a
769	n/a	196864	largeTSmallT	correct	congruent	0.44922	no	T	T
769.4492188	n/a	196979	responseLargeT	correct	n/a	0.44922	no	n/a	n/a
770.5078125	n/a	197250	largeHSmallT	correct	incongruent	0.375	no	H	T
770.8828125	n/a	197346	responseLargeH	correct	n/a	0.375	no	n/a	n/a
771.9492188	n/a	197619	largeHSmallH	correct	congruent	0.41797	no	H	H
772.3671875	n/a	197726	responseLargeH	correct	n/a	0.41797	no	n/a	n/a
773.4414062	n/a	198001	largeTSmallT	correct	congruent	0.38281	no	T	T
773.8242188	n/a	198099	responseLargeT	correct	n/a	0.38281	no	n/a	n/a
774.8945312	n/a	198373	largeTSmallH	correct	incongruent	0.42578	no	T	H
775.3203125	n/a	198482	responseLargeT	correct	n/a	0.42578	no	n/a	n/a
776.3867188	n/a	198755	largeHSmallT	correct	incongruent	0.35156	no	H	T
776.7382812	n/a	198845	responseLargeH	correct	n/a	0.35156	no	n/a	n/a
777.8125	n/a	199120	largeHSmallH	error	congruent	0.32812	no	H	H
778.140625	n/a	199204	responseLargeT	error	n/a	0.32812	no	n/a	n/a
779.2148438	n/a	199479	largeHSmallT	correct	incongruent	0.45312	no	H	T
779.6679688	n/a	199595	responseLargeH	correct	n/a	0.45312	no	n/a	n/a
780.7460938	n/a	199871	largeTSmallT	correct	congruent	0.41016	no	T	T
781.15625	n/a	199976	responseLargeT	correct	n/a	0.41016	no	n/a	n/a
782.2265625	n/a	200250	largeHSmallT	correct	incongruent	0.33984	no	H	T
782.5664062	n/a	200337	responseLargeH	correct	n/a	0.33984	no	n/a	n/a
783.6289062	n/a	200609	largeTSmallH	correct	incongruent	0.42188	no	T	H
784.0507812	n/a	200717	responseLargeT	correct	n/a	0.42188	no	n/a	n/a
785.1210938	n/a	200991	largeTSmallT	correct	congruent	0.41016	no	T	T
785.53125	n/a	201096	responseLargeT	correct	n/a	0.41016	no	n/a	n/a
786.5859375	n/a	201366	largeTSmallH	correct	incongruent	0.4375	no	T	H
787.0234375	n/a	201478	responseLargeT	correct	n/a	0.4375	no	n/a	n/a
788.09375	n/a	201752	largeTSmallH	correct	incongruent	0.39844	no	T	H
788.4921875	n/a	201854	responseLargeT	correct	n/a	0.39844	no	n/a	n/a
789.5625	n/a	202128	largeTSmallT	correct	congruent	0.35938	no	T	T
789.921875	n/a	202220	responseLargeT	correct	n/a	0.35938	no	n/a	n/a
790.9882812	n/a	202493	largeHSmallH	correct	congruent	0.41406	no	H	H
791.4023438	n/a	202599	responseLargeH	correct	n/a	0.41406	no	n/a	n/a
792.4804688	n/a	202875	largeTSmallH	correct	incongruent	0.33984	no	T	H
792.8203125	n/a	202962	responseLargeT	correct	n/a	0.33984	no	n/a	n/a
793.8945312	n/a	203237	largeHSmallT	correct	incongruent	0.38281	no	H	T
794.2773438	n/a	203335	responseLargeH	correct	n/a	0.38281	no	n/a	n/a
795.3476562	n/a	203609	largeHSmallT	error	incongruent	0.32422	no	H	T
795.671875	n/a	203692	responseLargeT	error	n/a	0.32422	no	n/a	n/a
796.734375	n/a	203964	largeHSmallT	correct	incongruent	0.42188	no	H	T
797.15625	n/a	204072	responseLargeH	correct	n/a	0.42188	no	n/a	n/a
798.2265625	n/a	204346	largeHSmallH	correct	congruent	0.36719	no	H	H
798.59375	n/a	204440	responseLargeH	correct	n/a	0.36719	no	n/a	n/a
799.6679688	n/a	204715	largeTSmallH	correct	incongruent	0.45703	no	T	H
800.125	n/a	204832	responseLargeT	correct	n/a	0.45703	no	n/a	n/a
801.1992188	n/a	205107	largeTSmallH	correct	incongruent	0.37891	no	T	H
801.578125	n/a	205204	responseLargeT	correct	n/a	0.37891	no	n/a	n/a
802.640625	n/a	205476	largeTSmallT	correct	congruent	0.40625	no	T	T
803.046875	n/a	205580	responseLargeT	correct	n/a	0.40625	no	n/a	n/a
804.1054688	n/a	205851	largeTSmallH	correct	incongruent	0.37109	no	T	H
804.4765625	n/a	205946	responseLargeT	correct	n/a	0.37109	no	n/a	n/a
805.546875	n/a	206220	largeTSmallH	correct	incongruent	0.33594	no	T	H
805.8828125	n/a	206306	responseLargeT	correct	n/a	0.33594	no	n/a	n/a
806.9453125	n/a	206578	largeTSmallT	correct	congruent	0.30469	no	T	T
807.25	n/a	206656	responseLargeT	correct	n/a	0.30469	no	n/a	n/a
808.3203125	n/a	206930	largeHSmallH	correct	congruent	0.46094	no	H	H
808.78125	n/a	207048	responseLargeH	correct	n/a	0.46094	no	n/a	n/a
809.8515625	n/a	207322	largeTSmallH	correct	incongruent	0.42578	no	T	H
810.2773438	n/a	207431	responseLargeT	correct	n/a	0.42578	no	n/a	n/a
811.3476562	n/a	207705	largeTSmallH	correct	incongruent	0.45703	no	T	H
811.8046875	n/a	207822	responseLargeT	correct	n/a	0.45703	no	n/a	n/a
812.8789062	n/a	208097	largeHSmallH	correct	congruent	0.40234	no	H	H
813.28125	n/a	208200	responseLargeH	correct	n/a	0.40234	no	n/a	n/a
814.3476562	n/a	208473	largeHSmallH	correct	congruent	0.44141	no	H	H
814.7890625	n/a	208586	responseLargeH	correct	n/a	0.44141	no	n/a	n/a
815.8515625	n/a	208858	largeTSmallT	correct	congruent	0.4375	no	T	T
816.2890625	n/a	208970	responseLargeT	correct	n/a	0.4375	no	n/a	n/a
817.359375	n/a	209244	largeHSmallH	correct	congruent	0.38281	no	H	H
817.7421875	n/a	209342	responseLargeH	correct	n/a	0.38281	no	n/a	n/a
818.8007812	n/a	209613	largeHSmallT	correct	incongruent	0.46875	no	H	T
819.2695312	n/a	209733	responseLargeH	correct	n/a	0.46875	no	n/a	n/a
820.3320312	n/a	210005	largeTSmallT	correct	congruent	0.41016	no	T	T
820.7421875	n/a	210110	responseLargeT	correct	n/a	0.41016	no	n/a	n/a
821.8007812	n/a	210381	largeHSmallT	correct	incongruent	0.33594	no	H	T
822.1367188	n/a	210467	responseLargeH	correct	n/a	0.33594	no	n/a	n/a
823.1992188	n/a	210739	largeTSmallT	correct	congruent	0.44531	no	T	T
823.6445312	n/a	210853	responseLargeT	correct	n/a	0.44531	no	n/a	n/a
824.71875	n/a	211128	largeHSmallH	correct	congruent	0.35938	no	H	H
825.078125	n/a	211220	responseLargeH	correct	n/a	0.35938	no	n/a	n/a
826.1601562	n/a	211497	largeHSmallH	correct	congruent	0.49219	no	H	H
826.6523438	n/a	211623	responseLargeH	correct	n/a	0.49219	no	n/a	n/a
827.71875	n/a	211896	largeHSmallT	correct	incongruent	0.40625	no	H	T
828.125	n/a	212000	responseLargeH	correct	n/a	0.40625	no	n/a	n/a
829.1992188	n/a	212275	largeHSmallT	correct	incongruent	0.40234	no	H	T
829.6015625	n/a	212378	responseLargeH	correct	n/a	0.40234	no	n/a	n/a
830.6679688	n/a	212651	largeTSmallT	correct	congruent	0.44141	no	T	T
831.109375	n/a	212764	responseLargeT	correct	n/a	0.44141	no	n/a	n/a
832.171875	n/a	213036	largeTSmallT	correct	congruent	0.40625	no	T	T
832.578125	n/a	213140	responseLargeT	correct	n/a	0.40625	no	n/a	n/a
833.640625	n/a	213412	largeHSmallH	correct	congruent	0.37891	no	H	H
834.0195312	n/a	213509	responseLargeH	correct	n/a	0.37891	no	n/a	n/a
835.09375	n/a	213784	largeTSmallT	correct	congruent	0.35938	no	T	T
835.453125	n/a	213876	responseLargeT	correct	n/a	0.35938	no	n/a	n/a
836.53125	n/a	214152	largeHSmallH	correct	congruent	0.38281	no	H	H
836.9140625	n/a	214250	responseLargeH	correct	n/a	0.38281	no	n/a	n/a
837.9726562	n/a	214521	largeHSmallT	correct	incongruent	0.42969	no	H	T
838.4023438	n/a	214631	responseLargeH	correct	n/a	0.42969	no	n/a	n/a
839.4804688	n/a	214907	largeTSmallT	correct	congruent	0.36719	no	T	T
839.8476562	n/a	215001	responseLargeT	correct	n/a	0.36719	no	n/a	n/a
840.90625	n/a	215272	largeHSmallH	correct	congruent	0.37109	no	H	H
841.2773438	n/a	215367	responseLargeH	correct	n/a	0.37109	no	n/a	n/a
842.3476562	n/a	215641	largeHSmallH	correct	congruent	0.37891	no	H	H
842.7265625	n/a	215738	responseLargeH	correct	n/a	0.37891	no	n/a	n/a
843.8007812	n/a	216013	largeHSmallT	correct	incongruent	0.44141	no	H	T
844.2421875	n/a	216126	responseLargeH	correct	n/a	0.44141	no	n/a	n/a
845.3046875	n/a	216398	largeTSmallT	correct	congruent	0.41016	no	T	T
845.7148438	n/a	216503	responseLargeT	correct	n/a	0.41016	no	n/a	n/a
846.7734375	n/a	216774	largeTSmallH	correct	incongruent	0.42578	no	T	H
847.1992188	n/a	216883	responseLargeT	correct	n/a	0.42578	no	n/a	n/a
848.265625	n/a	217156	largeTSmallH	correct	incongruent	0.39844	no	T	H
848.6640625	n/a	217258	responseLargeT	correct	n/a	0.39844	no	n/a	n/a
849.71875	n/a	217528	largeHSmallH	correct	congruent	0.32812	no	H	H
850.046875	n/a	217612	responseLargeH	correct	n/a	0.32812	no	n/a	n/a
851.1210938	n/a	217887	largeTSmallT	correct	congruent	0.40234	no	T	T
851.5234375	n/a	217990	responseLargeT	correct	n/a	0.40234	no	n/a	n/a
852.5976562	n/a	218265	largeTSmallT	correct	congruent	0.41406	no	T	T
853.0117188	n/a	218371	responseLargeT	correct	n/a	0.41406	no	n/a	n/a
854.078125	n/a	218644	largeTSmallH	correct	incongruent	0.49609	no	T	H
854.5742188	n/a	218771	responseLargeT	correct	n/a	0.49609	no	n/a	n/a
855.640625	n/a	219044	largeHSmallH	correct	congruent	0.37891	no	H	H
856.0195312	n/a	219141	responseLargeH	correct	n/a	0.37891	no	n/a	n/a
857.09375	n/a	219416	largeHSmallT	correct	incongruent	0.42969	no	H	T
857.5234375	n/a	219526	responseLargeH	correct	n/a	0.42969	no	n/a	n/a
858.5859375	n/a	219798	largeHSmallH	correct	congruent	0.43359	no	H	H
859.0195312	n/a	219909	responseLargeH	correct	n/a	0.43359	no	n/a	n/a
860.078125	n/a	220180	largeHSmallT	correct	incongruent	0.37109	no	H	T
860.4492188	n/a	220275	responseLargeH	correct	n/a	0.37109	no	n/a	n/a
861.5195312	n/a	220549	largeHSmallT	correct	incongruent	0.36328	no	H	T
861.8828125	n/a	220642	responseLargeH	correct	n/a	0.36328	no	n/a	n/a
862.9570312	n/a	220917	largeTSmallH	correct	incongruent	0.41016	no	T	H
863.3671875	n/a	221022	responseLargeT	correct	n/a	0.41016	no	n/a	n/a
864.4375	n/a	221296	largeHSmallT	correct	incongruent	0.33594	no	H	T
864.7734375	n/a	221382	responseLargeH	correct	n/a	0.33594	no	n/a	n/a
865.8398438	n/a	221655	largeHSmallT	correct	incongruent	0.37109	no	H	T
866.2109375	n/a	221750	responseLargeH	correct	n/a	0.37109	no	n/a	n/a
867.2773438	n/a	222023	largeHSmallT	correct	incongruent	0.35938	no	H	T
867.6367188	n/a	222115	responseLargeH	correct	n/a	0.35938	no	n/a	n/a
868.7070312	n/a	222389	largeHSmallT	correct	incongruent	0.35547	no	H	T
869.0625	n/a	222480	responseLargeH	correct	n/a	0.35547	no	n/a	n/a
870.1328125	n/a	222754	largeHSmallT	correct	incongruent	0.375	no	H	T
870.5078125	n/a	222850	responseLargeH	correct	n/a	0.375	no	n/a	n/a
871.5859375	n/a	223126	largeHSmallH	correct	congruent	0.36328	no	H	H
871.9492188	n/a	223219	responseLargeH	correct	n/a	0.36328	no	n/a	n/a
873.0117188	n/a	223491	largeHSmallT	correct	incongruent	0.34766	no	H	T
873.359375	n/a	223580	responseLargeH	correct	n/a	0.34766	no	n/a	n/a
874.4257812	n/a	223853	largeTSmallH	correct	incongruent	0.44922	no	T	H
874.875	n/a	223968	responseLargeT	correct	n/a	0.44922	no	n/a	n/a
875.9453125	n/a	224242	largeTSmallT	correct	congruent	0.36719	no	T	T
876.3125	n/a	224336	responseLargeT	correct	n/a	0.36719	no	n/a	n/a
877.3867188	n/a	224611	largeTSmallH	correct	incongruent	0.38281	no	T	H
877.7695312	n/a	224709	responseLargeT	correct	n/a	0.38281	no	n/a	n/a
878.8398438	n/a	224983	largeTSmallT	correct	congruent	0.39844	no	T	T
879.2382812	n/a	225085	responseLargeT	correct	n/a	0.39844	no	n/a	n/a
880.3046875	n/a	225358	largeTSmallH	correct	incongruent	0.36328	no	T	H
880.6679688	n/a	225451	responseLargeT	correct	n/a	0.36328	no	n/a	n/a
881.7304688	n/a	225723	largeHSmallT	correct	incongruent	0.52734	no	H	T
882.2578125	n/a	225858	responseLargeH	correct	n/a	0.52734	no	n/a	n/a
883.3320312	n/a	226133	largeTSmallH	correct	incongruent	0.33594	no	T	H
883.6679688	n/a	226219	responseLargeT	correct	n/a	0.33594	no	n/a	n/a
884.7304688	n/a	226491	largeTSmallT	correct	congruent	0.39062	no	T	T
885.1210938	n/a	226591	responseLargeT	correct	n/a	0.39062	no	n/a	n/a
886.1835938	n/a	226863	largeHSmallH	correct	congruent	0.375	no	H	H
886.5585938	n/a	226959	responseLargeH	correct	n/a	0.375	no	n/a	n/a
887.625	n/a	227232	largeTSmallH	correct	incongruent	0.34375	no	T	H
887.96875	n/a	227320	responseLargeT	correct	n/a	0.34375	no	n/a	n/a
889.0390625	n/a	227594	largeHSmallH	correct	congruent	0.32812	no	H	H
889.3671875	n/a	227678	responseLargeH	correct	n/a	0.32812	no	n/a	n/a
890.4375	n/a	227952	largeHSmallT	correct	incongruent	0.43359	no	H	T
890.8710938	n/a	228063	responseLargeH	correct	n/a	0.43359	no	n/a	n/a
891.9453125	n/a	228338	largeHSmallT	correct	incongruent	0.41406	no	H	T
892.359375	n/a	228444	responseLargeH	correct	n/a	0.41406	no	n/a	n/a
893.4257812	n/a	228717	largeHSmallT	correct	incongruent	0.39844	no	H	T
893.8242188	n/a	228819	responseLargeH	correct	n/a	0.39844	no	n/a	n/a
894.890625	n/a	229092	largeHSmallT	correct	incongruent	0.39062	no	H	T
895.28125	n/a	229192	responseLargeH	correct	n/a	0.39062	no	n/a	n/a
896.359375	n/a	229468	largeHSmallT	correct	incongruent	0.36719	no	H	T
896.7265625	n/a	229562	responseLargeH	correct	n/a	0.36719	no	n/a	n/a
897.7851562	n/a	229833	largeHSmallT	correct	incongruent	0.39453	no	H	T
898.1796875	n/a	229934	responseLargeH	correct	n/a	0.39453	no	n/a	n/a
899.2382812	n/a	230205	largeHSmallH	correct	congruent	0.375	no	H	H
899.6132812	n/a	230301	responseLargeH	correct	n/a	0.375	no	n/a	n/a
900.6796875	n/a	230574	largeHSmallT	correct	incongruent	0.34766	no	H	T
901.0273438	n/a	230663	responseLargeH	correct	n/a	0.34766	no	n/a	n/a
902.0898438	n/a	230935	largeHSmallT	correct	incongruent	0.39062	no	H	T
902.4804688	n/a	231035	responseLargeH	correct	n/a	0.39062	no	n/a	n/a
903.5429688	n/a	231307	largeHSmallH	correct	congruent	0.36719	no	H	H
903.9101562	n/a	231401	responseLargeH	correct	n/a	0.36719	no	n/a	n/a
904.984375	n/a	231676	largeTSmallH	correct	incongruent	0.39844	no	T	H
905.3828125	n/a	231778	responseLargeT	correct	n/a	0.39844	no	n/a	n/a
906.453125	n/a	232052	largeHSmallH	correct	congruent	0.40234	no	H	H
906.8554688	n/a	232155	responseLargeH	correct	n/a	0.40234	no	n/a	n/a
907.9296875	n/a	232430	largeTSmallH	correct	incongruent	0.44531	no	T	H
908.375	n/a	232544	responseLargeT	correct	n/a	0.44531	no	n/a	n/a
911.1445312	n/a	233253	largeHSmallH	correct	congruent	0.73047	no	H	H
911.875	n/a	233440	responseSmallH	correct	n/a	0.73047	no	n/a	n/a
912.9296875	n/a	233710	largeHSmallH	correct	congruent	0.45703	no	H	H
913.3867188	n/a	233827	responseSmallH	correct	n/a	0.45703	no	n/a	n/a
914.4492188	n/a	234099	largeTSmallH	correct	incongruent	0.64453	no	T	H
915.09375	n/a	234264	responseSmallH	correct	n/a	0.64453	no	n/a	n/a
916.171875	n/a	234540	largeTSmallT	correct	congruent	0.41406	no	T	T
916.5859375	n/a	234646	responseSmallT	correct	n/a	0.41406	no	n/a	n/a
917.6523438	n/a	234919	largeTSmallH	correct	incongruent	0.39844	no	T	H
918.0507812	n/a	235021	responseSmallH	correct	n/a	0.39844	no	n/a	n/a
919.1171875	n/a	235294	largeTSmallH	correct	incongruent	0.39453	no	T	H
919.5117188	n/a	235395	responseSmallH	correct	n/a	0.39453	no	n/a	n/a
920.5859375	n/a	235670	largeHSmallH	correct	congruent	0.47266	no	H	H
921.0585938	n/a	235791	responseSmallH	correct	n/a	0.47266	no	n/a	n/a
922.1328125	n/a	236066	largeHSmallH	correct	congruent	0.57812	no	H	H
922.7109375	n/a	236214	responseSmallH	correct	n/a	0.57812	no	n/a	n/a
923.7851562	n/a	236489	largeTSmallH	correct	incongruent	0.48047	no	T	H
924.265625	n/a	236612	responseSmallH	correct	n/a	0.48047	no	n/a	n/a
925.34375	n/a	236888	largeHSmallT	correct	incongruent	0.42578	no	H	T
925.7695312	n/a	236997	responseSmallT	correct	n/a	0.42578	no	n/a	n/a
926.8359375	n/a	237270	largeTSmallH	correct	incongruent	0.41406	no	T	H
927.25	n/a	237376	responseSmallH	correct	n/a	0.41406	no	n/a	n/a
928.3164062	n/a	237649	largeTSmallH	correct	incongruent	0.42969	no	T	H
928.7460938	n/a	237759	responseSmallH	correct	n/a	0.42969	no	n/a	n/a
929.8125	n/a	238032	largeTSmallH	correct	incongruent	0.375	no	T	H
930.1875	n/a	238128	responseSmallH	correct	n/a	0.375	no	n/a	n/a
931.25	n/a	238400	largeHSmallT	correct	incongruent	0.41406	no	H	T
931.6640625	n/a	238506	responseSmallT	correct	n/a	0.41406	no	n/a	n/a
932.7304688	n/a	238779	largeHSmallH	correct	congruent	0.45703	no	H	H
933.1875	n/a	238896	responseSmallH	correct	n/a	0.45703	no	n/a	n/a
934.265625	n/a	239172	largeTSmallT	correct	congruent	0.42969	no	T	T
934.6953125	n/a	239282	responseSmallT	correct	n/a	0.42969	no	n/a	n/a
935.7578125	n/a	239554	largeTSmallH	correct	incongruent	0.38672	no	T	H
936.1445312	n/a	239653	responseSmallH	correct	n/a	0.38672	no	n/a	n/a
937.2109375	n/a	239926	largeHSmallH	correct	congruent	0.5	no	H	H
937.7109375	n/a	240054	responseSmallH	correct	n/a	0.5	no	n/a	n/a
938.7851562	n/a	240329	largeHSmallT	correct	incongruent	0.46484	no	H	T
939.25	n/a	240448	responseSmallT	correct	n/a	0.46484	no	n/a	n/a
940.3164062	n/a	240721	largeTSmallH	correct	incongruent	0.42188	no	T	H
940.7382812	n/a	240829	responseSmallH	correct	n/a	0.42188	no	n/a	n/a
941.796875	n/a	241100	largeTSmallH	correct	incongruent	0.44141	no	T	H
942.2382812	n/a	241213	responseSmallH	correct	n/a	0.44141	no	n/a	n/a
943.3164062	n/a	241489	largeTSmallT	correct	congruent	0.44141	no	T	T
943.7578125	n/a	241602	responseSmallT	correct	n/a	0.44141	no	n/a	n/a
944.8242188	n/a	241875	largeTSmallT	correct	congruent	0.4375	no	T	T
945.2617188	n/a	241987	responseSmallT	correct	n/a	0.4375	no	n/a	n/a
946.3320312	n/a	242261	largeTSmallH	correct	incongruent	0.50781	no	T	H
946.8398438	n/a	242391	responseSmallH	correct	n/a	0.50781	no	n/a	n/a
947.9179688	n/a	242667	largeHSmallH	correct	congruent	0.49219	no	H	H
948.4101562	n/a	242793	responseSmallH	correct	n/a	0.49219	no	n/a	n/a
949.4765625	n/a	243066	largeTSmallH	correct	incongruent	0.44531	no	T	H
949.921875	n/a	243180	responseSmallH	correct	n/a	0.44531	no	n/a	n/a
950.984375	n/a	243452	largeHSmallH	correct	congruent	0.42188	no	H	H
951.40625	n/a	243560	responseSmallH	correct	n/a	0.42188	no	n/a	n/a
952.4648438	n/a	243831	largeHSmallT	correct	incongruent	0.47656	no	H	T
952.9414062	n/a	243953	responseSmallT	correct	n/a	0.47656	no	n/a	n/a
954.0117188	n/a	244227	largeHSmallT	correct	incongruent	0.45703	no	H	T
954.46875	n/a	244344	responseSmallT	correct	n/a	0.45703	no	n/a	n/a
955.5429688	n/a	244619	largeHSmallT	correct	incongruent	0.46484	no	H	T
956.0078125	n/a	244738	responseSmallT	correct	n/a	0.46484	no	n/a	n/a
957.0625	n/a	245008	largeTSmallH	correct	incongruent	0.5	no	T	H
957.5625	n/a	245136	responseSmallH	correct	n/a	0.5	no	n/a	n/a
958.625	n/a	245408	largeHSmallT	correct	incongruent	0.51562	no	H	T
959.140625	n/a	245540	responseSmallT	correct	n/a	0.51562	no	n/a	n/a
960.2109375	n/a	245814	largeHSmallT	correct	incongruent	0.4375	no	H	T
960.6484375	n/a	245926	responseSmallT	correct	n/a	0.4375	no	n/a	n/a
961.7148438	n/a	246199	largeHSmallT	correct	incongruent	0.47266	no	H	T
962.1875	n/a	246320	responseSmallT	correct	n/a	0.47266	no	n/a	n/a
963.25	n/a	246592	largeTSmallT	correct	congruent	0.44922	no	T	T
963.6992188	n/a	246707	responseSmallT	correct	n/a	0.44922	no	n/a	n/a
964.7578125	n/a	246978	largeTSmallH	correct	incongruent	0.46875	no	T	H
965.2265625	n/a	247098	responseSmallH	correct	n/a	0.46875	no	n/a	n/a
966.2890625	n/a	247370	largeHSmallT	correct	incongruent	0.39844	no	H	T
966.6875	n/a	247472	responseSmallT	correct	n/a	0.39844	no	n/a	n/a
967.7578125	n/a	247746	largeTSmallH	correct	incongruent	0.43359	no	T	H
968.1914062	n/a	247857	responseSmallH	correct	n/a	0.43359	no	n/a	n/a
969.25	n/a	248128	largeTSmallH	correct	incongruent	0.40625	no	T	H
969.65625	n/a	248232	responseSmallH	correct	n/a	0.40625	no	n/a	n/a
970.7148438	n/a	248503	largeHSmallH	correct	congruent	0.50781	no	H	H
971.2226562	n/a	248633	responseSmallH	correct	n/a	0.50781	no	n/a	n/a
972.2890625	n/a	248906	largeHSmallT	correct	incongruent	0.49609	no	H	T
972.7851562	n/a	249033	responseSmallT	correct	n/a	0.49609	no	n/a	n/a
973.8515625	n/a	249306	largeHSmallT	correct	incongruent	0.40625	no	H	T
974.2578125	n/a	249410	responseSmallT	correct	n/a	0.40625	no	n/a	n/a
975.3164062	n/a	249681	largeHSmallH	correct	congruent	0.45703	no	H	H
975.7734375	n/a	249798	responseSmallH	correct	n/a	0.45703	no	n/a	n/a
976.8359375	n/a	250070	largeTSmallT	correct	congruent	0.42969	no	T	T
977.265625	n/a	250180	responseSmallT	correct	n/a	0.42969	no	n/a	n/a
978.328125	n/a	250452	largeHSmallH	correct	congruent	0.39062	no	H	H
978.71875	n/a	250552	responseSmallH	correct	n/a	0.39062	no	n/a	n/a
979.78125	n/a	250824	largeTSmallT	correct	congruent	0.39844	no	T	T
980.1796875	n/a	250926	responseSmallT	correct	n/a	0.39844	no	n/a	n/a
981.25	n/a	251200	largeHSmallH	correct	congruent	0.35938	no	H	H
981.609375	n/a	251292	responseSmallH	correct	n/a	0.35938	no	n/a	n/a
982.6757812	n/a	251565	largeHSmallT	correct	incongruent	0.43359	no	H	T
983.109375	n/a	251676	responseSmallT	correct	n/a	0.43359	no	n/a	n/a
984.1835938	n/a	251951	largeHSmallT	correct	incongruent	0.44141	no	H	T
984.625	n/a	252064	responseSmallT	correct	n/a	0.44141	no	n/a	n/a
985.6914062	n/a	252337	largeHSmallH	correct	congruent	0.44922	no	H	H
986.140625	n/a	252452	responseSmallH	correct	n/a	0.44922	no	n/a	n/a
987.2109375	n/a	252726	largeHSmallT	correct	incongruent	0.42578	no	H	T
987.6367188	n/a	252835	responseSmallT	correct	n/a	0.42578	no	n/a	n/a
988.703125	n/a	253108	largeHSmallT	correct	incongruent	0.42578	no	H	T
989.1289062	n/a	253217	responseSmallT	correct	n/a	0.42578	no	n/a	n/a
990.2109375	n/a	253494	largeTSmallH	correct	incongruent	0.44531	no	T	H
990.65625	n/a	253608	responseSmallH	correct	n/a	0.44531	no	n/a	n/a
991.7148438	n/a	253879	largeHSmallT	correct	incongruent	0.51172	no	H	T
992.2265625	n/a	254010	responseSmallT	correct	n/a	0.51172	no	n/a	n/a
993.2890625	n/a	254282	largeHSmallH	correct	congruent	0.34766	no	H	H
993.6367188	n/a	254371	responseSmallH	correct	n/a	0.34766	no	n/a	n/a
994.6875	n/a	254640	largeHSmallH	correct	congruent	0.44141	no	H	H
995.1289062	n/a	254753	responseSmallH	correct	n/a	0.44141	no	n/a	n/a
996.1953125	n/a	255026	largeTSmallT	correct	congruent	0.43359	no	T	T
996.6289062	n/a	255137	responseSmallT	correct	n/a	0.43359	no	n/a	n/a
997.6875	n/a	255408	largeTSmallH	correct	incongruent	0.44922	no	T	H
998.1367188	n/a	255523	responseSmallH	correct	n/a	0.44922	no	n/a	n/a
999.2109375	n/a	255798	largeHSmallT	correct	incongruent	0.40234	no	H	T
999.6132812	n/a	255901	responseSmallT	correct	n/a	0.40234	no	n/a	n/a
1000.675781	n/a	256173	largeHSmallH	correct	congruent	0.38672	no	H	H
1001.0625	n/a	256272	responseSmallH	correct	n/a	0.38672	no	n/a	n/a
1002.140625	n/a	256548	largeTSmallT	correct	congruent	0.41406	no	T	T
1002.554688	n/a	256654	responseSmallT	correct	n/a	0.41406	no	n/a	n/a
1003.621094	n/a	256927	largeHSmallT	correct	incongruent	0.57031	no	H	T
1004.191406	n/a	257073	responseSmallT	correct	n/a	0.57031	no	n/a	n/a
1005.261719	n/a	257347	largeHSmallH	correct	congruent	0.46484	no	H	H
1005.726562	n/a	257466	responseSmallH	correct	n/a	0.46484	no	n/a	n/a
1006.78125	n/a	257736	largeHSmallT	correct	incongruent	0.44531	no	H	T
1007.226562	n/a	257850	responseSmallT	correct	n/a	0.44531	no	n/a	n/a
1008.300781	n/a	258125	largeTSmallT	correct	congruent	0.55469	no	T	T
1008.855469	n/a	258267	responseSmallT	correct	n/a	0.55469	no	n/a	n/a
1009.929688	n/a	258542	largeTSmallT	correct	congruent	0.42188	no	T	T
1010.351562	n/a	258650	responseSmallT	correct	n/a	0.42188	no	n/a	n/a
1011.421875	n/a	258924	largeTSmallT	correct	congruent	0.41016	no	T	T
1011.832031	n/a	259029	responseSmallT	correct	n/a	0.41016	no	n/a	n/a
1012.902344	n/a	259303	largeTSmallT	correct	congruent	0.38672	no	T	T
1013.289062	n/a	259402	responseSmallT	correct	n/a	0.38672	no	n/a	n/a
1014.355469	n/a	259675	largeHSmallT	correct	incongruent	0.47656	no	H	T
1014.832031	n/a	259797	responseSmallT	correct	n/a	0.47656	no	n/a	n/a
1015.902344	n/a	260071	largeTSmallT	correct	congruent	0.41797	no	T	T
1016.320312	n/a	260178	responseSmallT	correct	n/a	0.41797	no	n/a	n/a
1017.382812	n/a	260450	largeTSmallH	correct	incongruent	0.4375	no	T	H
1017.820312	n/a	260562	responseSmallH	correct	n/a	0.4375	no	n/a	n/a
1018.890625	n/a	260836	largeTSmallT	correct	congruent	0.43359	no	T	T
1019.324219	n/a	260947	responseSmallT	correct	n/a	0.43359	no	n/a	n/a
1020.394531	n/a	261221	largeTSmallH	correct	incongruent	0.40625	no	T	H
1020.800781	n/a	261325	responseSmallH	correct	n/a	0.40625	no	n/a	n/a
1021.875	n/a	261600	largeHSmallT	correct	incongruent	0.42969	no	H	T
1022.304688	n/a	261710	responseSmallT	correct	n/a	0.42969	no	n/a	n/a
1023.367188	n/a	261982	largeHSmallH	correct	congruent	0.42969	no	H	H
1023.796875	n/a	262092	responseSmallH	correct	n/a	0.42969	no	n/a	n/a
1024.863281	n/a	262365	largeTSmallT	correct	congruent	0.36719	no	T	T
1025.230469	n/a	262459	responseSmallT	correct	n/a	0.36719	no	n/a	n/a
1026.300781	n/a	262733	largeHSmallT	correct	incongruent	0.49219	no	H	T
1026.792969	n/a	262859	responseSmallT	correct	n/a	0.49219	no	n/a	n/a
1027.863281	n/a	263133	largeTSmallT	correct	congruent	0.38672	no	T	T
1028.25	n/a	263232	responseSmallT	correct	n/a	0.38672	no	n/a	n/a
1029.316406	n/a	263505	largeTSmallH	correct	incongruent	0.48047	no	T	H
1029.796875	n/a	263628	responseSmallH	correct	n/a	0.48047	no	n/a	n/a
1030.863281	n/a	263901	largeHSmallT	correct	incongruent	0.44922	no	H	T
1031.3125	n/a	264016	responseSmallT	correct	n/a	0.44922	no	n/a	n/a
1032.382812	n/a	264290	largeTSmallT	correct	congruent	0.38281	no	T	T
1032.765625	n/a	264388	responseSmallT	correct	n/a	0.38281	no	n/a	n/a
1033.835938	n/a	264662	largeHSmallH	correct	congruent	0.43359	no	H	H
1034.269531	n/a	264773	responseSmallH	correct	n/a	0.43359	no	n/a	n/a
1035.328125	n/a	265044	largeHSmallT	correct	incongruent	0.44922	no	H	T
1035.777344	n/a	265159	responseSmallT	correct	n/a	0.44922	no	n/a	n/a
1036.847656	n/a	265433	largeTSmallT	correct	congruent	0.38281	no	T	T
1037.230469	n/a	265531	responseSmallT	correct	n/a	0.38281	no	n/a	n/a
1038.300781	n/a	265805	largeTSmallT	correct	congruent	0.41797	no	T	T
1038.71875	n/a	265912	responseSmallT	correct	n/a	0.41797	no	n/a	n/a
1039.78125	n/a	266184	largeHSmallT	correct	incongruent	0.44531	no	H	T
1040.226562	n/a	266298	responseSmallT	correct	n/a	0.44531	no	n/a	n/a
1041.289062	n/a	266570	largeTSmallT	correct	congruent	0.34766	no	T	T
1041.636719	n/a	266659	responseSmallT	correct	n/a	0.34766	no	n/a	n/a
1042.703125	n/a	266932	largeTSmallH	correct	incongruent	0.42969	no	T	H
1043.132812	n/a	267042	responseSmallH	correct	n/a	0.42969	no	n/a	n/a
1044.195312	n/a	267314	largeTSmallH	correct	incongruent	0.46875	no	T	H
1044.664062	n/a	267434	responseSmallH	correct	n/a	0.46875	no	n/a	n/a
1045.726562	n/a	267706	largeHSmallT	correct	incongruent	0.40625	no	H	T
1046.132812	n/a	267810	responseSmallT	correct	n/a	0.40625	no	n/a	n/a
1047.207031	n/a	268085	largeTSmallT	correct	congruent	0.38672	no	T	T
1047.59375	n/a	268184	responseSmallT	correct	n/a	0.38672	no	n/a	n/a
1048.660156	n/a	268457	largeHSmallH	correct	congruent	0.41797	no	H	H
1049.078125	n/a	268564	responseSmallH	correct	n/a	0.41797	no	n/a	n/a
1050.140625	n/a	268836	largeHSmallH	correct	congruent	0.39062	no	H	H
1050.53125	n/a	268936	responseSmallH	correct	n/a	0.39062	no	n/a	n/a
1051.59375	n/a	269208	largeTSmallH	correct	incongruent	0.42969	no	T	H
1052.023438	n/a	269318	responseSmallH	correct	n/a	0.42969	no	n/a	n/a
1053.089844	n/a	269591	largeTSmallT	correct	congruent	0.41016	no	T	T
1053.5	n/a	269696	responseSmallT	correct	n/a	0.41016	no	n/a	n/a
1054.566406	n/a	269969	largeTSmallT	correct	congruent	0.37109	no	T	T
1054.9375	n/a	270064	responseSmallT	correct	n/a	0.37109	no	n/a	n/a
1056.007812	n/a	270338	largeHSmallH	correct	congruent	0.40234	no	H	H
1056.410156	n/a	270441	responseSmallH	correct	n/a	0.40234	no	n/a	n/a
1057.472656	n/a	270713	largeHSmallH	correct	congruent	0.39844	no	H	H
1057.871094	n/a	270815	responseSmallH	correct	n/a	0.39844	no	n/a	n/a
1058.941406	n/a	271089	largeTSmallT	correct	congruent	0.40234	no	T	T
1059.34375	n/a	271192	responseSmallT	correct	n/a	0.40234	no	n/a	n/a
1060.40625	n/a	271464	largeTSmallT	correct	congruent	0.39453	no	T	T
1060.800781	n/a	271565	responseSmallT	correct	n/a	0.39453	no	n/a	n/a
1061.875	n/a	271840	largeTSmallH	correct	incongruent	0.38672	no	T	H
1062.261719	n/a	271939	responseSmallH	correct	n/a	0.38672	no	n/a	n/a
1063.328125	n/a	272212	largeHSmallT	correct	incongruent	0.47266	no	H	T
1063.800781	n/a	272333	responseSmallT	correct	n/a	0.47266	no	n/a	n/a
1064.859375	n/a	272604	largeHSmallT	correct	incongruent	0.38672	no	H	T
1065.246094	n/a	272703	responseSmallT	correct	n/a	0.38672	no	n/a	n/a
1066.3125	n/a	272976	largeTSmallH	error	incongruent	0.375	no	T	H
1066.6875	n/a	273072	responseSmallT	error	n/a	0.375	no	n/a	n/a
1067.753906	n/a	273345	largeTSmallH	correct	incongruent	0.51953	no	T	H
1068.273438	n/a	273478	responseSmallH	correct	n/a	0.51953	no	n/a	n/a
1069.339844	n/a	273751	largeTSmallT	correct	congruent	0.46875	no	T	T
1069.808594	n/a	273871	responseSmallT	correct	n/a	0.46875	no	n/a	n/a
1070.875	n/a	274144	largeHSmallT	correct	incongruent	0.45703	no	H	T
1071.332031	n/a	274261	responseSmallT	correct	n/a	0.45703	no	n/a	n/a
1072.394531	n/a	274533	largeHSmallH	correct	congruent	0.45312	no	H	H
1072.847656	n/a	274649	responseSmallH	correct	n/a	0.45312	no	n/a	n/a
1073.914062	n/a	274922	largeTSmallT	correct	congruent	0.40625	no	T	T
1074.320312	n/a	275026	responseSmallT	correct	n/a	0.40625	no	n/a	n/a
1075.378906	n/a	275297	largeHSmallT	correct	incongruent	0.42578	no	H	T
1075.804688	n/a	275406	responseSmallT	correct	n/a	0.42578	no	n/a	n/a
1076.875	n/a	275680	largeTSmallT	correct	congruent	0.41797	no	T	T
1077.292969	n/a	275787	responseSmallT	correct	n/a	0.41797	no	n/a	n/a
1078.355469	n/a	276059	largeTSmallT	correct	congruent	0.40625	no	T	T
1078.761719	n/a	276163	responseSmallT	correct	n/a	0.40625	no	n/a	n/a
1079.820312	n/a	276434	largeHSmallT	correct	incongruent	0.41797	no	H	T
1080.238281	n/a	276541	responseSmallT	correct	n/a	0.41797	no	n/a	n/a
1081.3125	n/a	276816	largeHSmallH	correct	congruent	0.42188	no	H	H
1081.734375	n/a	276924	responseSmallH	correct	n/a	0.42188	no	n/a	n/a
1082.808594	n/a	277199	largeHSmallT	correct	incongruent	0.45312	no	H	T
1083.261719	n/a	277315	responseSmallT	correct	n/a	0.45312	no	n/a	n/a
1084.339844	n/a	277591	largeHSmallT	correct	incongruent	0.375	no	H	T
1084.714844	n/a	277687	responseSmallT	correct	n/a	0.375	no	n/a	n/a
1085.78125	n/a	277960	largeHSmallH	correct	congruent	0.51562	no	H	H
1086.296875	n/a	278092	responseSmallH	correct	n/a	0.51562	no	n/a	n/a
1087.367188	n/a	278366	largeHSmallT	correct	incongruent	0.35547	no	H	T
1087.722656	n/a	278457	responseSmallT	correct	n/a	0.35547	no	n/a	n/a
1088.792969	n/a	278731	largeHSmallT	correct	incongruent	0.30078	no	H	T
1089.09375	n/a	278808	responseSmallT	correct	n/a	0.30078	no	n/a	n/a
1090.152344	n/a	279079	largeTSmallH	correct	incongruent	0.39062	no	T	H
1090.542969	n/a	279179	responseSmallH	correct	n/a	0.39062	no	n/a	n/a
1091.605469	n/a	279451	largeTSmallH	correct	incongruent	0.42969	no	T	H
1092.035156	n/a	279561	responseSmallH	correct	n/a	0.42969	no	n/a	n/a
1093.101562	n/a	279834	largeHSmallH	correct	congruent	0.41797	no	H	H
1093.519531	n/a	279941	responseSmallH	correct	n/a	0.41797	no	n/a	n/a
1094.582031	n/a	280213	largeTSmallT	correct	congruent	0.34375	no	T	T
1094.925781	n/a	280301	responseSmallT	correct	n/a	0.34375	no	n/a	n/a
1095.980469	n/a	280571	largeTSmallH	correct	incongruent	0.40234	no	T	H
1096.382812	n/a	280674	responseSmallH	correct	n/a	0.40234	no	n/a	n/a
1097.449219	n/a	280947	largeHSmallT	correct	incongruent	0.37891	no	H	T
1097.828125	n/a	281044	responseSmallT	correct	n/a	0.37891	no	n/a	n/a
1098.886719	n/a	281315	largeHSmallH	correct	congruent	0.35156	no	H	H
1099.238281	n/a	281405	responseSmallH	correct	n/a	0.35156	no	n/a	n/a
1100.3125	n/a	281680	largeHSmallT	correct	incongruent	0.39844	no	H	T
1100.710938	n/a	281782	responseSmallT	correct	n/a	0.39844	no	n/a	n/a
1101.78125	n/a	282056	largeHSmallT	correct	incongruent	0.46094	no	H	T
1102.242188	n/a	282174	responseSmallT	correct	n/a	0.46094	no	n/a	n/a
1103.300781	n/a	282445	largeTSmallT	correct	congruent	0.37891	no	T	T
1103.679688	n/a	282542	responseSmallT	correct	n/a	0.37891	no	n/a	n/a
