onset	duration	sample	value	response_type	congruence	response_time	response_out_of_range	largeletter	smallletter
22.89453125	n/a	5861	largeTSmallT	correct	congruent	3.4727	yes	T	T
26.3671875	n/a	6750	responseLargeT	correct	n/a	3.4727	yes	n/a	n/a
27.4296875	n/a	7022	largeTSmallH	correct	incongruent	1.6211	yes	T	H
29.05078125	n/a	7437	responseLargeT	correct	n/a	1.6211	yes	n/a	n/a
30.109375	n/a	7708	largeTSmallT	correct	congruent	0.51172	no	T	T
30.62109375	n/a	7839	responseLargeT	correct	n/a	0.51172	no	n/a	n/a
31.6953125	n/a	8114	largeTSmallT	correct	congruent	0.57422	no	T	T
32.26953125	n/a	8261	responseLargeT	correct	n/a	0.57422	no	n/a	n/a
33.34765625	n/a	8537	largeTSmallT	correct	congruent	0.41797	no	T	T
33.765625	n/a	8644	responseLargeT	correct	n/a	0.41797	no	n/a	n/a
34.83984375	n/a	8919	largeTSmallT	correct	congruent	0.64844	no	T	T
35.48828125	n/a	9085	responseLargeT	correct	n/a	0.64844	no	n/a	n/a
36.5625	n/a	9360	largeTSmallT	correct	congruent	0.55078	no	T	T
37.11328125	n/a	9501	responseLargeT	correct	n/a	0.55078	no	n/a	n/a
38.17578125	n/a	9773	largeHSmallH	correct	congruent	0.73438	no	H	H
38.91015625	n/a	9961	responseLargeH	correct	n/a	0.73438	no	n/a	n/a
39.98828125	n/a	10237	largeHSmallH	correct	congruent	0.58594	no	H	H
40.57421875	n/a	10387	responseLargeH	correct	n/a	0.58594	no	n/a	n/a
41.640625	n/a	10660	largeTSmallT	correct	congruent	0.70312	no	T	T
42.34375	n/a	10840	responseLargeT	correct	n/a	0.70312	no	n/a	n/a
43.4296875	n/a	11118	largeHSmallH	correct	congruent	0.65234	no	H	H
44.08203125	n/a	11285	responseLargeH	correct	n/a	0.65234	no	n/a	n/a
45.1484375	n/a	11558	largeTSmallH	error	incongruent	0.55859	no	T	H
45.70703125	n/a	11701	responseLargeH	error	n/a	0.55859	no	n/a	n/a
46.7734375	n/a	11974	largeTSmallT	correct	congruent	0.55078	no	T	T
47.32421875	n/a	12115	responseLargeT	correct	n/a	0.55078	no	n/a	n/a
48.40234375	n/a	12391	largeTSmallT	correct	congruent	0.64844	no	T	T
49.05078125	n/a	12557	responseLargeT	correct	n/a	0.64844	no	n/a	n/a
50.12109375	n/a	12831	largeTSmallT	correct	congruent	0.50781	no	T	T
50.62890625	n/a	12961	responseLargeT	correct	n/a	0.50781	no	n/a	n/a
51.70703125	n/a	13237	largeHSmallT	error	incongruent	0.625	no	H	T
52.33203125	n/a	13397	responseLargeT	error	n/a	0.625	no	n/a	n/a
53.40234375	n/a	13671	largeHSmallH	correct	congruent	3.0977	yes	H	H
56.5	n/a	14464	responseLargeH	correct	n/a	3.0977	yes	n/a	n/a
57.57421875	n/a	14739	largeTSmallH	correct	incongruent	1.1602	no	T	H
58.734375	n/a	15036	responseLargeT	correct	n/a	1.1602	no	n/a	n/a
59.80078125	n/a	15309	largeTSmallT	correct	congruent	1.1797	no	T	T
60.98046875	n/a	15611	responseLargeT	correct	n/a	1.1797	no	n/a	n/a
62.0546875	n/a	15886	largeTSmallT	correct	congruent	0.53906	no	T	T
62.59375	n/a	16024	responseLargeT	correct	n/a	0.53906	no	n/a	n/a
63.66796875	n/a	16299	largeHSmallH	correct	congruent	0.57031	no	H	H
64.23828125	n/a	16445	responseLargeH	correct	n/a	0.57031	no	n/a	n/a
65.30859375	n/a	16719	largeHSmallT	correct	incongruent	0.60547	no	H	T
65.9140625	n/a	16874	responseLargeH	correct	n/a	0.60547	no	n/a	n/a
66.97265625	n/a	17145	largeHSmallT	correct	incongruent	1.1289	no	H	T
68.1015625	n/a	17434	responseLargeH	correct	n/a	1.1289	no	n/a	n/a
69.17578125	n/a	17709	largeHSmallH	correct	congruent	0.52344	no	H	H
69.69921875	n/a	17843	responseLargeH	correct	n/a	0.52344	no	n/a	n/a
70.7734375	n/a	18118	largeTSmallT	error	congruent	0.5	no	T	T
71.2734375	n/a	18246	responseLargeH	error	n/a	0.5	no	n/a	n/a
72.34765625	n/a	18521	largeTSmallH	correct	incongruent	0.55078	no	T	H
72.8984375	n/a	18662	responseLargeT	correct	n/a	0.55078	no	n/a	n/a
73.9609375	n/a	18934	largeHSmallH	correct	congruent	0.67188	no	H	H
74.6328125	n/a	19106	responseLargeH	correct	n/a	0.67188	no	n/a	n/a
75.6953125	n/a	19378	largeTSmallT	correct	congruent	0.82812	no	T	T
76.5234375	n/a	19590	responseLargeT	correct	n/a	0.82812	no	n/a	n/a
77.6015625	n/a	19866	largeHSmallT	correct	incongruent	0.75781	no	H	T
78.359375	n/a	20060	responseLargeH	correct	n/a	0.75781	no	n/a	n/a
79.42578125	n/a	20333	largeHSmallT	correct	incongruent	0.54688	no	H	T
79.97265625	n/a	20473	responseLargeH	correct	n/a	0.54688	no	n/a	n/a
81.0546875	n/a	20750	largeTSmallT	correct	congruent	0.60156	no	T	T
81.65625	n/a	20904	responseLargeT	correct	n/a	0.60156	no	n/a	n/a
82.734375	n/a	21180	largeHSmallT	correct	incongruent	0.70703	no	H	T
83.44140625	n/a	21361	responseLargeH	correct	n/a	0.70703	no	n/a	n/a
84.5078125	n/a	21634	largeHSmallT	correct	incongruent	0.51172	no	H	T
85.01953125	n/a	21765	responseLargeH	correct	n/a	0.51172	no	n/a	n/a
86.08203125	n/a	22037	largeHSmallT	correct	incongruent	0.625	no	H	T
86.70703125	n/a	22197	responseLargeH	correct	n/a	0.625	no	n/a	n/a
87.7734375	n/a	22470	largeHSmallT	correct	incongruent	0.51172	no	H	T
88.28515625	n/a	22601	responseLargeH	correct	n/a	0.51172	no	n/a	n/a
89.34765625	n/a	22873	largeTSmallT	correct	congruent	0.64062	no	T	T
89.98828125	n/a	23037	responseLargeT	correct	n/a	0.64062	no	n/a	n/a
91.06640625	n/a	23313	largeTSmallT	correct	congruent	0.51562	no	T	T
91.58203125	n/a	23445	responseLargeT	correct	n/a	0.51562	no	n/a	n/a
92.65234375	n/a	23719	largeTSmallH	correct	incongruent	0.80859	no	T	H
93.4609375	n/a	23926	responseLargeT	correct	n/a	0.80859	no	n/a	n/a
94.51953125	n/a	24197	largeTSmallH	correct	incongruent	0.91797	no	T	H
95.4375	n/a	24432	responseLargeT	correct	n/a	0.91797	no	n/a	n/a
96.5078125	n/a	24706	largeHSmallH	error	congruent	0.9375	no	H	H
97.4453125	n/a	24946	responseLargeT	error	n/a	0.9375	no	n/a	n/a
98.51953125	n/a	25221	largeTSmallH	correct	incongruent	0.48047	no	T	H
99	n/a	25344	responseLargeT	correct	n/a	0.48047	no	n/a	n/a
100.0664062	n/a	25617	largeTSmallH	correct	incongruent	0.68359	no	T	H
100.75	n/a	25792	responseLargeT	correct	n/a	0.68359	no	n/a	n/a
101.8125	n/a	26064	largeHSmallH	correct	congruent	0.78906	no	H	H
102.6015625	n/a	26266	responseLargeH	correct	n/a	0.78906	no	n/a	n/a
103.6679688	n/a	26539	largeTSmallH	correct	incongruent	0.81641	no	T	H
104.484375	n/a	26748	responseLargeT	correct	n/a	0.81641	no	n/a	n/a
105.5585938	n/a	27023	largeHSmallT	correct	incongruent	0.58594	no	H	T
106.1445312	n/a	27173	responseLargeH	correct	n/a	0.58594	no	n/a	n/a
107.2148438	n/a	27447	largeHSmallT	correct	incongruent	0.55469	no	H	T
107.7695312	n/a	27589	responseLargeH	correct	n/a	0.55469	no	n/a	n/a
108.8515625	n/a	27866	largeTSmallT	correct	congruent	0.64453	no	T	T
109.4960938	n/a	28031	responseLargeT	correct	n/a	0.64453	no	n/a	n/a
110.5585938	n/a	28303	largeTSmallT	correct	congruent	0.71484	no	T	T
111.2734375	n/a	28486	responseLargeT	correct	n/a	0.71484	no	n/a	n/a
112.3476562	n/a	28761	largeHSmallT	correct	incongruent	0.67969	no	H	T
113.0273438	n/a	28935	responseLargeH	correct	n/a	0.67969	no	n/a	n/a
114.1054688	n/a	29211	largeHSmallH	correct	congruent	0.72266	no	H	H
114.828125	n/a	29396	responseLargeH	correct	n/a	0.72266	no	n/a	n/a
115.90625	n/a	29672	largeHSmallH	correct	congruent	0.47266	no	H	H
116.3789062	n/a	29793	responseLargeH	correct	n/a	0.47266	no	n/a	n/a
117.4414062	n/a	30065	largeTSmallT	correct	congruent	0.61328	no	T	T
118.0546875	n/a	30222	responseLargeT	correct	n/a	0.61328	no	n/a	n/a
119.1328125	n/a	30498	largeHSmallT	correct	incongruent	0.42578	no	H	T
119.5585938	n/a	30607	responseLargeH	correct	n/a	0.42578	no	n/a	n/a
120.625	n/a	30880	largeHSmallH	correct	congruent	0.59766	no	H	H
121.2226562	n/a	31033	responseLargeH	correct	n/a	0.59766	no	n/a	n/a
122.2929688	n/a	31307	largeTSmallT	correct	congruent	0.66797	no	T	T
122.9609375	n/a	31478	responseLargeT	correct	n/a	0.66797	no	n/a	n/a
124.0273438	n/a	31751	largeHSmallH	correct	congruent	1.2148	no	H	H
125.2421875	n/a	32062	responseLargeH	correct	n/a	1.2148	no	n/a	n/a
126.3203125	n/a	32338	largeHSmallT	correct	incongruent	0.70703	no	H	T
127.0273438	n/a	32519	responseLargeH	correct	n/a	0.70703	no	n/a	n/a
128.09375	n/a	32792	largeTSmallT	correct	congruent	0.80859	no	T	T
128.9023438	n/a	32999	responseLargeT	correct	n/a	0.80859	no	n/a	n/a
129.9726562	n/a	33273	largeTSmallH	correct	incongruent	1.0391	no	T	H
131.0117188	n/a	33539	responseLargeT	correct	n/a	1.0391	no	n/a	n/a
132.078125	n/a	33812	largeTSmallH	correct	incongruent	1.1484	no	T	H
133.2265625	n/a	34106	responseLargeT	correct	n/a	1.1484	no	n/a	n/a
134.2929688	n/a	34379	largeHSmallT	correct	incongruent	0.67969	no	H	T
134.9726562	n/a	34553	responseLargeH	correct	n/a	0.67969	no	n/a	n/a
136.0390625	n/a	34826	largeHSmallT	correct	incongruent	0.51172	no	H	T
136.5507812	n/a	34957	responseLargeH	correct	n/a	0.51172	no	n/a	n/a
137.6132812	n/a	35229	largeHSmallH	correct	congruent	0.71094	no	H	H
138.3242188	n/a	35411	responseLargeH	correct	n/a	0.71094	no	n/a	n/a
139.3984375	n/a	35686	largeTSmallH	correct	incongruent	0.76953	no	T	H
140.1679688	n/a	35883	responseLargeT	correct	n/a	0.76953	no	n/a	n/a
141.2382812	n/a	36157	largeHSmallH	correct	congruent	0.96484	no	H	H
142.203125	n/a	36404	responseLargeH	correct	n/a	0.96484	no	n/a	n/a
143.2773438	n/a	36679	largeHSmallH	correct	congruent	0.69141	no	H	H
143.96875	n/a	36856	responseLargeH	correct	n/a	0.69141	no	n/a	n/a
145.0390625	n/a	37130	largeHSmallH	correct	congruent	0.46875	no	H	H
145.5078125	n/a	37250	responseLargeH	correct	n/a	0.46875	no	n/a	n/a
146.5859375	n/a	37526	largeHSmallT	correct	incongruent	0.49609	no	H	T
147.0820312	n/a	37653	responseLargeH	correct	n/a	0.49609	no	n/a	n/a
148.1601562	n/a	37929	largeTSmallH	correct	incongruent	0.63672	no	T	H
148.796875	n/a	38092	responseLargeT	correct	n/a	0.63672	no	n/a	n/a
149.8789062	n/a	38369	largeHSmallH	correct	congruent	0.44531	no	H	H
150.3242188	n/a	38483	responseLargeH	correct	n/a	0.44531	no	n/a	n/a
151.3867188	n/a	38755	largeHSmallT	correct	incongruent	0.75781	no	H	T
152.1445312	n/a	38949	responseLargeH	correct	n/a	0.75781	no	n/a	n/a
153.2109375	n/a	39222	largeTSmallH	correct	incongruent	0.64844	no	T	H
153.859375	n/a	39388	responseLargeT	correct	n/a	0.64844	no	n/a	n/a
154.9335938	n/a	39663	largeTSmallH	correct	incongruent	0.5	no	T	H
155.4335938	n/a	39791	responseLargeT	correct	n/a	0.5	no	n/a	n/a
156.5039062	n/a	40065	largeTSmallT	correct	congruent	0.76562	no	T	T
157.2695312	n/a	40261	responseLargeT	correct	n/a	0.76562	no	n/a	n/a
158.3320312	n/a	40533	largeHSmallH	correct	congruent	0.65234	no	H	H
158.984375	n/a	40700	responseLargeH	correct	n/a	0.65234	no	n/a	n/a
160.0507812	n/a	40973	largeHSmallH	correct	congruent	0.49219	no	H	H
160.5429688	n/a	41099	responseLargeH	correct	n/a	0.49219	no	n/a	n/a
161.625	n/a	41376	largeHSmallH	correct	congruent	0.51953	no	H	H
162.1445312	n/a	41509	responseLargeH	correct	n/a	0.51953	no	n/a	n/a
163.2109375	n/a	41782	largeTSmallT	error	congruent	0.52344	no	T	T
163.734375	n/a	41916	responseLargeH	error	n/a	0.52344	no	n/a	n/a
164.8125	n/a	42192	largeHSmallT	correct	incongruent	0.53516	no	H	T
165.3476562	n/a	42329	responseLargeH	correct	n/a	0.53516	no	n/a	n/a
166.4101562	n/a	42601	largeTSmallT	correct	congruent	0.64844	no	T	T
167.0585938	n/a	42767	responseLargeT	correct	n/a	0.64844	no	n/a	n/a
168.1328125	n/a	43042	largeHSmallH	correct	congruent	0.625	no	H	H
168.7578125	n/a	43202	responseLargeH	correct	n/a	0.625	no	n/a	n/a
169.8242188	n/a	43475	largeTSmallH	correct	incongruent	0.91406	no	T	H
170.7382812	n/a	43709	responseLargeT	correct	n/a	0.91406	no	n/a	n/a
171.8125	n/a	43984	largeHSmallH	correct	congruent	0.51562	no	H	H
172.328125	n/a	44116	responseLargeH	correct	n/a	0.51562	no	n/a	n/a
173.3984375	n/a	44390	largeHSmallT	correct	incongruent	0.53906	no	H	T
173.9375	n/a	44528	responseLargeH	correct	n/a	0.53906	no	n/a	n/a
175.0117188	n/a	44803	largeHSmallH	correct	congruent	0.49219	no	H	H
175.5039062	n/a	44929	responseLargeH	correct	n/a	0.49219	no	n/a	n/a
176.5859375	n/a	45206	largeHSmallT	correct	incongruent	0.78125	no	H	T
177.3671875	n/a	45406	responseLargeH	correct	n/a	0.78125	no	n/a	n/a
178.4375	n/a	45680	largeTSmallH	correct	incongruent	0.73438	no	T	H
179.171875	n/a	45868	responseLargeT	correct	n/a	0.73438	no	n/a	n/a
180.2382812	n/a	46141	largeTSmallT	error	congruent	0.43359	no	T	T
180.671875	n/a	46252	responseLargeH	error	n/a	0.43359	no	n/a	n/a
181.7460938	n/a	46527	largeTSmallH	correct	incongruent	0.52344	no	T	H
182.2695312	n/a	46661	responseLargeT	correct	n/a	0.52344	no	n/a	n/a
183.3320312	n/a	46933	largeHSmallT	correct	incongruent	0.55469	no	H	T
183.8867188	n/a	47075	responseLargeH	correct	n/a	0.55469	no	n/a	n/a
184.9570312	n/a	47349	largeHSmallH	correct	congruent	0.52344	no	H	H
185.4804688	n/a	47483	responseLargeH	correct	n/a	0.52344	no	n/a	n/a
186.5585938	n/a	47759	largeTSmallT	error	congruent	0.53516	no	T	T
187.09375	n/a	47896	responseLargeH	error	n/a	0.53516	no	n/a	n/a
188.15625	n/a	48168	largeHSmallT	correct	incongruent	0.48047	no	H	T
188.6367188	n/a	48291	responseLargeH	correct	n/a	0.48047	no	n/a	n/a
189.703125	n/a	48564	largeTSmallT	correct	congruent	0.78516	no	T	T
190.4882812	n/a	48765	responseLargeT	correct	n/a	0.78516	no	n/a	n/a
191.5585938	n/a	49039	largeTSmallH	correct	incongruent	0.70703	no	T	H
192.265625	n/a	49220	responseLargeT	correct	n/a	0.70703	no	n/a	n/a
193.3320312	n/a	49493	largeTSmallT	correct	congruent	0.82422	no	T	T
194.15625	n/a	49704	responseLargeT	correct	n/a	0.82422	no	n/a	n/a
195.2226562	n/a	49977	largeTSmallH	correct	incongruent	0.5625	no	T	H
195.7851562	n/a	50121	responseLargeT	correct	n/a	0.5625	no	n/a	n/a
196.8632812	n/a	50397	largeTSmallT	correct	congruent	0.71094	no	T	T
197.5742188	n/a	50579	responseLargeT	correct	n/a	0.71094	no	n/a	n/a
198.6367188	n/a	50851	largeTSmallH	correct	incongruent	0.54688	no	T	H
199.1835938	n/a	50991	responseLargeT	correct	n/a	0.54688	no	n/a	n/a
200.25	n/a	51264	largeTSmallT	correct	congruent	0.62891	no	T	T
200.8789062	n/a	51425	responseLargeT	correct	n/a	0.62891	no	n/a	n/a
201.9453125	n/a	51698	largeHSmallT	error	incongruent	0.46094	no	H	T
202.40625	n/a	51816	responseLargeT	error	n/a	0.46094	no	n/a	n/a
203.4765625	n/a	52090	largeTSmallT	correct	congruent	0.70312	no	T	T
204.1796875	n/a	52270	responseLargeT	correct	n/a	0.70312	no	n/a	n/a
205.265625	n/a	52548	largeHSmallT	correct	incongruent	0.57422	no	H	T
205.8398438	n/a	52695	responseLargeH	correct	n/a	0.57422	no	n/a	n/a
206.9023438	n/a	52967	largeTSmallT	correct	congruent	0.70312	no	T	T
207.6054688	n/a	53147	responseLargeT	correct	n/a	0.70312	no	n/a	n/a
208.6757812	n/a	53421	largeHSmallH	correct	congruent	0.65625	no	H	H
209.3320312	n/a	53589	responseLargeH	correct	n/a	0.65625	no	n/a	n/a
210.4101562	n/a	53865	largeHSmallT	correct	incongruent	0.66797	no	H	T
211.078125	n/a	54036	responseLargeH	correct	n/a	0.66797	no	n/a	n/a
212.15625	n/a	54312	largeHSmallT	correct	incongruent	0.49219	no	H	T
212.6484375	n/a	54438	responseLargeH	correct	n/a	0.49219	no	n/a	n/a
213.703125	n/a	54708	largeTSmallH	correct	incongruent	0.72266	no	T	H
214.4257812	n/a	54893	responseLargeT	correct	n/a	0.72266	no	n/a	n/a
215.4921875	n/a	55166	largeTSmallH	correct	incongruent	0.57812	no	T	H
216.0703125	n/a	55314	responseLargeT	correct	n/a	0.57812	no	n/a	n/a
217.1445312	n/a	55589	largeHSmallH	correct	congruent	0.71484	no	H	H
217.859375	n/a	55772	responseLargeH	correct	n/a	0.71484	no	n/a	n/a
218.9179688	n/a	56043	largeTSmallH	correct	incongruent	0.94141	no	T	H
219.859375	n/a	56284	responseLargeT	correct	n/a	0.94141	no	n/a	n/a
220.9296875	n/a	56558	largeTSmallH	correct	incongruent	0.63672	no	T	H
221.5664062	n/a	56721	responseLargeT	correct	n/a	0.63672	no	n/a	n/a
222.6367188	n/a	56995	largeHSmallH	correct	congruent	0.99609	no	H	H
223.6328125	n/a	57250	responseLargeH	correct	n/a	0.99609	no	n/a	n/a
224.703125	n/a	57524	largeHSmallH	correct	congruent	0.60156	no	H	H
225.3046875	n/a	57678	responseLargeH	correct	n/a	0.60156	no	n/a	n/a
226.3828125	n/a	57954	largeHSmallH	correct	congruent	0.72266	no	H	H
227.1054688	n/a	58139	responseLargeH	correct	n/a	0.72266	no	n/a	n/a
228.171875	n/a	58412	largeHSmallT	correct	incongruent	0.5625	no	H	T
228.734375	n/a	58556	responseLargeH	correct	n/a	0.5625	no	n/a	n/a
229.8125	n/a	58832	largeTSmallT	correct	congruent	0.73828	no	T	T
230.5507812	n/a	59021	responseLargeT	correct	n/a	0.73828	no	n/a	n/a
231.625	n/a	59296	largeHSmallT	correct	incongruent	0.64062	no	H	T
232.265625	n/a	59460	responseLargeH	correct	n/a	0.64062	no	n/a	n/a
233.34375	n/a	59736	largeHSmallH	correct	congruent	0.64453	no	H	H
233.9882812	n/a	59901	responseLargeH	correct	n/a	0.64453	no	n/a	n/a
235.0507812	n/a	60173	largeTSmallH	correct	incongruent	0.51172	no	T	H
235.5625	n/a	60304	responseLargeT	correct	n/a	0.51172	no	n/a	n/a
236.625	n/a	60576	largeTSmallT	correct	congruent	0.54297	no	T	T
237.1679688	n/a	60715	responseLargeT	correct	n/a	0.54297	no	n/a	n/a
238.2382812	n/a	60989	largeTSmallH	correct	incongruent	0.61328	no	T	H
238.8515625	n/a	61146	responseLargeT	correct	n/a	0.61328	no	n/a	n/a
239.9179688	n/a	61419	largeHSmallT	correct	incongruent	0.53516	no	H	T
240.453125	n/a	61556	responseLargeH	correct	n/a	0.53516	no	n/a	n/a
241.53125	n/a	61832	largeHSmallT	error	incongruent	0.91797	no	H	T
242.4492188	n/a	62067	responseLargeT	error	n/a	0.91797	no	n/a	n/a
243.515625	n/a	62340	largeTSmallH	correct	incongruent	0.48828	no	T	H
244.0039062	n/a	62465	responseLargeT	correct	n/a	0.48828	no	n/a	n/a
245.0625	n/a	62736	largeHSmallH	correct	congruent	0.73047	no	H	H
245.7929688	n/a	62923	responseLargeH	correct	n/a	0.73047	no	n/a	n/a
246.8632812	n/a	63197	largeHSmallH	correct	congruent	0.55469	no	H	H
247.4179688	n/a	63339	responseLargeH	correct	n/a	0.55469	no	n/a	n/a
248.4882812	n/a	63613	largeHSmallH	correct	congruent	0.65234	no	H	H
249.140625	n/a	63780	responseLargeH	correct	n/a	0.65234	no	n/a	n/a
250.2226562	n/a	64057	largeHSmallT	correct	incongruent	0.58594	no	H	T
250.8085938	n/a	64207	responseLargeH	correct	n/a	0.58594	no	n/a	n/a
251.890625	n/a	64484	largeHSmallT	correct	incongruent	0.55859	no	H	T
252.4492188	n/a	64627	responseLargeH	correct	n/a	0.55859	no	n/a	n/a
253.53125	n/a	64904	largeHSmallH	correct	congruent	0.51172	no	H	H
254.0429688	n/a	65035	responseLargeH	correct	n/a	0.51172	no	n/a	n/a
255.1171875	n/a	65310	largeTSmallH	correct	incongruent	0.67578	no	T	H
255.7929688	n/a	65483	responseLargeT	correct	n/a	0.67578	no	n/a	n/a
256.8632812	n/a	65757	largeHSmallT	correct	incongruent	0.67578	no	H	T
257.5390625	n/a	65930	responseLargeH	correct	n/a	0.67578	no	n/a	n/a
258.609375	n/a	66204	largeTSmallH	correct	incongruent	0.69531	no	T	H
259.3046875	n/a	66382	responseLargeT	correct	n/a	0.69531	no	n/a	n/a
260.3710938	n/a	66655	largeTSmallT	correct	congruent	0.625	no	T	T
260.9960938	n/a	66815	responseLargeT	correct	n/a	0.625	no	n/a	n/a
262.078125	n/a	67092	largeTSmallT	correct	congruent	0.67578	no	T	T
262.7539062	n/a	67265	responseLargeT	correct	n/a	0.67578	no	n/a	n/a
263.8242188	n/a	67539	largeTSmallT	error	congruent	0.92578	no	T	T
264.75	n/a	67776	responseLargeH	error	n/a	0.92578	no	n/a	n/a
265.8242188	n/a	68051	largeHSmallT	correct	incongruent	0.46484	no	H	T
266.2890625	n/a	68170	responseLargeH	correct	n/a	0.46484	no	n/a	n/a
267.3554688	n/a	68443	largeHSmallT	correct	incongruent	0.69531	no	H	T
268.0507812	n/a	68621	responseLargeH	correct	n/a	0.69531	no	n/a	n/a
269.1289062	n/a	68897	largeTSmallH	correct	incongruent	0.60547	no	T	H
269.734375	n/a	69052	responseLargeT	correct	n/a	0.60547	no	n/a	n/a
270.8085938	n/a	69327	largeTSmallH	correct	incongruent	0.60156	no	T	H
271.4101562	n/a	69481	responseLargeT	correct	n/a	0.60156	no	n/a	n/a
272.4765625	n/a	69754	largeTSmallT	correct	congruent	0.78125	no	T	T
273.2578125	n/a	69954	responseLargeT	correct	n/a	0.78125	no	n/a	n/a
274.328125	n/a	70228	largeTSmallH	correct	incongruent	0.73828	no	T	H
275.0664062	n/a	70417	responseLargeT	correct	n/a	0.73828	no	n/a	n/a
276.1445312	n/a	70693	largeTSmallH	correct	incongruent	0.64062	no	T	H
276.7851562	n/a	70857	responseLargeT	correct	n/a	0.64062	no	n/a	n/a
277.8632812	n/a	71133	largeHSmallT	correct	incongruent	0.60547	no	H	T
278.46875	n/a	71288	responseLargeH	correct	n/a	0.60547	no	n/a	n/a
279.5429688	n/a	71563	largeTSmallT	correct	congruent	0.5625	no	T	T
280.1054688	n/a	71707	responseLargeT	correct	n/a	0.5625	no	n/a	n/a
281.1835938	n/a	71983	largeTSmallT	correct	congruent	0.53516	no	T	T
281.71875	n/a	72120	responseLargeT	correct	n/a	0.53516	no	n/a	n/a
282.796875	n/a	72396	largeHSmallH	correct	congruent	0.70703	no	H	H
283.5039062	n/a	72577	responseLargeH	correct	n/a	0.70703	no	n/a	n/a
284.5820312	n/a	72853	largeTSmallH	correct	incongruent	0.67969	no	T	H
285.2617188	n/a	73027	responseLargeT	correct	n/a	0.67969	no	n/a	n/a
286.328125	n/a	73300	largeHSmallT	correct	incongruent	0.47266	no	H	T
286.8007812	n/a	73421	responseLargeH	correct	n/a	0.47266	no	n/a	n/a
287.875	n/a	73696	largeHSmallT	error	incongruent	0.47266	no	H	T
288.3476562	n/a	73817	responseLargeT	error	n/a	0.47266	no	n/a	n/a
289.421875	n/a	74092	largeHSmallH	correct	congruent	0.97656	no	H	H
290.3984375	n/a	74342	responseLargeH	correct	n/a	0.97656	no	n/a	n/a
291.4765625	n/a	74618	largeTSmallH	correct	incongruent	0.73438	no	T	H
292.2109375	n/a	74806	responseLargeT	correct	n/a	0.73438	no	n/a	n/a
293.2773438	n/a	75079	largeHSmallT	correct	incongruent	0.70703	no	H	T
293.984375	n/a	75260	responseLargeH	correct	n/a	0.70703	no	n/a	n/a
295.046875	n/a	75532	largeHSmallT	correct	incongruent	0.51562	no	H	T
295.5625	n/a	75664	responseLargeH	correct	n/a	0.51562	no	n/a	n/a
296.6367188	n/a	75939	largeHSmallH	correct	congruent	0.69922	no	H	H
297.3359375	n/a	76118	responseLargeH	correct	n/a	0.69922	no	n/a	n/a
298.4101562	n/a	76393	largeHSmallH	correct	congruent	0.55078	no	H	H
298.9609375	n/a	76534	responseLargeH	correct	n/a	0.55078	no	n/a	n/a
300.0234375	n/a	76806	largeTSmallH	correct	incongruent	0.66797	no	T	H
300.6914062	n/a	76977	responseLargeT	correct	n/a	0.66797	no	n/a	n/a
301.7539062	n/a	77249	largeTSmallT	correct	congruent	0.62891	no	T	T
302.3828125	n/a	77410	responseLargeT	correct	n/a	0.62891	no	n/a	n/a
303.4609375	n/a	77686	largeHSmallH	correct	congruent	0.6875	no	H	H
304.1484375	n/a	77862	responseLargeH	correct	n/a	0.6875	no	n/a	n/a
305.2226562	n/a	78137	largeHSmallT	correct	incongruent	0.69141	no	H	T
305.9140625	n/a	78314	responseLargeH	correct	n/a	0.69141	no	n/a	n/a
306.9804688	n/a	78587	largeTSmallT	correct	congruent	0.84766	no	T	T
307.828125	n/a	78804	responseLargeT	correct	n/a	0.84766	no	n/a	n/a
308.9023438	n/a	79079	largeTSmallH	correct	incongruent	1.0859	no	T	H
309.9882812	n/a	79357	responseLargeT	correct	n/a	1.0859	no	n/a	n/a
311.0625	n/a	79632	largeTSmallH	correct	incongruent	0.74219	no	T	H
311.8046875	n/a	79822	responseLargeT	correct	n/a	0.74219	no	n/a	n/a
312.8867188	n/a	80099	largeHSmallH	correct	congruent	0.70312	no	H	H
313.5898438	n/a	80279	responseLargeH	correct	n/a	0.70312	no	n/a	n/a
314.6601562	n/a	80553	largeHSmallH	correct	congruent	2.1562	yes	H	H
316.8164062	n/a	81105	responseLargeH	correct	n/a	2.1562	yes	n/a	n/a
317.8867188	n/a	81379	largeHSmallH	correct	congruent	0.89453	no	H	H
318.78125	n/a	81608	responseLargeH	correct	n/a	0.89453	no	n/a	n/a
319.8476562	n/a	81881	largeTSmallH	correct	incongruent	0.73828	no	T	H
320.5859375	n/a	82070	responseLargeT	correct	n/a	0.73828	no	n/a	n/a
321.6601562	n/a	82345	largeHSmallT	correct	incongruent	0.68359	no	H	T
322.34375	n/a	82520	responseLargeH	correct	n/a	0.68359	no	n/a	n/a
323.40625	n/a	82792	largeHSmallH	correct	congruent	0.70312	no	H	H
324.109375	n/a	82972	responseLargeH	correct	n/a	0.70312	no	n/a	n/a
325.1679688	n/a	83243	largeTSmallT	correct	congruent	0.59375	no	T	T
325.7617188	n/a	83395	responseLargeT	correct	n/a	0.59375	no	n/a	n/a
326.8359375	n/a	83670	largeTSmallT	correct	congruent	0.74219	no	T	T
327.578125	n/a	83860	responseLargeT	correct	n/a	0.74219	no	n/a	n/a
328.6484375	n/a	84134	largeTSmallT	correct	congruent	0.48828	no	T	T
329.1367188	n/a	84259	responseLargeT	correct	n/a	0.48828	no	n/a	n/a
330.2070312	n/a	84533	largeTSmallT	correct	congruent	0.41016	no	T	T
330.6171875	n/a	84638	responseLargeT	correct	n/a	0.41016	no	n/a	n/a
331.6757812	n/a	84909	largeTSmallH	correct	incongruent	0.69922	no	T	H
332.375	n/a	85088	responseLargeT	correct	n/a	0.69922	no	n/a	n/a
333.4492188	n/a	85363	largeHSmallT	correct	incongruent	0.86328	no	H	T
334.3125	n/a	85584	responseLargeH	correct	n/a	0.86328	no	n/a	n/a
335.3945312	n/a	85861	largeHSmallT	correct	incongruent	0.74609	no	H	T
336.140625	n/a	86052	responseLargeH	correct	n/a	0.74609	no	n/a	n/a
337.2226562	n/a	86329	largeTSmallT	correct	congruent	0.69922	no	T	T
337.921875	n/a	86508	responseLargeT	correct	n/a	0.69922	no	n/a	n/a
338.9960938	n/a	86783	largeHSmallH	correct	congruent	0.69922	no	H	H
339.6953125	n/a	86962	responseLargeH	correct	n/a	0.69922	no	n/a	n/a
340.7695312	n/a	87237	largeTSmallH	correct	incongruent	0.69141	no	T	H
341.4609375	n/a	87414	responseLargeT	correct	n/a	0.69141	no	n/a	n/a
342.5390625	n/a	87690	largeTSmallH	correct	incongruent	0.55078	no	T	H
343.0898438	n/a	87831	responseLargeT	correct	n/a	0.55078	no	n/a	n/a
344.1523438	n/a	88103	largeHSmallH	correct	congruent	0.57812	no	H	H
344.7304688	n/a	88251	responseLargeH	correct	n/a	0.57812	no	n/a	n/a
345.7929688	n/a	88523	largeTSmallH	correct	incongruent	0.60156	no	T	H
346.3945312	n/a	88677	responseLargeT	correct	n/a	0.60156	no	n/a	n/a
347.4609375	n/a	88950	largeHSmallT	correct	incongruent	0.62109	no	H	T
348.0820312	n/a	89109	responseLargeH	correct	n/a	0.62109	no	n/a	n/a
349.1523438	n/a	89383	largeHSmallH	correct	congruent	0.54297	no	H	H
349.6953125	n/a	89522	responseLargeH	correct	n/a	0.54297	no	n/a	n/a
350.7539062	n/a	89793	largeTSmallH	correct	incongruent	0.52344	no	T	H
351.2773438	n/a	89927	responseLargeT	correct	n/a	0.52344	no	n/a	n/a
352.3554688	n/a	90203	largeHSmallH	correct	congruent	0.68359	no	H	H
353.0390625	n/a	90378	responseLargeH	correct	n/a	0.68359	no	n/a	n/a
354.1132812	n/a	90653	largeHSmallT	correct	incongruent	0.78906	no	H	T
354.9023438	n/a	90855	responseLargeH	correct	n/a	0.78906	no	n/a	n/a
355.96875	n/a	91128	largeTSmallT	correct	congruent	0.59375	no	T	T
356.5625	n/a	91280	responseLargeT	correct	n/a	0.59375	no	n/a	n/a
357.6328125	n/a	91554	largeHSmallT	correct	incongruent	0.48828	no	H	T
358.1210938	n/a	91679	responseLargeH	correct	n/a	0.48828	no	n/a	n/a
359.1953125	n/a	91954	largeHSmallT	correct	incongruent	0.44141	no	H	T
359.6367188	n/a	92067	responseLargeH	correct	n/a	0.44141	no	n/a	n/a
360.7148438	n/a	92343	largeTSmallH	correct	incongruent	0.53906	no	T	H
361.2539062	n/a	92481	responseLargeT	correct	n/a	0.53906	no	n/a	n/a
362.328125	n/a	92756	largeHSmallT	correct	incongruent	0.62891	no	H	T
362.9570312	n/a	92917	responseLargeH	correct	n/a	0.62891	no	n/a	n/a
364.0351562	n/a	93193	largeTSmallH	correct	incongruent	0.60938	no	T	H
364.6445312	n/a	93349	responseLargeT	correct	n/a	0.60938	no	n/a	n/a
365.7265625	n/a	93626	largeTSmallT	correct	congruent	0.60547	no	T	T
366.3320312	n/a	93781	responseLargeT	correct	n/a	0.60547	no	n/a	n/a
367.40625	n/a	94056	largeHSmallH	correct	congruent	0.56641	no	H	H
367.9726562	n/a	94201	responseLargeH	correct	n/a	0.56641	no	n/a	n/a
369.046875	n/a	94476	largeTSmallH	correct	incongruent	0.69141	no	T	H
369.7382812	n/a	94653	responseLargeT	correct	n/a	0.69141	no	n/a	n/a
370.8085938	n/a	94927	largeTSmallH	error	incongruent	0.51953	no	T	H
371.328125	n/a	95060	responseLargeH	error	n/a	0.51953	no	n/a	n/a
372.3945312	n/a	95333	largeTSmallH	correct	incongruent	0.59766	no	T	H
372.9921875	n/a	95486	responseLargeT	correct	n/a	0.59766	no	n/a	n/a
374.0585938	n/a	95759	largeHSmallH	correct	congruent	0.58594	no	H	H
374.6445312	n/a	95909	responseLargeH	correct	n/a	0.58594	no	n/a	n/a
388.3398438	n/a	99415	largeHSmallT	correct	incongruent	0.99609	no	H	T
389.3359375	n/a	99670	responseSmallT	correct	n/a	0.99609	no	n/a	n/a
390.4179688	n/a	99947	largeTSmallT	correct	congruent	0.71094	no	T	T
391.1289062	n/a	100129	responseSmallT	correct	n/a	0.71094	no	n/a	n/a
392.1914062	n/a	100401	largeHSmallT	correct	incongruent	0.70312	no	H	T
392.8945312	n/a	100581	responseSmallT	correct	n/a	0.70312	no	n/a	n/a
393.9648438	n/a	100855	largeTSmallT	correct	congruent	0.82422	no	T	T
394.7890625	n/a	101066	responseSmallT	correct	n/a	0.82422	no	n/a	n/a
395.859375	n/a	101340	largeHSmallT	correct	incongruent	0.76953	no	H	T
396.6289062	n/a	101537	responseSmallT	correct	n/a	0.76953	no	n/a	n/a
397.6992188	n/a	101811	largeTSmallT	correct	congruent	0.65625	no	T	T
398.3554688	n/a	101979	responseSmallT	correct	n/a	0.65625	no	n/a	n/a
399.4335938	n/a	102255	largeHSmallH	correct	congruent	0.63672	no	H	H
400.0703125	n/a	102418	responseSmallH	correct	n/a	0.63672	no	n/a	n/a
401.140625	n/a	102692	largeHSmallT	correct	incongruent	1.0117	no	H	T
402.1523438	n/a	102951	responseSmallT	correct	n/a	1.0117	no	n/a	n/a
403.21875	n/a	103224	largeHSmallH	correct	congruent	0.94531	no	H	H
404.1640625	n/a	103466	responseSmallH	correct	n/a	0.94531	no	n/a	n/a
405.234375	n/a	103740	largeTSmallH	error	incongruent	0.40625	no	T	H
405.640625	n/a	103844	responseSmallT	error	n/a	0.40625	no	n/a	n/a
406.7109375	n/a	104118	largeHSmallH	correct	congruent	0.90625	no	H	H
407.6171875	n/a	104350	responseSmallH	correct	n/a	0.90625	no	n/a	n/a
408.6992188	n/a	104627	largeTSmallH	correct	incongruent	0.52344	no	T	H
409.2226562	n/a	104761	responseSmallH	correct	n/a	0.52344	no	n/a	n/a
410.2851562	n/a	105033	largeTSmallT	correct	congruent	0.54688	no	T	T
410.8320312	n/a	105173	responseSmallT	correct	n/a	0.54688	no	n/a	n/a
411.9140625	n/a	105450	largeHSmallT	correct	incongruent	1.082	no	H	T
412.9960938	n/a	105727	responseSmallT	correct	n/a	1.082	no	n/a	n/a
414.0585938	n/a	105999	largeTSmallH	correct	incongruent	2.2148	yes	T	H
416.2734375	n/a	106566	responseSmallH	correct	n/a	2.2148	yes	n/a	n/a
417.3398438	n/a	106839	largeTSmallT	correct	congruent	1.1953	no	T	T
418.5351562	n/a	107145	responseSmallT	correct	n/a	1.1953	no	n/a	n/a
419.6054688	n/a	107419	largeHSmallT	correct	incongruent	1.1016	no	H	T
420.7070312	n/a	107701	responseSmallT	correct	n/a	1.1016	no	n/a	n/a
421.7929688	n/a	107979	largeTSmallH	correct	incongruent	0.73828	no	T	H
422.53125	n/a	108168	responseSmallH	correct	n/a	0.73828	no	n/a	n/a
423.59375	n/a	108440	largeTSmallH	correct	incongruent	0.96875	no	T	H
424.5625	n/a	108688	responseSmallH	correct	n/a	0.96875	no	n/a	n/a
425.6445312	n/a	108965	largeHSmallH	correct	congruent	0.66406	no	H	H
426.3085938	n/a	109135	responseSmallH	correct	n/a	0.66406	no	n/a	n/a
427.3789062	n/a	109409	largeTSmallT	correct	congruent	0.60156	no	T	T
427.9804688	n/a	109563	responseSmallT	correct	n/a	0.60156	no	n/a	n/a
429.0585938	n/a	109839	largeTSmallT	correct	congruent	0.89062	no	T	T
429.9492188	n/a	110067	responseSmallT	correct	n/a	0.89062	no	n/a	n/a
431.0195312	n/a	110341	largeTSmallH	correct	incongruent	0.84766	no	T	H
431.8671875	n/a	110558	responseSmallH	correct	n/a	0.84766	no	n/a	n/a
432.9375	n/a	110832	largeTSmallH	correct	incongruent	0.51562	no	T	H
433.453125	n/a	110964	responseSmallH	correct	n/a	0.51562	no	n/a	n/a
434.5273438	n/a	111239	largeHSmallT	correct	incongruent	0.52344	no	H	T
435.0507812	n/a	111373	responseSmallT	correct	n/a	0.52344	no	n/a	n/a
436.125	n/a	111648	largeTSmallT	correct	congruent	0.67188	no	T	T
436.796875	n/a	111820	responseSmallT	correct	n/a	0.67188	no	n/a	n/a
437.8710938	n/a	112095	largeHSmallH	correct	congruent	0.51172	no	H	H
438.3828125	n/a	112226	responseSmallH	correct	n/a	0.51172	no	n/a	n/a
439.4570312	n/a	112501	largeHSmallT	correct	incongruent	0.59375	no	H	T
440.0507812	n/a	112653	responseSmallT	correct	n/a	0.59375	no	n/a	n/a
441.125	n/a	112928	largeTSmallH	correct	incongruent	0.64844	no	T	H
441.7734375	n/a	113094	responseSmallH	correct	n/a	0.64844	no	n/a	n/a
442.84375	n/a	113368	largeHSmallT	correct	incongruent	0.83203	no	H	T
443.6757812	n/a	113581	responseSmallT	correct	n/a	0.83203	no	n/a	n/a
444.75	n/a	113856	largeHSmallT	correct	incongruent	0.90234	no	H	T
445.6523438	n/a	114087	responseSmallT	correct	n/a	0.90234	no	n/a	n/a
446.7265625	n/a	114362	largeTSmallH	correct	incongruent	0.69922	no	T	H
447.4257812	n/a	114541	responseSmallH	correct	n/a	0.69922	no	n/a	n/a
448.5	n/a	114816	largeTSmallH	error	incongruent	0.48047	no	T	H
448.9804688	n/a	114939	responseSmallT	error	n/a	0.48047	no	n/a	n/a
450.0585938	n/a	115215	largeTSmallT	correct	congruent	0.50391	no	T	T
450.5625	n/a	115344	responseSmallT	correct	n/a	0.50391	no	n/a	n/a
451.6328125	n/a	115618	largeHSmallH	correct	congruent	0.94922	no	H	H
452.5820312	n/a	115861	responseSmallH	correct	n/a	0.94922	no	n/a	n/a
453.65625	n/a	116136	largeHSmallH	correct	congruent	0.59766	no	H	H
454.2539062	n/a	116289	responseSmallH	correct	n/a	0.59766	no	n/a	n/a
455.3242188	n/a	116563	largeHSmallT	correct	incongruent	0.625	no	H	T
455.9492188	n/a	116723	responseSmallT	correct	n/a	0.625	no	n/a	n/a
457.03125	n/a	117000	largeHSmallH	correct	congruent	0.64062	no	H	H
457.671875	n/a	117164	responseSmallH	correct	n/a	0.64062	no	n/a	n/a
458.7382812	n/a	117437	largeHSmallT	correct	incongruent	0.57031	no	H	T
459.3085938	n/a	117583	responseSmallT	correct	n/a	0.57031	no	n/a	n/a
460.3789062	n/a	117857	largeHSmallT	correct	incongruent	0.55078	no	H	T
460.9296875	n/a	117998	responseSmallT	correct	n/a	0.55078	no	n/a	n/a
462.0039062	n/a	118273	largeHSmallT	correct	incongruent	0.46875	no	H	T
462.4726562	n/a	118393	responseSmallT	correct	n/a	0.46875	no	n/a	n/a
463.5507812	n/a	118669	largeHSmallH	correct	congruent	0.63672	no	H	H
464.1875	n/a	118832	responseSmallH	correct	n/a	0.63672	no	n/a	n/a
465.2578125	n/a	119106	largeHSmallT	correct	incongruent	0.65625	no	H	T
465.9140625	n/a	119274	responseSmallT	correct	n/a	0.65625	no	n/a	n/a
466.9765625	n/a	119546	largeTSmallH	correct	incongruent	1.0234	no	T	H
468	n/a	119808	responseSmallH	correct	n/a	1.0234	no	n/a	n/a
469.0703125	n/a	120082	largeTSmallT	correct	congruent	1.1641	no	T	T
470.234375	n/a	120380	responseSmallT	correct	n/a	1.1641	no	n/a	n/a
471.296875	n/a	120652	largeTSmallH	correct	incongruent	0.44141	no	T	H
471.7382812	n/a	120765	responseSmallH	correct	n/a	0.44141	no	n/a	n/a
472.8164062	n/a	121041	largeHSmallH	correct	congruent	1.0078	no	H	H
473.8242188	n/a	121299	responseSmallH	correct	n/a	1.0078	no	n/a	n/a
474.8828125	n/a	121570	largeHSmallH	correct	congruent	0.51953	no	H	H
475.4023438	n/a	121703	responseSmallH	correct	n/a	0.51953	no	n/a	n/a
476.484375	n/a	121980	largeTSmallH	correct	incongruent	0.49609	no	T	H
476.9804688	n/a	122107	responseSmallH	correct	n/a	0.49609	no	n/a	n/a
478.0585938	n/a	122383	largeTSmallT	correct	congruent	0.5625	no	T	T
478.6210938	n/a	122527	responseSmallT	correct	n/a	0.5625	no	n/a	n/a
479.6992188	n/a	122803	largeTSmallT	correct	congruent	0.59766	no	T	T
480.296875	n/a	122956	responseSmallT	correct	n/a	0.59766	no	n/a	n/a
481.3632812	n/a	123229	largeHSmallT	correct	incongruent	0.74219	no	H	T
482.1054688	n/a	123419	responseSmallT	correct	n/a	0.74219	no	n/a	n/a
483.1757812	n/a	123693	largeHSmallH	correct	congruent	0.60547	no	H	H
483.78125	n/a	123848	responseSmallH	correct	n/a	0.60547	no	n/a	n/a
484.8554688	n/a	124123	largeTSmallT	correct	congruent	0.71484	no	T	T
485.5703125	n/a	124306	responseSmallT	correct	n/a	0.71484	no	n/a	n/a
486.6289062	n/a	124577	largeTSmallT	correct	congruent	0.5625	no	T	T
487.1914062	n/a	124721	responseSmallT	correct	n/a	0.5625	no	n/a	n/a
488.2578125	n/a	124994	largeHSmallH	correct	congruent	0.51562	no	H	H
488.7734375	n/a	125126	responseSmallH	correct	n/a	0.51562	no	n/a	n/a
489.84375	n/a	125400	largeTSmallH	correct	incongruent	0.54297	no	T	H
490.3867188	n/a	125539	responseSmallH	correct	n/a	0.54297	no	n/a	n/a
491.4570312	n/a	125813	largeHSmallH	correct	congruent	1.4609	no	H	H
492.9179688	n/a	126187	responseSmallH	correct	n/a	1.4609	no	n/a	n/a
493.9765625	n/a	126458	largeHSmallH	correct	congruent	0.64844	no	H	H
494.625	n/a	126624	responseSmallH	correct	n/a	0.64844	no	n/a	n/a
495.6953125	n/a	126898	largeTSmallT	correct	congruent	0.58203	no	T	T
496.2773438	n/a	127047	responseSmallT	correct	n/a	0.58203	no	n/a	n/a
497.3515625	n/a	127322	largeHSmallT	correct	incongruent	0.53516	no	H	T
497.8867188	n/a	127459	responseSmallT	correct	n/a	0.53516	no	n/a	n/a
498.9648438	n/a	127735	largeHSmallH	correct	congruent	0.72656	no	H	H
499.6914062	n/a	127921	responseSmallH	correct	n/a	0.72656	no	n/a	n/a
500.7617188	n/a	128195	largeTSmallH	correct	incongruent	0.61328	no	T	H
501.375	n/a	128352	responseSmallH	correct	n/a	0.61328	no	n/a	n/a
502.4453125	n/a	128626	largeTSmallH	correct	incongruent	0.67578	no	T	H
503.1210938	n/a	128799	responseSmallH	correct	n/a	0.67578	no	n/a	n/a
504.203125	n/a	129076	largeTSmallT	correct	congruent	0.73438	no	T	T
504.9375	n/a	129264	responseSmallT	correct	n/a	0.73438	no	n/a	n/a
506.0039062	n/a	129537	largeTSmallH	correct	incongruent	0.62891	no	T	H
506.6328125	n/a	129698	responseSmallH	correct	n/a	0.62891	no	n/a	n/a
507.7109375	n/a	129974	largeTSmallH	correct	incongruent	0.68359	no	T	H
508.3945312	n/a	130149	responseSmallH	correct	n/a	0.68359	no	n/a	n/a
509.46875	n/a	130424	largeHSmallH	correct	congruent	0.60547	no	H	H
510.0742188	n/a	130579	responseSmallH	correct	n/a	0.60547	no	n/a	n/a
511.1484375	n/a	130854	largeTSmallT	correct	congruent	0.79688	no	T	T
511.9453125	n/a	131058	responseSmallT	correct	n/a	0.79688	no	n/a	n/a
513.015625	n/a	131332	largeTSmallH	correct	incongruent	0.92188	no	T	H
513.9375	n/a	131568	responseSmallH	correct	n/a	0.92188	no	n/a	n/a
515.015625	n/a	131844	largeTSmallH	correct	incongruent	0.92188	no	T	H
515.9375	n/a	132080	responseSmallH	correct	n/a	0.92188	no	n/a	n/a
517.0039062	n/a	132353	largeHSmallH	correct	congruent	0.87109	no	H	H
517.875	n/a	132576	responseSmallH	correct	n/a	0.87109	no	n/a	n/a
518.9375	n/a	132848	largeHSmallH	correct	congruent	3.2812	yes	H	H
522.21875	n/a	133688	responseSmallH	correct	n/a	3.2812	yes	n/a	n/a
523.296875	n/a	133964	largeHSmallT	correct	incongruent	1.0039	no	H	T
524.3007812	n/a	134221	responseSmallT	correct	n/a	1.0039	no	n/a	n/a
525.3632812	n/a	134493	largeHSmallT	correct	incongruent	0.82422	no	H	T
526.1875	n/a	134704	responseSmallT	correct	n/a	0.82422	no	n/a	n/a
527.2578125	n/a	134978	largeHSmallH	correct	congruent	0.58594	no	H	H
527.84375	n/a	135128	responseSmallH	correct	n/a	0.58594	no	n/a	n/a
528.9101562	n/a	135401	largeTSmallH	correct	incongruent	0.97656	no	T	H
529.8867188	n/a	135651	responseSmallH	correct	n/a	0.97656	no	n/a	n/a
530.9492188	n/a	135923	largeTSmallT	correct	congruent	0.84766	no	T	T
531.796875	n/a	136140	responseSmallT	correct	n/a	0.84766	no	n/a	n/a
532.8710938	n/a	136415	largeHSmallH	correct	congruent	0.64844	no	H	H
533.5195312	n/a	136581	responseSmallH	correct	n/a	0.64844	no	n/a	n/a
534.5898438	n/a	136855	largeHSmallT	correct	incongruent	0.74609	no	H	T
535.3359375	n/a	137046	responseSmallT	correct	n/a	0.74609	no	n/a	n/a
536.4140625	n/a	137322	largeTSmallH	correct	incongruent	0.69141	no	T	H
537.1054688	n/a	137499	responseSmallH	correct	n/a	0.69141	no	n/a	n/a
538.1757812	n/a	137773	largeTSmallH	correct	incongruent	0.58203	no	T	H
538.7578125	n/a	137922	responseSmallH	correct	n/a	0.58203	no	n/a	n/a
539.828125	n/a	138196	largeHSmallH	correct	congruent	0.51953	no	H	H
540.3476562	n/a	138329	responseSmallH	correct	n/a	0.51953	no	n/a	n/a
541.4140625	n/a	138602	largeTSmallT	correct	congruent	0.60938	no	T	T
542.0234375	n/a	138758	responseSmallT	correct	n/a	0.60938	no	n/a	n/a
543.0976562	n/a	139033	largeHSmallT	correct	incongruent	0.74219	no	H	T
543.8398438	n/a	139223	responseSmallT	correct	n/a	0.74219	no	n/a	n/a
544.921875	n/a	139500	largeHSmallH	correct	congruent	0.97656	no	H	H
545.8984375	n/a	139750	responseSmallH	correct	n/a	0.97656	no	n/a	n/a
546.9609375	n/a	140022	largeHSmallT	correct	incongruent	0.79297	no	H	T
547.7539062	n/a	140225	responseSmallT	correct	n/a	0.79297	no	n/a	n/a
548.8164062	n/a	140497	largeTSmallT	correct	congruent	0.65234	no	T	T
549.46875	n/a	140664	responseSmallT	correct	n/a	0.65234	no	n/a	n/a
550.5351562	n/a	140937	largeTSmallT	correct	congruent	0.53516	no	T	T
551.0703125	n/a	141074	responseSmallT	correct	n/a	0.53516	no	n/a	n/a
552.1367188	n/a	141347	largeHSmallH	correct	congruent	0.44922	no	H	H
552.5859375	n/a	141462	responseSmallH	correct	n/a	0.44922	no	n/a	n/a
553.65625	n/a	141736	largeHSmallT	correct	incongruent	0.63281	no	H	T
554.2890625	n/a	141898	responseSmallT	correct	n/a	0.63281	no	n/a	n/a
555.3476562	n/a	142169	largeTSmallT	correct	congruent	0.68359	no	T	T
556.03125	n/a	142344	responseSmallT	correct	n/a	0.68359	no	n/a	n/a
557.09375	n/a	142616	largeHSmallH	correct	congruent	0.64062	no	H	H
557.734375	n/a	142780	responseSmallH	correct	n/a	0.64062	no	n/a	n/a
558.8007812	n/a	143053	largeHSmallH	correct	congruent	0.51953	no	H	H
559.3203125	n/a	143186	responseSmallH	correct	n/a	0.51953	no	n/a	n/a
560.3867188	n/a	143459	largeHSmallH	correct	congruent	0.52734	no	H	H
560.9140625	n/a	143594	responseSmallH	correct	n/a	0.52734	no	n/a	n/a
561.9882812	n/a	143869	largeHSmallH	correct	congruent	0.48047	no	H	H
562.46875	n/a	143992	responseSmallH	correct	n/a	0.48047	no	n/a	n/a
563.546875	n/a	144268	largeHSmallH	correct	congruent	0.86328	no	H	H
564.4101562	n/a	144489	responseSmallH	correct	n/a	0.86328	no	n/a	n/a
565.4804688	n/a	144763	largeHSmallT	error	incongruent	0.65234	no	H	T
566.1328125	n/a	144930	responseSmallH	error	n/a	0.65234	no	n/a	n/a
567.2148438	n/a	145207	largeTSmallT	correct	congruent	0.50781	no	T	T
567.7226562	n/a	145337	responseSmallT	correct	n/a	0.50781	no	n/a	n/a
568.7890625	n/a	145610	largeTSmallH	correct	incongruent	0.69922	no	T	H
569.4882812	n/a	145789	responseSmallH	correct	n/a	0.69922	no	n/a	n/a
570.5625	n/a	146064	largeTSmallH	correct	incongruent	0.69922	no	T	H
571.2617188	n/a	146243	responseSmallH	correct	n/a	0.69922	no	n/a	n/a
572.3203125	n/a	146514	largeTSmallT	correct	congruent	0.60156	no	T	T
572.921875	n/a	146668	responseSmallT	correct	n/a	0.60156	no	n/a	n/a
574	n/a	146944	largeHSmallT	correct	incongruent	0.50781	no	H	T
574.5078125	n/a	147074	responseSmallT	correct	n/a	0.50781	no	n/a	n/a
575.5742188	n/a	147347	largeTSmallH	correct	incongruent	0.76953	no	T	H
576.34375	n/a	147544	responseSmallH	correct	n/a	0.76953	no	n/a	n/a
577.4140625	n/a	147818	largeHSmallT	correct	incongruent	0.75	no	H	T
578.1640625	n/a	148010	responseSmallT	correct	n/a	0.75	no	n/a	n/a
579.2421875	n/a	148286	largeTSmallH	correct	incongruent	0.64453	no	T	H
579.8867188	n/a	148451	responseSmallH	correct	n/a	0.64453	no	n/a	n/a
580.9492188	n/a	148723	largeHSmallH	correct	congruent	0.53516	no	H	H
581.484375	n/a	148860	responseSmallH	correct	n/a	0.53516	no	n/a	n/a
582.5625	n/a	149136	largeHSmallH	correct	congruent	0.625	no	H	H
583.1875	n/a	149296	responseSmallH	correct	n/a	0.625	no	n/a	n/a
584.2539062	n/a	149569	largeHSmallH	correct	congruent	0.82422	no	H	H
585.078125	n/a	149780	responseSmallH	correct	n/a	0.82422	no	n/a	n/a
586.1484375	n/a	150054	largeTSmallH	correct	incongruent	0.79297	no	T	H
586.9414062	n/a	150257	responseSmallH	correct	n/a	0.79297	no	n/a	n/a
588.015625	n/a	150532	largeTSmallH	correct	incongruent	4.2461	yes	T	H
592.2617188	n/a	151619	responseSmallH	correct	n/a	4.2461	yes	n/a	n/a
593.3203125	n/a	151890	largeHSmallH	correct	congruent	0.85547	no	H	H
594.1757812	n/a	152109	responseSmallH	correct	n/a	0.85547	no	n/a	n/a
595.2421875	n/a	152382	largeTSmallT	correct	congruent	0.92188	no	T	T
596.1640625	n/a	152618	responseSmallT	correct	n/a	0.92188	no	n/a	n/a
597.2421875	n/a	152894	largeHSmallT	correct	incongruent	0.71484	no	H	T
597.9570312	n/a	153077	responseSmallT	correct	n/a	0.71484	no	n/a	n/a
599.0273438	n/a	153351	largeHSmallH	correct	congruent	2.5859	yes	H	H
601.6132812	n/a	154013	responseSmallH	correct	n/a	2.5859	yes	n/a	n/a
602.6796875	n/a	154286	largeHSmallT	correct	incongruent	0.64062	no	H	T
603.3203125	n/a	154450	responseSmallT	correct	n/a	0.64062	no	n/a	n/a
604.4023438	n/a	154727	largeTSmallT	correct	congruent	0.55469	no	T	T
604.9570312	n/a	154869	responseSmallT	correct	n/a	0.55469	no	n/a	n/a
606.0273438	n/a	155143	largeTSmallT	correct	congruent	0.65234	no	T	T
606.6796875	n/a	155310	responseSmallT	correct	n/a	0.65234	no	n/a	n/a
607.7460938	n/a	155583	largeTSmallT	correct	congruent	0.52344	no	T	T
608.2695312	n/a	155717	responseSmallT	correct	n/a	0.52344	no	n/a	n/a
609.3476562	n/a	155993	largeTSmallT	correct	congruent	0.64453	no	T	T
609.9921875	n/a	156158	responseSmallT	correct	n/a	0.64453	no	n/a	n/a
611.0664062	n/a	156433	largeTSmallT	correct	congruent	0.5	no	T	T
611.5664062	n/a	156561	responseSmallT	correct	n/a	0.5	no	n/a	n/a
612.640625	n/a	156836	largeTSmallH	correct	incongruent	0.50391	no	T	H
613.1445312	n/a	156965	responseSmallH	correct	n/a	0.50391	no	n/a	n/a
614.2148438	n/a	157239	largeHSmallT	correct	incongruent	0.53516	no	H	T
614.75	n/a	157376	responseSmallT	correct	n/a	0.53516	no	n/a	n/a
615.8125	n/a	157648	largeTSmallH	correct	incongruent	0.61328	no	T	H
616.4257812	n/a	157805	responseSmallH	correct	n/a	0.61328	no	n/a	n/a
617.5078125	n/a	158082	largeHSmallH	correct	congruent	0.82031	no	H	H
618.328125	n/a	158292	responseSmallH	correct	n/a	0.82031	no	n/a	n/a
619.3984375	n/a	158566	largeTSmallH	correct	incongruent	0.55469	no	T	H
619.953125	n/a	158708	responseSmallH	correct	n/a	0.55469	no	n/a	n/a
621.0273438	n/a	158983	largeTSmallH	correct	incongruent	0.5625	no	T	H
621.5898438	n/a	159127	responseSmallH	correct	n/a	0.5625	no	n/a	n/a
622.6679688	n/a	159403	largeHSmallT	correct	incongruent	0.64844	no	H	T
623.3164062	n/a	159569	responseSmallT	correct	n/a	0.64844	no	n/a	n/a
624.3867188	n/a	159843	largeTSmallT	correct	congruent	0.57422	no	T	T
624.9609375	n/a	159990	responseSmallT	correct	n/a	0.57422	no	n/a	n/a
626.0390625	n/a	160266	largeHSmallT	correct	incongruent	0.64844	no	H	T
626.6875	n/a	160432	responseSmallT	correct	n/a	0.64844	no	n/a	n/a
627.7460938	n/a	160703	largeTSmallH	correct	incongruent	0.78125	no	T	H
628.5273438	n/a	160903	responseSmallH	correct	n/a	0.78125	no	n/a	n/a
629.6015625	n/a	161178	largeTSmallT	correct	congruent	0.86719	no	T	T
630.46875	n/a	161400	responseSmallT	correct	n/a	0.86719	no	n/a	n/a
631.546875	n/a	161676	largeHSmallH	correct	congruent	0.80078	no	H	H
632.3476562	n/a	161881	responseSmallH	correct	n/a	0.80078	no	n/a	n/a
633.4140625	n/a	162154	largeHSmallT	correct	incongruent	0.59766	no	H	T
634.0117188	n/a	162307	responseSmallT	correct	n/a	0.59766	no	n/a	n/a
635.0820312	n/a	162581	largeTSmallH	correct	incongruent	0.58984	no	T	H
635.671875	n/a	162732	responseSmallH	correct	n/a	0.58984	no	n/a	n/a
636.734375	n/a	163004	largeTSmallH	correct	incongruent	0.62109	no	T	H
637.3554688	n/a	163163	responseSmallH	correct	n/a	0.62109	no	n/a	n/a
638.4257812	n/a	163437	largeTSmallT	correct	congruent	0.62891	no	T	T
639.0546875	n/a	163598	responseSmallT	correct	n/a	0.62891	no	n/a	n/a
640.1210938	n/a	163871	largeTSmallH	correct	incongruent	0.72266	no	T	H
640.84375	n/a	164056	responseSmallH	correct	n/a	0.72266	no	n/a	n/a
641.921875	n/a	164332	largeHSmallH	correct	congruent	0.64062	no	H	H
642.5625	n/a	164496	responseSmallH	correct	n/a	0.64062	no	n/a	n/a
643.6289062	n/a	164769	largeTSmallT	correct	congruent	0.71875	no	T	T
644.3476562	n/a	164953	responseSmallT	correct	n/a	0.71875	no	n/a	n/a
645.4140625	n/a	165226	largeHSmallT	error	incongruent	0.96094	no	H	T
646.375	n/a	165472	responseSmallH	error	n/a	0.96094	no	n/a	n/a
647.4414062	n/a	165745	largeHSmallT	correct	incongruent	0.72266	no	H	T
648.1640625	n/a	165930	responseSmallT	correct	n/a	0.72266	no	n/a	n/a
649.2382812	n/a	166205	largeHSmallT	error	incongruent	0.84766	no	H	T
650.0859375	n/a	166422	responseSmallH	error	n/a	0.84766	no	n/a	n/a
651.1601562	n/a	166697	largeTSmallH	correct	incongruent	0.79297	no	T	H
651.953125	n/a	166900	responseSmallH	correct	n/a	0.79297	no	n/a	n/a
653.0273438	n/a	167175	largeHSmallT	correct	incongruent	0.6875	no	H	T
653.7148438	n/a	167351	responseSmallT	correct	n/a	0.6875	no	n/a	n/a
654.7851562	n/a	167625	largeHSmallT	correct	incongruent	0.9375	no	H	T
655.7226562	n/a	167865	responseSmallT	correct	n/a	0.9375	no	n/a	n/a
656.7851562	n/a	168137	largeTSmallH	correct	incongruent	0.97266	no	T	H
657.7578125	n/a	168386	responseSmallH	correct	n/a	0.97266	no	n/a	n/a
658.828125	n/a	168660	largeTSmallT	correct	congruent	1.4102	no	T	T
660.2382812	n/a	169021	responseSmallT	correct	n/a	1.4102	no	n/a	n/a
661.3046875	n/a	169294	largeTSmallT	correct	congruent	0.62891	no	T	T
661.9335938	n/a	169455	responseSmallT	correct	n/a	0.62891	no	n/a	n/a
663.0117188	n/a	169731	largeHSmallT	correct	incongruent	1.0938	no	H	T
664.1054688	n/a	170011	responseSmallT	correct	n/a	1.0938	no	n/a	n/a
665.171875	n/a	170284	largeHSmallH	correct	congruent	0.52344	no	H	H
665.6953125	n/a	170418	responseSmallH	correct	n/a	0.52344	no	n/a	n/a
666.7734375	n/a	170694	largeTSmallH	correct	incongruent	0.58203	no	T	H
667.3554688	n/a	170843	responseSmallH	correct	n/a	0.58203	no	n/a	n/a
668.4257812	n/a	171117	largeHSmallT	correct	incongruent	1.1523	no	H	T
669.578125	n/a	171412	responseSmallT	correct	n/a	1.1523	no	n/a	n/a
670.6523438	n/a	171687	largeTSmallH	correct	incongruent	0.77344	no	T	H
671.4257812	n/a	171885	responseSmallH	correct	n/a	0.77344	no	n/a	n/a
672.4921875	n/a	172158	largeHSmallH	correct	congruent	0.78125	no	H	H
673.2734375	n/a	172358	responseSmallH	correct	n/a	0.78125	no	n/a	n/a
674.3476562	n/a	172633	largeHSmallT	correct	incongruent	0.78125	no	H	T
675.1289062	n/a	172833	responseSmallT	correct	n/a	0.78125	no	n/a	n/a
676.1875	n/a	173104	largeTSmallH	correct	incongruent	0.83594	no	T	H
677.0234375	n/a	173318	responseSmallH	correct	n/a	0.83594	no	n/a	n/a
678.09375	n/a	173592	largeHSmallH	correct	congruent	0.74219	no	H	H
678.8359375	n/a	173782	responseSmallH	correct	n/a	0.74219	no	n/a	n/a
679.90625	n/a	174056	largeHSmallT	correct	incongruent	0.58594	no	H	T
680.4921875	n/a	174206	responseSmallT	correct	n/a	0.58594	no	n/a	n/a
681.5585938	n/a	174479	largeHSmallH	correct	congruent	0.83984	no	H	H
682.3984375	n/a	174694	responseSmallH	correct	n/a	0.83984	no	n/a	n/a
683.4804688	n/a	174971	largeTSmallH	correct	incongruent	0.80078	no	T	H
684.28125	n/a	175176	responseSmallH	correct	n/a	0.80078	no	n/a	n/a
685.34375	n/a	175448	largeHSmallT	correct	incongruent	0.46875	no	H	T
685.8125	n/a	175568	responseSmallT	correct	n/a	0.46875	no	n/a	n/a
686.8789062	n/a	175841	largeTSmallT	correct	congruent	0.5	no	T	T
687.3789062	n/a	175969	responseSmallT	correct	n/a	0.5	no	n/a	n/a
688.453125	n/a	176244	largeHSmallH	correct	congruent	0.71484	no	H	H
689.1679688	n/a	176427	responseSmallH	correct	n/a	0.71484	no	n/a	n/a
690.2539062	n/a	176705	largeHSmallH	correct	congruent	0.75391	no	H	H
691.0078125	n/a	176898	responseSmallH	correct	n/a	0.75391	no	n/a	n/a
692.0664062	n/a	177169	largeHSmallH	correct	congruent	0.53516	no	H	H
692.6015625	n/a	177306	responseSmallH	correct	n/a	0.53516	no	n/a	n/a
693.6796875	n/a	177582	largeHSmallH	correct	congruent	0.63281	no	H	H
694.3125	n/a	177744	responseSmallH	correct	n/a	0.63281	no	n/a	n/a
695.3867188	n/a	178019	largeHSmallT	correct	incongruent	6.8281	yes	H	T
702.2148438	n/a	179767	responseSmallT	correct	n/a	6.8281	yes	n/a	n/a
703.2929688	n/a	180043	largeTSmallT	correct	congruent	0.68359	no	T	T
703.9765625	n/a	180218	responseSmallT	correct	n/a	0.68359	no	n/a	n/a
705.0507812	n/a	180493	largeTSmallT	correct	congruent	1.5195	yes	T	T
706.5703125	n/a	180882	responseSmallT	correct	n/a	1.5195	yes	n/a	n/a
707.6367188	n/a	181155	largeHSmallT	correct	incongruent	0.70703	no	H	T
708.34375	n/a	181336	responseSmallT	correct	n/a	0.70703	no	n/a	n/a
709.4257812	n/a	181613	largeTSmallH	correct	incongruent	0.67188	no	T	H
710.0976562	n/a	181785	responseSmallH	correct	n/a	0.67188	no	n/a	n/a
711.171875	n/a	182060	largeTSmallT	correct	congruent	0.91406	no	T	T
712.0859375	n/a	182294	responseSmallT	correct	n/a	0.91406	no	n/a	n/a
713.15625	n/a	182568	largeTSmallT	error	congruent	0.44141	no	T	T
713.5976562	n/a	182681	responseSmallH	error	n/a	0.44141	no	n/a	n/a
714.6640625	n/a	182954	largeTSmallT	correct	congruent	0.9375	no	T	T
715.6015625	n/a	183194	responseSmallT	correct	n/a	0.9375	no	n/a	n/a
716.6796875	n/a	183470	largeHSmallH	correct	congruent	0.61328	no	H	H
717.2929688	n/a	183627	responseSmallH	correct	n/a	0.61328	no	n/a	n/a
718.359375	n/a	183900	largeTSmallT	correct	congruent	0.78516	no	T	T
719.1445312	n/a	184101	responseSmallT	correct	n/a	0.78516	no	n/a	n/a
720.2109375	n/a	184374	largeTSmallH	correct	incongruent	0.69141	no	T	H
720.9023438	n/a	184551	responseSmallH	correct	n/a	0.69141	no	n/a	n/a
721.984375	n/a	184828	largeTSmallH	correct	incongruent	0.68359	no	T	H
722.6679688	n/a	185003	responseSmallH	correct	n/a	0.68359	no	n/a	n/a
723.7460938	n/a	185279	largeHSmallH	correct	congruent	0.86719	no	H	H
724.6132812	n/a	185501	responseSmallH	correct	n/a	0.86719	no	n/a	n/a
725.6914062	n/a	185777	largeTSmallT	correct	congruent	0.75391	no	T	T
726.4453125	n/a	185970	responseSmallT	correct	n/a	0.75391	no	n/a	n/a
727.5195312	n/a	186245	largeHSmallH	correct	congruent	0.58594	no	H	H
728.1054688	n/a	186395	responseSmallH	correct	n/a	0.58594	no	n/a	n/a
729.171875	n/a	186668	largeTSmallT	correct	congruent	0.55859	no	T	T
729.7304688	n/a	186811	responseSmallT	correct	n/a	0.55859	no	n/a	n/a
730.8125	n/a	187088	largeTSmallT	correct	congruent	1.2578	no	T	T
732.0703125	n/a	187410	responseSmallT	correct	n/a	1.2578	no	n/a	n/a
733.1445312	n/a	187685	largeHSmallT	correct	incongruent	0.79297	no	H	T
733.9375	n/a	187888	responseSmallT	correct	n/a	0.79297	no	n/a	n/a
734.9960938	n/a	188159	largeTSmallT	correct	congruent	0.74219	no	T	T
735.7382812	n/a	188349	responseSmallT	correct	n/a	0.74219	no	n/a	n/a
736.8125	n/a	188624	largeHSmallT	correct	incongruent	0.85547	no	H	T
737.6679688	n/a	188843	responseSmallT	correct	n/a	0.85547	no	n/a	n/a
738.7304688	n/a	189115	largeTSmallH	correct	incongruent	0.65234	no	T	H
739.3828125	n/a	189282	responseSmallH	correct	n/a	0.65234	no	n/a	n/a
740.4492188	n/a	189555	largeTSmallH	correct	incongruent	0.60938	no	T	H
741.0585938	n/a	189711	responseSmallH	correct	n/a	0.60938	no	n/a	n/a
742.1289062	n/a	189985	largeHSmallH	correct	congruent	0.46875	no	H	H
742.5976562	n/a	190105	responseSmallH	correct	n/a	0.46875	no	n/a	n/a
743.6757812	n/a	190381	largeHSmallT	correct	incongruent	0.67969	no	H	T
744.3554688	n/a	190555	responseSmallT	correct	n/a	0.67969	no	n/a	n/a
745.4257812	n/a	190829	largeTSmallH	correct	incongruent	0.57422	no	T	H
746	n/a	190976	responseSmallH	correct	n/a	0.57422	no	n/a	n/a
747.078125	n/a	191252	largeHSmallT	correct	incongruent	0.79297	no	H	T
747.8710938	n/a	191455	responseSmallT	correct	n/a	0.79297	no	n/a	n/a
748.9296875	n/a	191726	largeTSmallT	correct	congruent	0.66406	no	T	T
749.59375	n/a	191896	responseSmallT	correct	n/a	0.66406	no	n/a	n/a
750.6640625	n/a	192170	largeTSmallH	correct	incongruent	0.62891	no	T	H
751.2929688	n/a	192331	responseSmallH	correct	n/a	0.62891	no	n/a	n/a
752.3710938	n/a	192607	largeTSmallT	correct	congruent	0.58594	no	T	T
752.9570312	n/a	192757	responseSmallT	correct	n/a	0.58594	no	n/a	n/a
754.0234375	n/a	193030	largeHSmallH	correct	congruent	0.6875	no	H	H
754.7109375	n/a	193206	responseSmallH	correct	n/a	0.6875	no	n/a	n/a
755.7851562	n/a	193481	largeHSmallT	correct	incongruent	0.59766	no	H	T
756.3828125	n/a	193634	responseSmallT	correct	n/a	0.59766	no	n/a	n/a
757.4492188	n/a	193907	largeHSmallT	error	incongruent	0.55859	no	H	T
758.0078125	n/a	194050	responseSmallH	error	n/a	0.55859	no	n/a	n/a
759.078125	n/a	194324	largeTSmallT	correct	congruent	0.53906	no	T	T
759.6171875	n/a	194462	responseSmallT	correct	n/a	0.53906	no	n/a	n/a
768.8632812	n/a	196829	largeTSmallT	correct	congruent	2.6094	yes	T	T
771.4726562	n/a	197497	responseLargeT	correct	n/a	2.6094	yes	n/a	n/a
772.5429688	n/a	197771	largeHSmallT	correct	incongruent	0.64844	no	H	T
773.1914062	n/a	197937	responseLargeH	correct	n/a	0.64844	no	n/a	n/a
774.2617188	n/a	198211	largeTSmallH	correct	incongruent	0.58203	no	T	H
774.84375	n/a	198360	responseLargeT	correct	n/a	0.58203	no	n/a	n/a
775.9023438	n/a	198631	largeHSmallH	correct	congruent	0.5625	no	H	H
776.4648438	n/a	198775	responseLargeH	correct	n/a	0.5625	no	n/a	n/a
777.53125	n/a	199048	largeTSmallT	correct	congruent	0.76172	no	T	T
778.2929688	n/a	199243	responseLargeT	correct	n/a	0.76172	no	n/a	n/a
779.3710938	n/a	199519	largeHSmallH	correct	congruent	0.64844	no	H	H
780.0195312	n/a	199685	responseLargeH	correct	n/a	0.64844	no	n/a	n/a
781.0898438	n/a	199959	largeTSmallH	correct	incongruent	0.67969	no	T	H
781.7695312	n/a	200133	responseLargeT	correct	n/a	0.67969	no	n/a	n/a
782.8359375	n/a	200406	largeHSmallT	correct	incongruent	0.51172	no	H	T
783.3476562	n/a	200537	responseLargeH	correct	n/a	0.51172	no	n/a	n/a
784.421875	n/a	200812	largeTSmallT	correct	congruent	0.5625	no	T	T
784.984375	n/a	200956	responseLargeT	correct	n/a	0.5625	no	n/a	n/a
786.0625	n/a	201232	largeTSmallT	correct	congruent	0.67188	no	T	T
786.734375	n/a	201404	responseLargeT	correct	n/a	0.67188	no	n/a	n/a
787.8085938	n/a	201679	largeTSmallH	correct	incongruent	0.73828	no	T	H
788.546875	n/a	201868	responseLargeT	correct	n/a	0.73828	no	n/a	n/a
789.6210938	n/a	202143	largeTSmallT	correct	congruent	0.65625	no	T	T
790.2773438	n/a	202311	responseLargeT	correct	n/a	0.65625	no	n/a	n/a
791.3554688	n/a	202587	largeTSmallT	correct	congruent	0.69141	no	T	T
792.046875	n/a	202764	responseLargeT	correct	n/a	0.69141	no	n/a	n/a
793.1171875	n/a	203038	largeHSmallH	error	congruent	0.55859	no	H	H
793.6757812	n/a	203181	responseLargeT	error	n/a	0.55859	no	n/a	n/a
794.7578125	n/a	203458	largeTSmallT	correct	congruent	0.57812	no	T	T
795.3359375	n/a	203606	responseLargeT	correct	n/a	0.57812	no	n/a	n/a
796.4101562	n/a	203881	largeTSmallH	correct	incongruent	0.76562	no	T	H
797.1757812	n/a	204077	responseLargeT	correct	n/a	0.76562	no	n/a	n/a
798.25	n/a	204352	largeTSmallT	correct	congruent	0.5625	no	T	T
798.8125	n/a	204496	responseLargeT	correct	n/a	0.5625	no	n/a	n/a
799.890625	n/a	204772	largeHSmallT	correct	incongruent	0.53516	no	H	T
800.4257812	n/a	204909	responseLargeH	correct	n/a	0.53516	no	n/a	n/a
801.4882812	n/a	205181	largeHSmallT	correct	incongruent	1.1445	no	H	T
802.6328125	n/a	205474	responseLargeH	correct	n/a	1.1445	no	n/a	n/a
803.703125	n/a	205748	largeTSmallH	correct	incongruent	0.52344	no	T	H
804.2265625	n/a	205882	responseLargeT	correct	n/a	0.52344	no	n/a	n/a
805.3007812	n/a	206157	largeHSmallT	correct	incongruent	0.70703	no	H	T
806.0078125	n/a	206338	responseLargeH	correct	n/a	0.70703	no	n/a	n/a
807.0742188	n/a	206611	largeTSmallT	correct	congruent	0.70703	no	T	T
807.78125	n/a	206792	responseLargeT	correct	n/a	0.70703	no	n/a	n/a
808.8476562	n/a	207065	largeHSmallT	correct	incongruent	0.98438	no	H	T
809.8320312	n/a	207317	responseLargeH	correct	n/a	0.98438	no	n/a	n/a
810.9023438	n/a	207591	largeHSmallT	correct	incongruent	0.79688	no	H	T
811.6992188	n/a	207795	responseLargeH	correct	n/a	0.79688	no	n/a	n/a
812.7695312	n/a	208069	largeTSmallT	correct	congruent	0.71484	no	T	T
813.484375	n/a	208252	responseLargeT	correct	n/a	0.71484	no	n/a	n/a
814.5703125	n/a	208530	largeTSmallT	correct	congruent	0.72656	no	T	T
815.296875	n/a	208716	responseLargeT	correct	n/a	0.72656	no	n/a	n/a
816.3671875	n/a	208990	largeTSmallH	correct	incongruent	0.99219	no	T	H
817.359375	n/a	209244	responseLargeT	correct	n/a	0.99219	no	n/a	n/a
818.4335938	n/a	209519	largeTSmallT	correct	congruent	0.875	no	T	T
819.3085938	n/a	209743	responseLargeT	correct	n/a	0.875	no	n/a	n/a
820.3828125	n/a	210018	largeTSmallH	correct	incongruent	0.76172	no	T	H
821.1445312	n/a	210213	responseLargeT	correct	n/a	0.76172	no	n/a	n/a
822.2226562	n/a	210489	largeHSmallT	correct	incongruent	0.79688	no	H	T
823.0195312	n/a	210693	responseLargeH	correct	n/a	0.79688	no	n/a	n/a
824.1015625	n/a	210970	largeHSmallH	correct	congruent	1.0547	no	H	H
825.15625	n/a	211240	responseLargeH	correct	n/a	1.0547	no	n/a	n/a
826.234375	n/a	211516	largeTSmallT	correct	congruent	0.74609	no	T	T
826.9804688	n/a	211707	responseLargeT	correct	n/a	0.74609	no	n/a	n/a
828.0625	n/a	211984	largeTSmallT	correct	congruent	0.82422	no	T	T
828.8867188	n/a	212195	responseLargeT	correct	n/a	0.82422	no	n/a	n/a
829.9570312	n/a	212469	largeTSmallT	correct	congruent	0.58594	no	T	T
830.5429688	n/a	212619	responseLargeT	correct	n/a	0.58594	no	n/a	n/a
831.6210938	n/a	212895	largeHSmallT	correct	incongruent	0.55859	no	H	T
832.1796875	n/a	213038	responseLargeH	correct	n/a	0.55859	no	n/a	n/a
833.25	n/a	213312	largeTSmallT	correct	congruent	0.63281	no	T	T
833.8828125	n/a	213474	responseLargeT	correct	n/a	0.63281	no	n/a	n/a
834.953125	n/a	213748	largeHSmallT	correct	incongruent	0.58984	no	H	T
835.5429688	n/a	213899	responseLargeH	correct	n/a	0.58984	no	n/a	n/a
836.6210938	n/a	214175	largeTSmallT	correct	congruent	0.48047	no	T	T
837.1015625	n/a	214298	responseLargeT	correct	n/a	0.48047	no	n/a	n/a
838.1679688	n/a	214571	largeHSmallT	correct	incongruent	0.625	no	H	T
838.7929688	n/a	214731	responseLargeH	correct	n/a	0.625	no	n/a	n/a
839.8632812	n/a	215005	largeTSmallH	error	incongruent	0.75781	no	T	H
840.6210938	n/a	215199	responseLargeH	error	n/a	0.75781	no	n/a	n/a
841.6875	n/a	215472	largeHSmallH	correct	congruent	0.65625	no	H	H
842.34375	n/a	215640	responseLargeH	correct	n/a	0.65625	no	n/a	n/a
843.40625	n/a	215912	largeHSmallH	correct	congruent	0.51953	no	H	H
843.9257812	n/a	216045	responseLargeH	correct	n/a	0.51953	no	n/a	n/a
844.9960938	n/a	216319	largeHSmallH	correct	congruent	0.58594	no	H	H
845.5820312	n/a	216469	responseLargeH	correct	n/a	0.58594	no	n/a	n/a
846.6484375	n/a	216742	largeHSmallH	correct	congruent	0.58594	no	H	H
847.234375	n/a	216892	responseLargeH	correct	n/a	0.58594	no	n/a	n/a
848.3164062	n/a	217169	largeTSmallT	error	congruent	0.53516	no	T	T
848.8515625	n/a	217306	responseLargeH	error	n/a	0.53516	no	n/a	n/a
849.9296875	n/a	217582	largeHSmallT	correct	incongruent	0.48828	no	H	T
850.4179688	n/a	217707	responseLargeH	correct	n/a	0.48828	no	n/a	n/a
851.4882812	n/a	217981	largeTSmallH	correct	incongruent	0.73828	no	T	H
852.2265625	n/a	218170	responseLargeT	correct	n/a	0.73828	no	n/a	n/a
853.3007812	n/a	218445	largeTSmallH	correct	incongruent	0.51953	no	T	H
853.8203125	n/a	218578	responseLargeT	correct	n/a	0.51953	no	n/a	n/a
854.8867188	n/a	218851	largeTSmallT	correct	congruent	0.61719	no	T	T
855.5039062	n/a	219009	responseLargeT	correct	n/a	0.61719	no	n/a	n/a
856.5664062	n/a	219281	largeTSmallH	correct	incongruent	0.81641	no	T	H
857.3828125	n/a	219490	responseLargeT	correct	n/a	0.81641	no	n/a	n/a
858.4609375	n/a	219766	largeTSmallT	correct	congruent	0.60547	no	T	T
859.0664062	n/a	219921	responseLargeT	correct	n/a	0.60547	no	n/a	n/a
860.1289062	n/a	220193	largeHSmallT	correct	incongruent	0.67969	no	H	T
860.8085938	n/a	220367	responseLargeH	correct	n/a	0.67969	no	n/a	n/a
861.875	n/a	220640	largeHSmallT	correct	incongruent	0.6875	no	H	T
862.5625	n/a	220816	responseLargeH	correct	n/a	0.6875	no	n/a	n/a
863.6484375	n/a	221094	largeTSmallT	correct	congruent	0.4375	no	T	T
864.0859375	n/a	221206	responseLargeT	correct	n/a	0.4375	no	n/a	n/a
865.1523438	n/a	221479	largeTSmallT	correct	congruent	0.80078	no	T	T
865.953125	n/a	221684	responseLargeT	correct	n/a	0.80078	no	n/a	n/a
867.0351562	n/a	221961	largeHSmallH	correct	congruent	0.52734	no	H	H
867.5625	n/a	222096	responseLargeH	correct	n/a	0.52734	no	n/a	n/a
868.6328125	n/a	222370	largeHSmallT	error	incongruent	0.54688	no	H	T
869.1796875	n/a	222510	responseLargeT	error	n/a	0.54688	no	n/a	n/a
870.2617188	n/a	222787	largeTSmallT	correct	congruent	0.83203	no	T	T
871.09375	n/a	223000	responseLargeT	correct	n/a	0.83203	no	n/a	n/a
872.1523438	n/a	223271	largeHSmallT	correct	incongruent	0.75781	no	H	T
872.9101562	n/a	223465	responseLargeH	correct	n/a	0.75781	no	n/a	n/a
873.9804688	n/a	223739	largeHSmallT	correct	incongruent	0.87891	no	H	T
874.859375	n/a	223964	responseLargeH	correct	n/a	0.87891	no	n/a	n/a
875.9414062	n/a	224241	largeHSmallH	correct	congruent	0.54297	no	H	H
876.484375	n/a	224380	responseLargeH	correct	n/a	0.54297	no	n/a	n/a
877.5546875	n/a	224654	largeTSmallH	correct	incongruent	0.62109	no	T	H
878.1757812	n/a	224813	responseLargeT	correct	n/a	0.62109	no	n/a	n/a
879.234375	n/a	225084	largeHSmallT	correct	incongruent	0.48047	no	H	T
879.7148438	n/a	225207	responseLargeH	correct	n/a	0.48047	no	n/a	n/a
880.78125	n/a	225480	largeTSmallH	correct	incongruent	0.48047	no	T	H
881.2617188	n/a	225603	responseLargeT	correct	n/a	0.48047	no	n/a	n/a
882.328125	n/a	225876	largeHSmallT	correct	incongruent	0.5625	no	H	T
882.890625	n/a	226020	responseLargeH	correct	n/a	0.5625	no	n/a	n/a
883.96875	n/a	226296	largeHSmallH	correct	congruent	0.75781	no	H	H
884.7265625	n/a	226490	responseLargeH	correct	n/a	0.75781	no	n/a	n/a
885.7929688	n/a	226763	largeTSmallT	correct	congruent	0.63672	no	T	T
886.4296875	n/a	226926	responseLargeT	correct	n/a	0.63672	no	n/a	n/a
887.5117188	n/a	227203	largeTSmallH	correct	incongruent	0.60156	no	T	H
888.1132812	n/a	227357	responseLargeT	correct	n/a	0.60156	no	n/a	n/a
889.1796875	n/a	227630	largeTSmallT	correct	congruent	0.55859	no	T	T
889.7382812	n/a	227773	responseLargeT	correct	n/a	0.55859	no	n/a	n/a
890.8085938	n/a	228047	largeHSmallT	correct	incongruent	0.44922	no	H	T
891.2578125	n/a	228162	responseLargeH	correct	n/a	0.44922	no	n/a	n/a
892.328125	n/a	228436	largeHSmallH	correct	congruent	0.625	no	H	H
892.953125	n/a	228596	responseLargeH	correct	n/a	0.625	no	n/a	n/a
894.0351562	n/a	228873	largeTSmallT	correct	congruent	0.57812	no	T	T
894.6132812	n/a	229021	responseLargeT	correct	n/a	0.57812	no	n/a	n/a
895.6875	n/a	229296	largeHSmallH	correct	congruent	0.80078	no	H	H
896.4882812	n/a	229501	responseLargeH	correct	n/a	0.80078	no	n/a	n/a
897.5546875	n/a	229774	largeHSmallH	correct	congruent	0.83203	no	H	H
898.3867188	n/a	229987	responseLargeH	correct	n/a	0.83203	no	n/a	n/a
899.4609375	n/a	230262	largeTSmallH	correct	incongruent	0.99219	no	T	H
900.453125	n/a	230516	responseLargeT	correct	n/a	0.99219	no	n/a	n/a
901.5117188	n/a	230787	largeHSmallT	correct	incongruent	0.45312	no	H	T
901.9648438	n/a	230903	responseLargeH	correct	n/a	0.45312	no	n/a	n/a
903.0351562	n/a	231177	largeHSmallH	correct	congruent	0.66016	no	H	H
903.6953125	n/a	231346	responseLargeH	correct	n/a	0.66016	no	n/a	n/a
904.765625	n/a	231620	largeTSmallH	correct	incongruent	0.65234	no	T	H
905.4179688	n/a	231787	responseLargeT	correct	n/a	0.65234	no	n/a	n/a
906.5	n/a	232064	largeTSmallH	correct	incongruent	0.57422	no	T	H
907.0742188	n/a	232211	responseLargeT	correct	n/a	0.57422	no	n/a	n/a
908.1523438	n/a	232487	largeHSmallT	correct	incongruent	0.63281	no	H	T
908.7851562	n/a	232649	responseLargeH	correct	n/a	0.63281	no	n/a	n/a
909.859375	n/a	232924	largeTSmallH	correct	incongruent	0.60938	no	T	H
910.46875	n/a	233080	responseLargeT	correct	n/a	0.60938	no	n/a	n/a
911.5390625	n/a	233354	largeTSmallH	correct	incongruent	0.51562	no	T	H
912.0546875	n/a	233486	responseLargeT	correct	n/a	0.51562	no	n/a	n/a
913.125	n/a	233760	largeTSmallH	correct	incongruent	0.53906	no	T	H
913.6640625	n/a	233898	responseLargeT	correct	n/a	0.53906	no	n/a	n/a
914.7265625	n/a	234170	largeHSmallT	correct	incongruent	0.51562	no	H	T
915.2421875	n/a	234302	responseLargeH	correct	n/a	0.51562	no	n/a	n/a
916.3125	n/a	234576	largeTSmallT	correct	congruent	0.54688	no	T	T
916.859375	n/a	234716	responseLargeT	correct	n/a	0.54688	no	n/a	n/a
917.9257812	n/a	234989	largeTSmallT	correct	congruent	0.48047	no	T	T
918.40625	n/a	235112	responseLargeT	correct	n/a	0.48047	no	n/a	n/a
919.4726562	n/a	235385	largeHSmallH	correct	congruent	0.53906	no	H	H
920.0117188	n/a	235523	responseLargeH	correct	n/a	0.53906	no	n/a	n/a
921.0859375	n/a	235798	largeTSmallH	error	incongruent	0.44531	no	T	H
921.53125	n/a	235912	responseLargeH	error	n/a	0.44531	no	n/a	n/a
922.59375	n/a	236184	largeHSmallT	correct	incongruent	0.62109	no	H	T
923.2148438	n/a	236343	responseLargeH	correct	n/a	0.62109	no	n/a	n/a
924.2734375	n/a	236614	largeHSmallH	correct	congruent	0.51562	no	H	H
924.7890625	n/a	236746	responseLargeH	correct	n/a	0.51562	no	n/a	n/a
925.859375	n/a	237020	largeHSmallT	correct	incongruent	0.63672	no	H	T
926.4960938	n/a	237183	responseLargeH	correct	n/a	0.63672	no	n/a	n/a
927.5664062	n/a	237457	largeHSmallH	error	congruent	0.77344	no	H	H
928.3398438	n/a	237655	responseLargeT	error	n/a	0.77344	no	n/a	n/a
929.40625	n/a	237928	largeHSmallH	correct	congruent	0.65234	no	H	H
930.0585938	n/a	238095	responseLargeH	correct	n/a	0.65234	no	n/a	n/a
931.125	n/a	238368	largeTSmallH	correct	incongruent	0.58984	no	T	H
931.7148438	n/a	238519	responseLargeT	correct	n/a	0.58984	no	n/a	n/a
932.7773438	n/a	238791	largeHSmallH	correct	congruent	0.60156	no	H	H
933.3789062	n/a	238945	responseLargeH	correct	n/a	0.60156	no	n/a	n/a
934.4453125	n/a	239218	largeTSmallH	correct	incongruent	0.63281	no	T	H
935.078125	n/a	239380	responseLargeT	correct	n/a	0.63281	no	n/a	n/a
936.1523438	n/a	239655	largeHSmallH	correct	congruent	0.55469	no	H	H
936.7070312	n/a	239797	responseLargeH	correct	n/a	0.55469	no	n/a	n/a
937.7773438	n/a	240071	largeTSmallH	correct	incongruent	0.78516	no	T	H
938.5625	n/a	240272	responseLargeT	correct	n/a	0.78516	no	n/a	n/a
939.6328125	n/a	240546	largeHSmallH	correct	congruent	0.61328	no	H	H
940.2460938	n/a	240703	responseLargeH	correct	n/a	0.61328	no	n/a	n/a
941.3125	n/a	240976	largeHSmallT	correct	incongruent	1.2344	no	H	T
942.546875	n/a	241292	responseLargeH	correct	n/a	1.2344	no	n/a	n/a
943.6171875	n/a	241566	largeHSmallT	correct	incongruent	0.69922	no	H	T
944.3164062	n/a	241745	responseLargeH	correct	n/a	0.69922	no	n/a	n/a
945.390625	n/a	242020	largeHSmallT	correct	incongruent	0.55078	no	H	T
945.9414062	n/a	242161	responseLargeH	correct	n/a	0.55078	no	n/a	n/a
947.0039062	n/a	242433	largeTSmallH	correct	incongruent	0.64062	no	T	H
947.6445312	n/a	242597	responseLargeT	correct	n/a	0.64062	no	n/a	n/a
948.7265625	n/a	242874	largeTSmallH	correct	incongruent	0.61719	no	T	H
949.34375	n/a	243032	responseLargeT	correct	n/a	0.61719	no	n/a	n/a
950.40625	n/a	243304	largeHSmallH	correct	congruent	0.77734	no	H	H
951.1835938	n/a	243503	responseLargeH	correct	n/a	0.77734	no	n/a	n/a
952.2460938	n/a	243775	largeTSmallH	correct	incongruent	0.64062	no	T	H
952.8867188	n/a	243939	responseLargeT	correct	n/a	0.64062	no	n/a	n/a
953.953125	n/a	244212	largeTSmallT	correct	congruent	0.58203	no	T	T
954.5351562	n/a	244361	responseLargeT	correct	n/a	0.58203	no	n/a	n/a
955.6054688	n/a	244635	largeTSmallT	correct	congruent	0.45703	no	T	T
956.0625	n/a	244752	responseLargeT	correct	n/a	0.45703	no	n/a	n/a
957.1367188	n/a	245027	largeHSmallH	correct	congruent	0.66797	no	H	H
957.8046875	n/a	245198	responseLargeH	correct	n/a	0.66797	no	n/a	n/a
958.8867188	n/a	245475	largeHSmallH	correct	congruent	1.2539	no	H	H
960.140625	n/a	245796	responseLargeH	correct	n/a	1.2539	no	n/a	n/a
961.2070312	n/a	246069	largeHSmallH	correct	congruent	0.60156	no	H	H
961.8085938	n/a	246223	responseLargeH	correct	n/a	0.60156	no	n/a	n/a
962.8710938	n/a	246495	largeTSmallT	correct	congruent	0.78125	no	T	T
963.6523438	n/a	246695	responseLargeT	correct	n/a	0.78125	no	n/a	n/a
964.7265625	n/a	246970	largeTSmallH	correct	incongruent	0.61719	no	T	H
965.34375	n/a	247128	responseLargeT	correct	n/a	0.61719	no	n/a	n/a
966.4179688	n/a	247403	largeHSmallT	correct	incongruent	0.63672	no	H	T
967.0546875	n/a	247566	responseLargeH	correct	n/a	0.63672	no	n/a	n/a
968.125	n/a	247840	largeHSmallH	correct	congruent	0.75	no	H	H
968.875	n/a	248032	responseLargeH	correct	n/a	0.75	no	n/a	n/a
969.9375	n/a	248304	largeHSmallH	correct	congruent	0.55859	no	H	H
970.4960938	n/a	248447	responseLargeH	correct	n/a	0.55859	no	n/a	n/a
971.5664062	n/a	248721	largeTSmallT	correct	congruent	0.46094	no	T	T
972.0273438	n/a	248839	responseLargeT	correct	n/a	0.46094	no	n/a	n/a
973.0859375	n/a	249110	largeTSmallH	correct	incongruent	0.65234	no	T	H
973.7382812	n/a	249277	responseLargeT	correct	n/a	0.65234	no	n/a	n/a
974.8046875	n/a	249550	largeTSmallH	correct	incongruent	0.58594	no	T	H
975.390625	n/a	249700	responseLargeT	correct	n/a	0.58594	no	n/a	n/a
976.4570312	n/a	249973	largeHSmallT	correct	incongruent	0.625	no	H	T
977.0820312	n/a	250133	responseLargeH	correct	n/a	0.625	no	n/a	n/a
978.1640625	n/a	250410	largeTSmallT	correct	congruent	0.40625	no	T	T
978.5703125	n/a	250514	responseLargeT	correct	n/a	0.40625	no	n/a	n/a
979.6445312	n/a	250789	largeHSmallT	correct	incongruent	0.46484	no	H	T
980.109375	n/a	250908	responseLargeH	correct	n/a	0.46484	no	n/a	n/a
981.1914062	n/a	251185	largeHSmallT	error	incongruent	0.45312	no	H	T
981.6445312	n/a	251301	responseLargeT	error	n/a	0.45312	no	n/a	n/a
982.7109375	n/a	251574	largeTSmallH	correct	incongruent	0.45312	no	T	H
983.1640625	n/a	251690	responseLargeT	correct	n/a	0.45312	no	n/a	n/a
984.2304688	n/a	251963	largeTSmallH	correct	incongruent	0.71094	no	T	H
984.9414062	n/a	252145	responseLargeT	correct	n/a	0.71094	no	n/a	n/a
986.0039062	n/a	252417	largeHSmallH	correct	congruent	0.44531	no	H	H
986.4492188	n/a	252531	responseLargeH	correct	n/a	0.44531	no	n/a	n/a
987.5234375	n/a	252806	largeHSmallH	correct	congruent	0.57031	no	H	H
988.09375	n/a	252952	responseLargeH	correct	n/a	0.57031	no	n/a	n/a
989.1640625	n/a	253226	largeHSmallH	correct	congruent	0.56641	no	H	H
989.7304688	n/a	253371	responseLargeH	correct	n/a	0.56641	no	n/a	n/a
990.8046875	n/a	253646	largeHSmallT	correct	incongruent	0.60547	no	H	T
991.4101562	n/a	253801	responseLargeH	correct	n/a	0.60547	no	n/a	n/a
992.484375	n/a	254076	largeHSmallH	correct	congruent	0.50781	no	H	H
992.9921875	n/a	254206	responseLargeH	correct	n/a	0.50781	no	n/a	n/a
994.0585938	n/a	254479	largeTSmallT	correct	congruent	0.61328	no	T	T
994.671875	n/a	254636	responseLargeT	correct	n/a	0.61328	no	n/a	n/a
995.7382812	n/a	254909	largeTSmallT	correct	congruent	0.84766	no	T	T
996.5859375	n/a	255126	responseLargeT	correct	n/a	0.84766	no	n/a	n/a
997.65625	n/a	255400	largeTSmallH	correct	incongruent	0.54688	no	T	H
998.203125	n/a	255540	responseLargeT	correct	n/a	0.54688	no	n/a	n/a
999.2695312	n/a	255813	largeTSmallH	correct	incongruent	0.58203	no	T	H
999.8515625	n/a	255962	responseLargeT	correct	n/a	0.58203	no	n/a	n/a
1000.925781	n/a	256237	largeHSmallT	correct	incongruent	1.0781	no	H	T
1002.003906	n/a	256513	responseLargeH	correct	n/a	1.0781	no	n/a	n/a
1003.070312	n/a	256786	largeTSmallT	correct	congruent	0.52344	no	T	T
1003.59375	n/a	256920	responseLargeT	correct	n/a	0.52344	no	n/a	n/a
1004.671875	n/a	257196	largeTSmallH	correct	incongruent	0.73438	no	T	H
1005.40625	n/a	257384	responseLargeT	correct	n/a	0.73438	no	n/a	n/a
1006.46875	n/a	257656	largeHSmallT	correct	incongruent	0.64844	no	H	T
1007.117188	n/a	257822	responseLargeH	correct	n/a	0.64844	no	n/a	n/a
1008.191406	n/a	258097	largeHSmallT	correct	incongruent	0.94531	no	H	T
1009.136719	n/a	258339	responseLargeH	correct	n/a	0.94531	no	n/a	n/a
1010.203125	n/a	258612	largeTSmallT	correct	congruent	0.59766	no	T	T
1010.800781	n/a	258765	responseLargeT	correct	n/a	0.59766	no	n/a	n/a
1011.871094	n/a	259039	largeTSmallH	correct	incongruent	0.62109	no	T	H
1012.492188	n/a	259198	responseLargeT	correct	n/a	0.62109	no	n/a	n/a
1013.5625	n/a	259472	largeHSmallH	correct	congruent	0.62891	no	H	H
1014.191406	n/a	259633	responseLargeH	correct	n/a	0.62891	no	n/a	n/a
1015.257812	n/a	259906	largeTSmallH	correct	incongruent	0.80859	no	T	H
1016.066406	n/a	260113	responseLargeT	correct	n/a	0.80859	no	n/a	n/a
1017.136719	n/a	260387	largeTSmallH	correct	incongruent	0.61328	no	T	H
1017.75	n/a	260544	responseLargeT	correct	n/a	0.61328	no	n/a	n/a
1018.816406	n/a	260817	largeHSmallT	correct	incongruent	0.65234	no	H	T
1019.46875	n/a	260984	responseLargeH	correct	n/a	0.65234	no	n/a	n/a
1020.550781	n/a	261261	largeTSmallH	correct	incongruent	0.48828	no	T	H
1021.039062	n/a	261386	responseLargeT	correct	n/a	0.48828	no	n/a	n/a
1022.109375	n/a	261660	largeHSmallT	correct	incongruent	0.48047	no	H	T
1022.589844	n/a	261783	responseLargeH	correct	n/a	0.48047	no	n/a	n/a
1023.671875	n/a	262060	largeTSmallH	correct	incongruent	0.45312	no	T	H
1024.125	n/a	262176	responseLargeT	correct	n/a	0.45312	no	n/a	n/a
1025.191406	n/a	262449	largeTSmallT	correct	congruent	0.54688	no	T	T
1025.738281	n/a	262589	responseLargeT	correct	n/a	0.54688	no	n/a	n/a
1026.804688	n/a	262862	largeHSmallH	correct	congruent	0.67969	no	H	H
1027.484375	n/a	263036	responseLargeH	correct	n/a	0.67969	no	n/a	n/a
1028.550781	n/a	263309	largeHSmallH	correct	congruent	0.60938	no	H	H
1029.160156	n/a	263465	responseLargeH	correct	n/a	0.60938	no	n/a	n/a
1030.230469	n/a	263739	largeTSmallT	correct	congruent	0.43359	no	T	T
1030.664062	n/a	263850	responseLargeT	correct	n/a	0.43359	no	n/a	n/a
1031.738281	n/a	264125	largeTSmallT	correct	congruent	0.76953	no	T	T
1032.507812	n/a	264322	responseLargeT	correct	n/a	0.76953	no	n/a	n/a
1033.578125	n/a	264596	largeTSmallT	correct	congruent	0.51953	no	T	T
1034.097656	n/a	264729	responseLargeT	correct	n/a	0.51953	no	n/a	n/a
1035.164062	n/a	265002	largeHSmallH	correct	congruent	0.44531	no	H	H
1035.609375	n/a	265116	responseLargeH	correct	n/a	0.44531	no	n/a	n/a
1036.683594	n/a	265391	largeTSmallH	correct	incongruent	0.62891	no	T	H
1037.3125	n/a	265552	responseLargeT	correct	n/a	0.62891	no	n/a	n/a
1038.375	n/a	265824	largeHSmallT	correct	incongruent	0.63672	no	H	T
1039.011719	n/a	265987	responseLargeH	correct	n/a	0.63672	no	n/a	n/a
1040.082031	n/a	266261	largeHSmallH	correct	congruent	0.58984	no	H	H
1040.671875	n/a	266412	responseLargeH	correct	n/a	0.58984	no	n/a	n/a
1041.75	n/a	266688	largeHSmallT	correct	incongruent	0.55859	no	H	T
1042.308594	n/a	266831	responseLargeH	correct	n/a	0.55859	no	n/a	n/a
1043.390625	n/a	267108	largeTSmallH	correct	incongruent	0.45312	no	T	H
1043.84375	n/a	267224	responseLargeT	correct	n/a	0.45312	no	n/a	n/a
1044.910156	n/a	267497	largeHSmallT	correct	incongruent	0.56641	no	H	T
1045.476562	n/a	267642	responseLargeH	correct	n/a	0.56641	no	n/a	n/a
1046.550781	n/a	267917	largeHSmallT	correct	incongruent	1.8633	yes	H	T
1048.414062	n/a	268394	responseLargeH	correct	n/a	1.8633	yes	n/a	n/a
1049.484375	n/a	268668	largeHSmallT	correct	incongruent	0.625	no	H	T
1050.109375	n/a	268828	responseLargeH	correct	n/a	0.625	no	n/a	n/a
1051.1875	n/a	269104	largeHSmallT	correct	incongruent	0.63281	no	H	T
1051.820312	n/a	269266	responseLargeH	correct	n/a	0.63281	no	n/a	n/a
1052.882812	n/a	269538	largeHSmallH	correct	congruent	0.64062	no	H	H
1053.523438	n/a	269702	responseLargeH	correct	n/a	0.64062	no	n/a	n/a
1054.601562	n/a	269978	largeTSmallH	correct	incongruent	0.87109	no	T	H
1055.472656	n/a	270201	responseLargeT	correct	n/a	0.87109	no	n/a	n/a
1056.535156	n/a	270473	largeTSmallT	correct	congruent	1.3906	no	T	T
1057.925781	n/a	270829	responseLargeT	correct	n/a	1.3906	no	n/a	n/a
1059.003906	n/a	271105	largeTSmallH	correct	incongruent	0.67969	no	T	H
1059.683594	n/a	271279	responseLargeT	correct	n/a	0.67969	no	n/a	n/a
1060.75	n/a	271552	largeHSmallT	correct	incongruent	0.53125	no	H	T
1061.28125	n/a	271688	responseLargeH	correct	n/a	0.53125	no	n/a	n/a
1062.347656	n/a	271961	largeTSmallT	correct	congruent	0.69531	no	T	T
1063.042969	n/a	272139	responseLargeT	correct	n/a	0.69531	no	n/a	n/a
1064.121094	n/a	272415	largeTSmallT	correct	congruent	0.60156	no	T	T
1064.722656	n/a	272569	responseLargeT	correct	n/a	0.60156	no	n/a	n/a
1065.789062	n/a	272842	largeHSmallH	correct	congruent	0.66406	no	H	H
1066.453125	n/a	273012	responseLargeH	correct	n/a	0.66406	no	n/a	n/a
1067.523438	n/a	273286	largeHSmallH	error	congruent	0.96484	no	H	H
1068.488281	n/a	273533	responseLargeT	error	n/a	0.96484	no	n/a	n/a
1069.5625	n/a	273808	largeHSmallH	correct	congruent	0.62109	no	H	H
1070.183594	n/a	273967	responseLargeH	correct	n/a	0.62109	no	n/a	n/a
1071.269531	n/a	274245	largeHSmallT	error	incongruent	0.62891	no	H	T
1071.898438	n/a	274406	responseLargeT	error	n/a	0.62891	no	n/a	n/a
1072.960938	n/a	274678	largeTSmallH	correct	incongruent	1.1953	no	T	H
1074.15625	n/a	274984	responseLargeT	correct	n/a	1.1953	no	n/a	n/a
1075.230469	n/a	275259	largeTSmallT	correct	congruent	0.80469	no	T	T
1076.035156	n/a	275465	responseLargeT	correct	n/a	0.80469	no	n/a	n/a
1077.109375	n/a	275740	largeHSmallT	correct	incongruent	0.78516	no	H	T
1077.894531	n/a	275941	responseLargeH	correct	n/a	0.78516	no	n/a	n/a
1078.960938	n/a	276214	largeTSmallT	correct	congruent	0.50391	no	T	T
1079.464844	n/a	276343	responseLargeT	correct	n/a	0.50391	no	n/a	n/a
1080.535156	n/a	276617	largeTSmallT	correct	congruent	0.69922	no	T	T
1081.234375	n/a	276796	responseLargeT	correct	n/a	0.69922	no	n/a	n/a
1082.308594	n/a	277071	largeHSmallT	correct	incongruent	0.55078	no	H	T
1082.859375	n/a	277212	responseLargeH	correct	n/a	0.55078	no	n/a	n/a
1083.933594	n/a	277487	largeHSmallH	correct	congruent	1.125	no	H	H
1085.058594	n/a	277775	responseLargeH	correct	n/a	1.125	no	n/a	n/a
1086.136719	n/a	278051	largeHSmallH	correct	congruent	0.53125	no	H	H
1086.667969	n/a	278187	responseLargeH	correct	n/a	0.53125	no	n/a	n/a
1087.734375	n/a	278460	largeHSmallH	correct	congruent	0.64844	no	H	H
1088.382812	n/a	278626	responseLargeH	correct	n/a	0.64844	no	n/a	n/a
1089.457031	n/a	278901	largeTSmallH	correct	incongruent	0.65234	no	T	H
1090.109375	n/a	279068	responseLargeT	correct	n/a	0.65234	no	n/a	n/a
1091.1875	n/a	279344	largeHSmallT	correct	incongruent	0.69922	no	H	T
1091.886719	n/a	279523	responseLargeH	correct	n/a	0.69922	no	n/a	n/a
1092.960938	n/a	279798	largeHSmallH	correct	congruent	0.74609	no	H	H
1093.707031	n/a	279989	responseLargeH	correct	n/a	0.74609	no	n/a	n/a
1094.773438	n/a	280262	largeHSmallH	correct	congruent	0.625	no	H	H
1095.398438	n/a	280422	responseLargeH	correct	n/a	0.625	no	n/a	n/a
1096.46875	n/a	280696	largeHSmallH	correct	congruent	0.60938	no	H	H
1097.078125	n/a	280852	responseLargeH	correct	n/a	0.60938	no	n/a	n/a
1098.148438	n/a	281126	largeHSmallH	correct	congruent	0.66406	no	H	H
1098.8125	n/a	281296	responseLargeH	correct	n/a	0.66406	no	n/a	n/a
1099.894531	n/a	281573	largeTSmallT	correct	congruent	0.625	no	T	T
1100.519531	n/a	281733	responseLargeT	correct	n/a	0.625	no	n/a	n/a
1101.589844	n/a	282007	largeTSmallH	correct	incongruent	0.93359	no	T	H
1102.523438	n/a	282246	responseLargeT	correct	n/a	0.93359	no	n/a	n/a
1103.601562	n/a	282522	largeTSmallT	correct	congruent	0.57812	no	T	T
1104.179688	n/a	282670	responseLargeT	correct	n/a	0.57812	no	n/a	n/a
1105.253906	n/a	282945	largeHSmallH	correct	congruent	0.48047	no	H	H
1105.734375	n/a	283068	responseLargeH	correct	n/a	0.48047	no	n/a	n/a
1106.800781	n/a	283341	largeTSmallH	correct	incongruent	0.91406	no	T	H
1107.714844	n/a	283575	responseLargeT	correct	n/a	0.91406	no	n/a	n/a
1108.789062	n/a	283850	largeTSmallH	correct	incongruent	0.69531	no	T	H
1109.484375	n/a	284028	responseLargeT	correct	n/a	0.69531	no	n/a	n/a
1110.5625	n/a	284304	largeHSmallT	correct	incongruent	0.71094	no	H	T
1111.273438	n/a	284486	responseLargeH	correct	n/a	0.71094	no	n/a	n/a
1112.335938	n/a	284758	largeTSmallH	correct	incongruent	0.65625	no	T	H
1112.992188	n/a	284926	responseLargeT	correct	n/a	0.65625	no	n/a	n/a
1114.054688	n/a	285198	largeHSmallH	correct	congruent	0.50781	no	H	H
1114.5625	n/a	285328	responseLargeH	correct	n/a	0.50781	no	n/a	n/a
1115.628906	n/a	285601	largeTSmallT	correct	congruent	0.64844	no	T	T
1116.277344	n/a	285767	responseLargeT	correct	n/a	0.64844	no	n/a	n/a
1125.46875	n/a	288120	largeTSmallH	correct	incongruent	1.5859	yes	T	H
1127.054688	n/a	288526	responseSmallH	correct	n/a	1.5859	yes	n/a	n/a
1128.121094	n/a	288799	largeTSmallH	correct	incongruent	0.82031	no	T	H
1128.941406	n/a	289009	responseSmallH	correct	n/a	0.82031	no	n/a	n/a
1130.015625	n/a	289284	largeTSmallT	correct	congruent	0.78906	no	T	T
1130.804688	n/a	289486	responseSmallT	correct	n/a	0.78906	no	n/a	n/a
1131.867188	n/a	289758	largeTSmallH	correct	incongruent	0.72656	no	T	H
1132.59375	n/a	289944	responseSmallH	correct	n/a	0.72656	no	n/a	n/a
1133.667969	n/a	290219	largeTSmallT	correct	congruent	1.1133	no	T	T
1134.78125	n/a	290504	responseSmallT	correct	n/a	1.1133	no	n/a	n/a
1135.855469	n/a	290779	largeHSmallH	correct	congruent	1.6016	yes	H	H
1137.457031	n/a	291189	responseSmallH	correct	n/a	1.6016	yes	n/a	n/a
1138.535156	n/a	291465	largeHSmallT	correct	incongruent	0.625	no	H	T
1139.160156	n/a	291625	responseSmallT	correct	n/a	0.625	no	n/a	n/a
1140.226562	n/a	291898	largeTSmallH	correct	incongruent	1.3906	no	T	H
1141.617188	n/a	292254	responseSmallH	correct	n/a	1.3906	no	n/a	n/a
1142.695312	n/a	292530	largeTSmallT	correct	congruent	0.75	no	T	T
1143.445312	n/a	292722	responseSmallT	correct	n/a	0.75	no	n/a	n/a
1144.519531	n/a	292997	largeHSmallH	correct	congruent	0.51562	no	H	H
1145.035156	n/a	293129	responseSmallH	correct	n/a	0.51562	no	n/a	n/a
1146.105469	n/a	293403	largeHSmallH	correct	congruent	0.60547	no	H	H
1146.710938	n/a	293558	responseSmallH	correct	n/a	0.60547	no	n/a	n/a
1147.785156	n/a	293833	largeTSmallT	correct	congruent	0.58203	no	T	T
1148.367188	n/a	293982	responseSmallT	correct	n/a	0.58203	no	n/a	n/a
1149.441406	n/a	294257	largeTSmallT	correct	congruent	0.70703	no	T	T
1150.148438	n/a	294438	responseSmallT	correct	n/a	0.70703	no	n/a	n/a
1151.214844	n/a	294711	largeTSmallH	correct	incongruent	1.1758	no	T	H
1152.390625	n/a	295012	responseSmallH	correct	n/a	1.1758	no	n/a	n/a
1153.453125	n/a	295284	largeHSmallT	correct	incongruent	0.5625	no	H	T
1154.015625	n/a	295428	responseSmallT	correct	n/a	0.5625	no	n/a	n/a
1155.082031	n/a	295701	largeTSmallT	correct	congruent	0.67188	no	T	T
1155.753906	n/a	295873	responseSmallT	correct	n/a	0.67188	no	n/a	n/a
1156.828125	n/a	296148	largeHSmallH	correct	congruent	0.65625	no	H	H
1157.484375	n/a	296316	responseSmallH	correct	n/a	0.65625	no	n/a	n/a
1158.558594	n/a	296591	largeHSmallT	correct	incongruent	0.77344	no	H	T
1159.332031	n/a	296789	responseSmallT	correct	n/a	0.77344	no	n/a	n/a
1160.398438	n/a	297062	largeHSmallT	correct	incongruent	0.63281	no	H	T
1161.03125	n/a	297224	responseSmallT	correct	n/a	0.63281	no	n/a	n/a
1162.105469	n/a	297499	largeTSmallH	correct	incongruent	0.50781	no	T	H
1162.613281	n/a	297629	responseSmallH	correct	n/a	0.50781	no	n/a	n/a
1163.691406	n/a	297905	largeTSmallH	correct	incongruent	0.54688	no	T	H
1164.238281	n/a	298045	responseSmallH	correct	n/a	0.54688	no	n/a	n/a
1165.320312	n/a	298322	largeHSmallT	correct	incongruent	0.57031	no	H	T
1165.890625	n/a	298468	responseSmallT	correct	n/a	0.57031	no	n/a	n/a
1166.945312	n/a	298738	largeTSmallH	correct	incongruent	0.6875	no	T	H
1167.632812	n/a	298914	responseSmallH	correct	n/a	0.6875	no	n/a	n/a
1168.707031	n/a	299189	largeHSmallT	correct	incongruent	0.78906	no	H	T
1169.496094	n/a	299391	responseSmallT	correct	n/a	0.78906	no	n/a	n/a
1170.574219	n/a	299667	largeHSmallH	correct	congruent	0.50391	no	H	H
1171.078125	n/a	299796	responseSmallH	correct	n/a	0.50391	no	n/a	n/a
1172.144531	n/a	300069	largeHSmallT	correct	incongruent	0.61719	no	H	T
1172.761719	n/a	300227	responseSmallT	correct	n/a	0.61719	no	n/a	n/a
1173.839844	n/a	300503	largeHSmallT	correct	incongruent	0.65234	no	H	T
1174.492188	n/a	300670	responseSmallT	correct	n/a	0.65234	no	n/a	n/a
1175.558594	n/a	300943	largeTSmallH	correct	incongruent	0.58203	no	T	H
1176.140625	n/a	301092	responseSmallH	correct	n/a	0.58203	no	n/a	n/a
1177.214844	n/a	301367	largeTSmallT	correct	congruent	0.71484	no	T	T
1177.929688	n/a	301550	responseSmallT	correct	n/a	0.71484	no	n/a	n/a
1179	n/a	301824	largeTSmallT	error	congruent	0.73438	no	T	T
1179.734375	n/a	302012	responseSmallH	error	n/a	0.73438	no	n/a	n/a
1180.8125	n/a	302288	largeHSmallT	correct	incongruent	0.63281	no	H	T
1181.445312	n/a	302450	responseSmallT	correct	n/a	0.63281	no	n/a	n/a
1182.519531	n/a	302725	largeHSmallH	correct	congruent	0.47266	no	H	H
1182.992188	n/a	302846	responseSmallH	correct	n/a	0.47266	no	n/a	n/a
1184.066406	n/a	303121	largeHSmallH	correct	congruent	0.70312	no	H	H
1184.769531	n/a	303301	responseSmallH	correct	n/a	0.70312	no	n/a	n/a
1185.851562	n/a	303578	largeTSmallH	correct	incongruent	0.73828	no	T	H
1186.589844	n/a	303767	responseSmallH	correct	n/a	0.73828	no	n/a	n/a
1187.652344	n/a	304039	largeTSmallT	correct	congruent	0.62891	no	T	T
1188.28125	n/a	304200	responseSmallT	correct	n/a	0.62891	no	n/a	n/a
1189.359375	n/a	304476	largeHSmallT	correct	incongruent	0.63281	no	H	T
1189.992188	n/a	304638	responseSmallT	correct	n/a	0.63281	no	n/a	n/a
1191.066406	n/a	304913	largeHSmallH	correct	congruent	0.66406	no	H	H
1191.730469	n/a	305083	responseSmallH	correct	n/a	0.66406	no	n/a	n/a
1192.800781	n/a	305357	largeHSmallH	correct	congruent	2.4453	yes	H	H
1195.246094	n/a	305983	responseSmallH	correct	n/a	2.4453	yes	n/a	n/a
1196.320312	n/a	306258	largeHSmallH	correct	congruent	0.56641	no	H	H
1196.886719	n/a	306403	responseSmallH	correct	n/a	0.56641	no	n/a	n/a
1197.945312	n/a	306674	largeHSmallH	correct	congruent	2.2578	yes	H	H
1200.203125	n/a	307252	responseSmallH	correct	n/a	2.2578	yes	n/a	n/a
1201.277344	n/a	307527	largeHSmallH	correct	congruent	1.2461	no	H	H
1202.523438	n/a	307846	responseSmallH	correct	n/a	1.2461	no	n/a	n/a
1203.597656	n/a	308121	largeTSmallT	correct	congruent	0.57031	no	T	T
1204.167969	n/a	308267	responseSmallT	correct	n/a	0.57031	no	n/a	n/a
1205.238281	n/a	308541	largeTSmallT	correct	congruent	0.64453	no	T	T
1205.882812	n/a	308706	responseSmallT	correct	n/a	0.64453	no	n/a	n/a
1206.957031	n/a	308981	largeHSmallT	correct	incongruent	0.88672	no	H	T
1207.84375	n/a	309208	responseSmallT	correct	n/a	0.88672	no	n/a	n/a
1208.917969	n/a	309483	largeTSmallT	correct	congruent	0.90625	no	T	T
1209.824219	n/a	309715	responseSmallT	correct	n/a	0.90625	no	n/a	n/a
1210.90625	n/a	309992	largeHSmallT	correct	incongruent	1.793	yes	H	T
1212.699219	n/a	310451	responseSmallT	correct	n/a	1.793	yes	n/a	n/a
1213.773438	n/a	310726	largeTSmallT	correct	congruent	0.52734	no	T	T
1214.300781	n/a	310861	responseSmallT	correct	n/a	0.52734	no	n/a	n/a
1215.371094	n/a	311135	largeHSmallT	correct	incongruent	0.45703	no	H	T
1215.828125	n/a	311252	responseSmallT	correct	n/a	0.45703	no	n/a	n/a
1216.90625	n/a	311528	largeTSmallT	correct	congruent	0.63672	no	T	T
1217.542969	n/a	311691	responseSmallT	correct	n/a	0.63672	no	n/a	n/a
1218.613281	n/a	311965	largeHSmallT	correct	incongruent	0.60156	no	H	T
1219.214844	n/a	312119	responseSmallT	correct	n/a	0.60156	no	n/a	n/a
1220.292969	n/a	312395	largeHSmallT	correct	incongruent	0.86719	no	H	T
1221.160156	n/a	312617	responseSmallT	correct	n/a	0.86719	no	n/a	n/a
1222.226562	n/a	312890	largeHSmallH	correct	congruent	0.48047	no	H	H
1222.707031	n/a	313013	responseSmallH	correct	n/a	0.48047	no	n/a	n/a
1223.773438	n/a	313286	largeTSmallT	correct	congruent	0.51172	no	T	T
1224.285156	n/a	313417	responseSmallT	correct	n/a	0.51172	no	n/a	n/a
1225.359375	n/a	313692	largeHSmallH	correct	congruent	0.69531	no	H	H
1226.054688	n/a	313870	responseSmallH	correct	n/a	0.69531	no	n/a	n/a
1227.117188	n/a	314142	largeHSmallT	correct	incongruent	0.60938	no	H	T
1227.726562	n/a	314298	responseSmallT	correct	n/a	0.60938	no	n/a	n/a
1228.796875	n/a	314572	largeTSmallH	correct	incongruent	0.60938	no	T	H
1229.40625	n/a	314728	responseSmallH	correct	n/a	0.60938	no	n/a	n/a
1230.476562	n/a	315002	largeHSmallH	correct	congruent	0.58984	no	H	H
1231.066406	n/a	315153	responseSmallH	correct	n/a	0.58984	no	n/a	n/a
1232.132812	n/a	315426	largeTSmallH	correct	incongruent	0.82812	no	T	H
1232.960938	n/a	315638	responseSmallH	correct	n/a	0.82812	no	n/a	n/a
1234.039062	n/a	315914	largeTSmallH	correct	incongruent	0.63281	no	T	H
1234.671875	n/a	316076	responseSmallH	correct	n/a	0.63281	no	n/a	n/a
1235.746094	n/a	316351	largeHSmallH	correct	congruent	0.51562	no	H	H
1236.261719	n/a	316483	responseSmallH	correct	n/a	0.51562	no	n/a	n/a
1237.332031	n/a	316757	largeHSmallT	correct	incongruent	0.59766	no	H	T
1237.929688	n/a	316910	responseSmallT	correct	n/a	0.59766	no	n/a	n/a
1238.996094	n/a	317183	largeTSmallH	correct	incongruent	0.79688	no	T	H
1239.792969	n/a	317387	responseSmallH	correct	n/a	0.79688	no	n/a	n/a
1240.863281	n/a	317661	largeTSmallH	correct	incongruent	0.66797	no	T	H
1241.53125	n/a	317832	responseSmallH	correct	n/a	0.66797	no	n/a	n/a
1242.597656	n/a	318105	largeTSmallT	correct	congruent	0.83203	no	T	T
1243.429688	n/a	318318	responseSmallT	correct	n/a	0.83203	no	n/a	n/a
1244.503906	n/a	318593	largeHSmallT	correct	incongruent	0.64844	no	H	T
1245.152344	n/a	318759	responseSmallT	correct	n/a	0.64844	no	n/a	n/a
1246.222656	n/a	319033	largeHSmallH	correct	congruent	0.64844	no	H	H
1246.871094	n/a	319199	responseSmallH	correct	n/a	0.64844	no	n/a	n/a
1247.945312	n/a	319474	largeTSmallT	correct	congruent	0.59766	no	T	T
1248.542969	n/a	319627	responseSmallT	correct	n/a	0.59766	no	n/a	n/a
1249.625	n/a	319904	largeHSmallT	correct	incongruent	0.97266	no	H	T
1250.597656	n/a	320153	responseSmallT	correct	n/a	0.97266	no	n/a	n/a
1251.664062	n/a	320426	largeHSmallT	correct	incongruent	0.61719	no	H	T
1252.28125	n/a	320584	responseSmallT	correct	n/a	0.61719	no	n/a	n/a
1253.34375	n/a	320856	largeTSmallT	correct	congruent	0.57812	no	T	T
1253.921875	n/a	321004	responseSmallT	correct	n/a	0.57812	no	n/a	n/a
1254.996094	n/a	321279	largeHSmallT	correct	incongruent	0.53516	no	H	T
1255.53125	n/a	321416	responseSmallT	correct	n/a	0.53516	no	n/a	n/a
1256.609375	n/a	321692	largeHSmallH	correct	congruent	0.60938	no	H	H
1257.21875	n/a	321848	responseSmallH	correct	n/a	0.60938	no	n/a	n/a
1258.289062	n/a	322122	largeTSmallH	correct	incongruent	0.80859	no	T	H
1259.097656	n/a	322329	responseSmallH	correct	n/a	0.80859	no	n/a	n/a
1260.171875	n/a	322604	largeTSmallH	correct	incongruent	0.60156	no	T	H
1260.773438	n/a	322758	responseSmallH	correct	n/a	0.60156	no	n/a	n/a
1261.851562	n/a	323034	largeHSmallT	error	incongruent	0.56641	no	H	T
1262.417969	n/a	323179	responseSmallH	error	n/a	0.56641	no	n/a	n/a
1263.492188	n/a	323454	largeTSmallH	correct	incongruent	0.70703	no	T	H
1264.199219	n/a	323635	responseSmallH	correct	n/a	0.70703	no	n/a	n/a
1265.265625	n/a	323908	largeTSmallT	correct	congruent	0.63281	no	T	T
1265.898438	n/a	324070	responseSmallT	correct	n/a	0.63281	no	n/a	n/a
1266.96875	n/a	324344	largeTSmallH	correct	incongruent	0.83984	no	T	H
1267.808594	n/a	324559	responseSmallH	correct	n/a	0.83984	no	n/a	n/a
1268.890625	n/a	324836	largeHSmallH	correct	congruent	0.57422	no	H	H
1269.464844	n/a	324983	responseSmallH	correct	n/a	0.57422	no	n/a	n/a
1270.542969	n/a	325259	largeTSmallH	correct	incongruent	0.52344	no	T	H
1271.066406	n/a	325393	responseSmallH	correct	n/a	0.52344	no	n/a	n/a
1272.144531	n/a	325669	largeTSmallH	correct	incongruent	1.0547	no	T	H
1273.199219	n/a	325939	responseSmallH	correct	n/a	1.0547	no	n/a	n/a
1274.261719	n/a	326211	largeTSmallH	correct	incongruent	0.57422	no	T	H
1274.835938	n/a	326358	responseSmallH	correct	n/a	0.57422	no	n/a	n/a
1275.902344	n/a	326631	largeHSmallT	correct	incongruent	0.60156	no	H	T
1276.503906	n/a	326785	responseSmallT	correct	n/a	0.60156	no	n/a	n/a
1277.570312	n/a	327058	largeHSmallT	correct	incongruent	0.67969	no	H	T
1278.25	n/a	327232	responseSmallT	correct	n/a	0.67969	no	n/a	n/a
1279.316406	n/a	327505	largeTSmallT	correct	congruent	0.86328	no	T	T
1280.179688	n/a	327726	responseSmallT	correct	n/a	0.86328	no	n/a	n/a
1281.25	n/a	328000	largeTSmallH	correct	incongruent	0.60938	no	T	H
1281.859375	n/a	328156	responseSmallH	correct	n/a	0.60938	no	n/a	n/a
1282.929688	n/a	328430	largeTSmallH	correct	incongruent	0.55469	no	T	H
1283.484375	n/a	328572	responseSmallH	correct	n/a	0.55469	no	n/a	n/a
1284.558594	n/a	328847	largeHSmallH	correct	congruent	0.54297	no	H	H
1285.101562	n/a	328986	responseSmallH	correct	n/a	0.54297	no	n/a	n/a
1286.171875	n/a	329260	largeHSmallT	correct	incongruent	1.0508	no	H	T
1287.222656	n/a	329529	responseSmallT	correct	n/a	1.0508	no	n/a	n/a
1288.289062	n/a	329802	largeHSmallH	correct	congruent	0.75391	no	H	H
1289.042969	n/a	329995	responseSmallH	correct	n/a	0.75391	no	n/a	n/a
1290.117188	n/a	330270	largeHSmallH	correct	congruent	0.48047	no	H	H
1290.597656	n/a	330393	responseSmallH	correct	n/a	0.48047	no	n/a	n/a
1291.675781	n/a	330669	largeHSmallT	correct	incongruent	0.59375	no	H	T
1292.269531	n/a	330821	responseSmallT	correct	n/a	0.59375	no	n/a	n/a
1293.34375	n/a	331096	largeTSmallH	correct	incongruent	0.55859	no	T	H
1293.902344	n/a	331239	responseSmallH	correct	n/a	0.55859	no	n/a	n/a
1294.96875	n/a	331512	largeTSmallT	correct	congruent	0.64453	no	T	T
1295.613281	n/a	331677	responseSmallT	correct	n/a	0.64453	no	n/a	n/a
1296.691406	n/a	331953	largeHSmallH	correct	congruent	0.42969	no	H	H
1297.121094	n/a	332063	responseSmallH	correct	n/a	0.42969	no	n/a	n/a
1298.195312	n/a	332338	largeTSmallH	correct	incongruent	0.52344	no	T	H
1298.71875	n/a	332472	responseSmallH	correct	n/a	0.52344	no	n/a	n/a
1299.78125	n/a	332744	largeHSmallH	correct	congruent	0.54297	no	H	H
1300.324219	n/a	332883	responseSmallH	correct	n/a	0.54297	no	n/a	n/a
1301.394531	n/a	333157	largeHSmallH	correct	congruent	0.70312	no	H	H
1302.097656	n/a	333337	responseSmallH	correct	n/a	0.70312	no	n/a	n/a
1303.167969	n/a	333611	largeTSmallT	correct	congruent	0.57031	no	T	T
1303.738281	n/a	333757	responseSmallT	correct	n/a	0.57031	no	n/a	n/a
1304.808594	n/a	334031	largeHSmallH	correct	congruent	0.52734	no	H	H
1305.335938	n/a	334166	responseSmallH	correct	n/a	0.52734	no	n/a	n/a
1306.394531	n/a	334437	largeTSmallT	correct	congruent	0.52344	no	T	T
1306.917969	n/a	334571	responseSmallT	correct	n/a	0.52344	no	n/a	n/a
1307.996094	n/a	334847	largeTSmallT	error	congruent	0.55859	no	T	T
1308.554688	n/a	334990	responseSmallH	error	n/a	0.55859	no	n/a	n/a
1309.636719	n/a	335267	largeTSmallH	correct	incongruent	0.50781	no	T	H
1310.144531	n/a	335397	responseSmallH	correct	n/a	0.50781	no	n/a	n/a
1311.210938	n/a	335670	largeTSmallT	correct	congruent	0.60547	no	T	T
1311.816406	n/a	335825	responseSmallT	correct	n/a	0.60547	no	n/a	n/a
1312.890625	n/a	336100	largeHSmallT	correct	incongruent	0.57812	no	H	T
1313.46875	n/a	336248	responseSmallT	correct	n/a	0.57812	no	n/a	n/a
1314.542969	n/a	336523	largeTSmallH	correct	incongruent	0.69531	no	T	H
1315.238281	n/a	336701	responseSmallH	correct	n/a	0.69531	no	n/a	n/a
1316.304688	n/a	336974	largeTSmallH	correct	incongruent	0.58203	no	T	H
1316.886719	n/a	337123	responseSmallH	correct	n/a	0.58203	no	n/a	n/a
1317.957031	n/a	337397	largeTSmallT	correct	congruent	0.54688	no	T	T
1318.503906	n/a	337537	responseSmallT	correct	n/a	0.54688	no	n/a	n/a
1319.570312	n/a	337810	largeHSmallH	correct	congruent	0.55469	no	H	H
1320.125	n/a	337952	responseSmallH	correct	n/a	0.55469	no	n/a	n/a
1321.195312	n/a	338226	largeHSmallH	correct	congruent	0.62109	no	H	H
1321.816406	n/a	338385	responseSmallH	correct	n/a	0.62109	no	n/a	n/a
1322.890625	n/a	338660	largeHSmallH	correct	congruent	0.61719	no	H	H
1323.507812	n/a	338818	responseSmallH	correct	n/a	0.61719	no	n/a	n/a
1324.570312	n/a	339090	largeTSmallH	correct	incongruent	0.8125	no	T	H
1325.382812	n/a	339298	responseSmallH	correct	n/a	0.8125	no	n/a	n/a
1326.449219	n/a	339571	largeHSmallT	correct	incongruent	0.78906	no	H	T
1327.238281	n/a	339773	responseSmallT	correct	n/a	0.78906	no	n/a	n/a
1328.300781	n/a	340045	largeTSmallT	correct	congruent	0.73047	no	T	T
1329.03125	n/a	340232	responseSmallT	correct	n/a	0.73047	no	n/a	n/a
1330.101562	n/a	340506	largeHSmallT	correct	incongruent	0.72266	no	H	T
1330.824219	n/a	340691	responseSmallT	correct	n/a	0.72266	no	n/a	n/a
1331.890625	n/a	340964	largeTSmallT	correct	congruent	0.75	no	T	T
1332.640625	n/a	341156	responseSmallT	correct	n/a	0.75	no	n/a	n/a
1333.714844	n/a	341431	largeHSmallT	correct	incongruent	0.84766	no	H	T
1334.5625	n/a	341648	responseSmallT	correct	n/a	0.84766	no	n/a	n/a
1335.636719	n/a	341923	largeHSmallH	correct	congruent	0.95312	no	H	H
1336.589844	n/a	342167	responseSmallH	correct	n/a	0.95312	no	n/a	n/a
1337.664062	n/a	342442	largeHSmallT	correct	incongruent	0.78125	no	H	T
1338.445312	n/a	342642	responseSmallT	correct	n/a	0.78125	no	n/a	n/a
1339.515625	n/a	342916	largeTSmallH	correct	incongruent	0.71875	no	T	H
1340.234375	n/a	343100	responseSmallH	correct	n/a	0.71875	no	n/a	n/a
1341.300781	n/a	343373	largeHSmallH	correct	congruent	0.59766	no	H	H
1341.898438	n/a	343526	responseSmallH	correct	n/a	0.59766	no	n/a	n/a
1342.96875	n/a	343800	largeHSmallT	error	incongruent	0.77734	no	H	T
1343.746094	n/a	343999	responseSmallH	error	n/a	0.77734	no	n/a	n/a
1344.808594	n/a	344271	largeHSmallH	correct	congruent	0.94141	no	H	H
1345.75	n/a	344512	responseSmallH	correct	n/a	0.94141	no	n/a	n/a
1346.820312	n/a	344786	largeTSmallH	correct	incongruent	0.80469	no	T	H
1347.625	n/a	344992	responseSmallH	correct	n/a	0.80469	no	n/a	n/a
1348.703125	n/a	345268	largeHSmallH	correct	congruent	0.74609	no	H	H
1349.449219	n/a	345459	responseSmallH	correct	n/a	0.74609	no	n/a	n/a
1350.515625	n/a	345732	largeHSmallT	correct	incongruent	1.5195	yes	H	T
1352.035156	n/a	346121	responseSmallT	correct	n/a	1.5195	yes	n/a	n/a
1353.101562	n/a	346394	largeTSmallT	correct	congruent	1.375	no	T	T
1354.476562	n/a	346746	responseSmallT	correct	n/a	1.375	no	n/a	n/a
1355.542969	n/a	347019	largeHSmallT	correct	incongruent	0.85547	no	H	T
1356.398438	n/a	347238	responseSmallT	correct	n/a	0.85547	no	n/a	n/a
1357.476562	n/a	347514	largeHSmallT	error	incongruent	1.0898	no	H	T
1358.566406	n/a	347793	responseSmallH	error	n/a	1.0898	no	n/a	n/a
