onset	duration	sample	value	response_type	congruence	response_time	response_out_of_range	largeletter	smallletter
26.12402344	n/a	6687.75	largeHSmallT	correct	incongruent	0.61816	no	H	T
26.7421875	n/a	6846	responseLargeH	correct	n/a	0.61816	no	n/a	n/a
27.81494141	n/a	7120.625	largeTSmallT	correct	congruent	0.52686	no	T	T
28.34179688	n/a	7255.5	responseLargeT	correct	n/a	0.52686	no	n/a	n/a
29.40136719	n/a	7526.75	largeTSmallH	correct	incongruent	0.60254	no	T	H
30.00390625	n/a	7681	responseLargeT	correct	n/a	0.60254	no	n/a	n/a
31.06787109	n/a	7953.375	largeHSmallT	correct	incongruent	0.66309	no	H	T
31.73095703	n/a	8123.125	responseLargeH	correct	n/a	0.66309	no	n/a	n/a
32.80126953	n/a	8397.125	largeTSmallH	correct	incongruent	0.46143	no	T	H
33.26269531	n/a	8515.25	responseLargeT	correct	n/a	0.46143	no	n/a	n/a
34.33447266	n/a	8789.625	largeHSmallT	correct	incongruent	0.42529	no	H	T
34.75976562	n/a	8898.5	responseLargeH	correct	n/a	0.42529	no	n/a	n/a
35.828125	n/a	9172	largeTSmallT	correct	congruent	0.42969	no	T	T
36.2578125	n/a	9282	responseLargeT	correct	n/a	0.42969	no	n/a	n/a
37.33496094	n/a	9557.75	largeHSmallH	correct	congruent	0.35645	no	H	H
37.69140625	n/a	9649	responseLargeH	correct	n/a	0.35645	no	n/a	n/a
38.76123047	n/a	9922.875	largeHSmallH	correct	congruent	0.45801	no	H	H
39.21923828	n/a	10040.125	responseLargeH	correct	n/a	0.45801	no	n/a	n/a
40.29443359	n/a	10315.375	largeHSmallT	correct	incongruent	0.38037	no	H	T
40.67480469	n/a	10412.75	responseLargeH	correct	n/a	0.38037	no	n/a	n/a
41.74755859	n/a	10687.375	largeTSmallT	correct	congruent	0.46484	no	T	T
42.21240234	n/a	10806.375	responseLargeT	correct	n/a	0.46484	no	n/a	n/a
43.28125	n/a	11080	largeTSmallT	correct	congruent	0.45557	no	T	T
43.73681641	n/a	11196.625	responseLargeT	correct	n/a	0.45557	no	n/a	n/a
44.80126953	n/a	11469.125	largeHSmallT	correct	incongruent	0.37402	no	H	T
45.17529297	n/a	11564.875	responseLargeH	correct	n/a	0.37402	no	n/a	n/a
46.24121094	n/a	11837.75	largeHSmallH	error	congruent	0.41748	no	H	H
46.65869141	n/a	11944.625	responseLargeT	error	n/a	0.41748	no	n/a	n/a
47.72119141	n/a	12216.625	largeTSmallH	correct	incongruent	0.57031	no	T	H
48.29150391	n/a	12362.625	responseLargeT	correct	n/a	0.57031	no	n/a	n/a
49.36083984	n/a	12636.375	largeHSmallH	correct	congruent	0.47559	no	H	H
49.83642578	n/a	12758.125	responseLargeH	correct	n/a	0.47559	no	n/a	n/a
50.90771484	n/a	13032.375	largeTSmallT	correct	congruent	0.47656	no	T	T
51.38427734	n/a	13154.375	responseLargeT	correct	n/a	0.47656	no	n/a	n/a
52.44091797	n/a	13424.875	largeTSmallH	correct	incongruent	0.46826	no	T	H
52.90917969	n/a	13544.75	responseLargeT	correct	n/a	0.46826	no	n/a	n/a
53.97412109	n/a	13817.375	largeHSmallT	correct	incongruent	0.3999	no	H	T
54.37402344	n/a	13919.75	responseLargeH	correct	n/a	0.3999	no	n/a	n/a
55.44091797	n/a	14192.875	largeHSmallT	correct	incongruent	0.3833	no	H	T
55.82421875	n/a	14291	responseLargeH	correct	n/a	0.3833	no	n/a	n/a
56.89404297	n/a	14564.875	largeTSmallT	correct	congruent	0.4541	no	T	T
57.34814453	n/a	14681.125	responseLargeT	correct	n/a	0.4541	no	n/a	n/a
58.42724609	n/a	14957.375	largeTSmallT	correct	congruent	0.40234	no	T	T
58.82958984	n/a	15060.375	responseLargeT	correct	n/a	0.40234	no	n/a	n/a
59.90771484	n/a	15336.375	largeTSmallT	correct	congruent	0.4043	no	T	T
60.31201172	n/a	15439.875	responseLargeT	correct	n/a	0.4043	no	n/a	n/a
61.38720703	n/a	15715.125	largeTSmallH	correct	incongruent	0.37598	no	T	H
61.76318359	n/a	15811.375	responseLargeT	correct	n/a	0.37598	no	n/a	n/a
62.84082031	n/a	16087.25	largeTSmallT	correct	congruent	0.47852	no	T	T
63.31933594	n/a	16209.75	responseLargeT	correct	n/a	0.47852	no	n/a	n/a
64.38720703	n/a	16483.125	largeTSmallH	correct	incongruent	0.51465	no	T	H
64.90185547	n/a	16614.875	responseLargeT	correct	n/a	0.51465	no	n/a	n/a
65.97412109	n/a	16889.375	largeTSmallH	correct	incongruent	0.42773	no	T	H
66.40185547	n/a	16998.875	responseLargeT	correct	n/a	0.42773	no	n/a	n/a
67.46728516	n/a	17271.625	largeHSmallH	correct	congruent	0.54346	no	H	H
68.01074219	n/a	17410.75	responseLargeH	correct	n/a	0.54346	no	n/a	n/a
69.08056641	n/a	17684.625	largeTSmallH	correct	incongruent	0.67432	no	T	H
69.75488281	n/a	17857.25	responseLargeT	correct	n/a	0.67432	no	n/a	n/a
70.82714844	n/a	18131.75	largeTSmallH	correct	incongruent	0.6543	no	T	H
71.48144531	n/a	18299.25	responseLargeT	correct	n/a	0.6543	no	n/a	n/a
72.56054688	n/a	18575.5	largeTSmallH	correct	incongruent	0.40234	no	T	H
72.96289062	n/a	18678.5	responseLargeT	correct	n/a	0.40234	no	n/a	n/a
74.04052734	n/a	18954.375	largeTSmallT	correct	congruent	0.40283	no	T	T
74.44335938	n/a	19057.5	responseLargeT	correct	n/a	0.40283	no	n/a	n/a
75.50683594	n/a	19329.75	largeHSmallH	correct	congruent	0.46973	no	H	H
75.9765625	n/a	19450	responseLargeH	correct	n/a	0.46973	no	n/a	n/a
77.05371094	n/a	19725.75	largeHSmallT	correct	incongruent	0.43506	no	H	T
77.48876953	n/a	19837.125	responseLargeH	correct	n/a	0.43506	no	n/a	n/a
78.56054688	n/a	20111.5	largeTSmallH	correct	incongruent	0.42041	no	T	H
78.98095703	n/a	20219.125	responseLargeT	correct	n/a	0.42041	no	n/a	n/a
80.04003906	n/a	20490.25	largeTSmallH	correct	incongruent	0.44629	no	T	H
80.48632812	n/a	20604.5	responseLargeT	correct	n/a	0.44629	no	n/a	n/a
81.56005859	n/a	20879.375	largeTSmallH	correct	incongruent	0.39355	no	T	H
81.95361328	n/a	20980.125	responseLargeT	correct	n/a	0.39355	no	n/a	n/a
83.02685547	n/a	21254.875	largeHSmallH	correct	congruent	0.5083	no	H	H
83.53515625	n/a	21385	responseLargeH	correct	n/a	0.5083	no	n/a	n/a
84.60009766	n/a	21657.625	largeHSmallT	correct	incongruent	0.48633	no	H	T
85.08642578	n/a	21782.125	responseLargeH	correct	n/a	0.48633	no	n/a	n/a
86.16015625	n/a	22057	largeTSmallH	correct	incongruent	0.51611	no	T	H
86.67626953	n/a	22189.125	responseLargeT	correct	n/a	0.51611	no	n/a	n/a
87.74658203	n/a	22463.125	largeTSmallH	correct	incongruent	0.5376	no	T	H
88.28417969	n/a	22600.75	responseLargeT	correct	n/a	0.5376	no	n/a	n/a
89.35986328	n/a	22876.125	largeTSmallH	correct	incongruent	0.48291	no	T	H
89.84277344	n/a	22999.75	responseLargeT	correct	n/a	0.48291	no	n/a	n/a
90.91992188	n/a	23275.5	largeTSmallH	correct	incongruent	0.42627	no	T	H
91.34619141	n/a	23384.625	responseLargeT	correct	n/a	0.42627	no	n/a	n/a
92.41357422	n/a	23657.875	largeHSmallT	correct	incongruent	0.35352	no	H	T
92.76708984	n/a	23748.375	responseLargeH	correct	n/a	0.35352	no	n/a	n/a
93.83984375	n/a	24023	largeTSmallH	correct	incongruent	0.44336	no	T	H
94.28320312	n/a	24136.5	responseLargeT	correct	n/a	0.44336	no	n/a	n/a
95.34667969	n/a	24408.75	largeHSmallH	correct	congruent	0.43018	no	H	H
95.77685547	n/a	24518.875	responseLargeH	correct	n/a	0.43018	no	n/a	n/a
96.83984375	n/a	24791	largeHSmallH	correct	congruent	0.38623	no	H	H
97.22607422	n/a	24889.875	responseLargeH	correct	n/a	0.38623	no	n/a	n/a
98.29296875	n/a	25163	largeHSmallT	correct	incongruent	0.32666	no	H	T
98.61962891	n/a	25246.625	responseLargeH	correct	n/a	0.32666	no	n/a	n/a
99.6796875	n/a	25518	largeTSmallT	correct	congruent	0.35352	no	T	T
100.0332031	n/a	25608.5	responseLargeT	correct	n/a	0.35352	no	n/a	n/a
101.1064453	n/a	25883.25	largeTSmallH	correct	incongruent	0.43604	no	T	H
101.5424805	n/a	25994.875	responseLargeT	correct	n/a	0.43604	no	n/a	n/a
102.6132812	n/a	26269	largeTSmallT	correct	congruent	0.32471	no	T	T
102.9379883	n/a	26352.125	responseLargeT	correct	n/a	0.32471	no	n/a	n/a
104	n/a	26624	largeTSmallH	correct	incongruent	0.43848	no	T	H
104.4384766	n/a	26736.25	responseLargeT	correct	n/a	0.43848	no	n/a	n/a
105.5063477	n/a	27009.625	largeTSmallH	correct	incongruent	0.4126	no	T	H
105.9189453	n/a	27115.25	responseLargeT	correct	n/a	0.4126	no	n/a	n/a
106.9863281	n/a	27388.5	largeTSmallH	correct	incongruent	0.44824	no	T	H
107.4345703	n/a	27503.25	responseLargeT	correct	n/a	0.44824	no	n/a	n/a
108.4926758	n/a	27774.125	largeTSmallH	correct	incongruent	0.48145	no	T	H
108.9741211	n/a	27897.375	responseLargeT	correct	n/a	0.48145	no	n/a	n/a
110.0395508	n/a	28170.125	largeHSmallT	correct	incongruent	0.46582	no	H	T
110.5053711	n/a	28289.375	responseLargeH	correct	n/a	0.46582	no	n/a	n/a
111.5727539	n/a	28562.625	largeHSmallT	correct	incongruent	0.41357	no	H	T
111.9863281	n/a	28668.5	responseLargeH	correct	n/a	0.41357	no	n/a	n/a
113.0527344	n/a	28941.5	largeHSmallH	correct	congruent	0.46484	no	H	H
113.5175781	n/a	29060.5	responseLargeH	correct	n/a	0.46484	no	n/a	n/a
114.5859375	n/a	29334	largeTSmallT	correct	congruent	0.46143	no	T	T
115.0473633	n/a	29452.125	responseLargeT	correct	n/a	0.46143	no	n/a	n/a
116.105957	n/a	29723.125	largeTSmallH	error	incongruent	0.46533	no	T	H
116.5712891	n/a	29842.25	responseLargeH	error	n/a	0.46533	no	n/a	n/a
117.6391602	n/a	30115.625	largeTSmallH	correct	incongruent	0.49951	no	T	H
118.1386719	n/a	30243.5	responseLargeT	correct	n/a	0.49951	no	n/a	n/a
119.1992188	n/a	30515	largeHSmallH	correct	congruent	0.40527	no	H	H
119.6044922	n/a	30618.75	responseLargeH	correct	n/a	0.40527	no	n/a	n/a
120.6660156	n/a	30890.5	largeHSmallT	correct	incongruent	0.46924	no	H	T
121.1352539	n/a	31010.625	responseLargeH	correct	n/a	0.46924	no	n/a	n/a
122.2124023	n/a	31286.375	largeHSmallT	correct	incongruent	0.42578	no	H	T
122.6381836	n/a	31395.375	responseLargeH	correct	n/a	0.42578	no	n/a	n/a
123.7060547	n/a	31668.75	largeTSmallT	correct	congruent	0.53076	no	T	T
124.2368164	n/a	31804.625	responseLargeT	correct	n/a	0.53076	no	n/a	n/a
125.3056641	n/a	32078.25	largeTSmallT	correct	congruent	0.39795	no	T	T
125.7036133	n/a	32180.125	responseLargeT	correct	n/a	0.39795	no	n/a	n/a
126.7592773	n/a	32450.375	largeHSmallT	correct	incongruent	0.53711	no	H	T
127.2963867	n/a	32587.875	responseLargeH	correct	n/a	0.53711	no	n/a	n/a
128.3588867	n/a	32859.875	largeTSmallH	correct	incongruent	0.40234	no	T	H
128.7612305	n/a	32962.875	responseLargeT	correct	n/a	0.40234	no	n/a	n/a
129.8256836	n/a	33235.375	largeHSmallH	correct	congruent	0.49951	no	H	H
130.3251953	n/a	33363.25	responseLargeH	correct	n/a	0.49951	no	n/a	n/a
131.3989258	n/a	33638.125	largeHSmallT	correct	incongruent	0.65674	no	H	T
132.0556641	n/a	33806.25	responseLargeH	correct	n/a	0.65674	no	n/a	n/a
133.1323242	n/a	34081.875	largeHSmallT	correct	incongruent	0.45312	no	H	T
133.5854492	n/a	34197.875	responseLargeH	correct	n/a	0.45312	no	n/a	n/a
134.6523438	n/a	34471	largeTSmallT	correct	congruent	0.50342	no	T	T
135.1557617	n/a	34599.875	responseLargeT	correct	n/a	0.50342	no	n/a	n/a
136.2255859	n/a	34873.75	largeTSmallT	correct	congruent	0.47314	no	T	T
136.6987305	n/a	34994.875	responseLargeT	correct	n/a	0.47314	no	n/a	n/a
137.7587891	n/a	35266.25	largeHSmallH	correct	congruent	0.41162	no	H	H
138.1704102	n/a	35371.625	responseLargeH	correct	n/a	0.41162	no	n/a	n/a
139.2387695	n/a	35645.125	largeTSmallH	correct	incongruent	0.49268	no	T	H
139.7314453	n/a	35771.25	responseLargeT	correct	n/a	0.49268	no	n/a	n/a
140.7988281	n/a	36044.5	largeTSmallT	correct	congruent	0.55957	no	T	T
141.3583984	n/a	36187.75	responseLargeT	correct	n/a	0.55957	no	n/a	n/a
142.425293	n/a	36460.875	largeTSmallT	correct	congruent	0.4668	no	T	T
142.8920898	n/a	36580.375	responseLargeT	correct	n/a	0.4668	no	n/a	n/a
143.9589844	n/a	36853.5	largeTSmallT	correct	congruent	0.37646	no	T	T
144.3354492	n/a	36949.875	responseLargeT	correct	n/a	0.37646	no	n/a	n/a
145.4121094	n/a	37225.5	largeTSmallT	correct	congruent	0.48633	no	T	T
145.8984375	n/a	37350	responseLargeT	correct	n/a	0.48633	no	n/a	n/a
146.972168	n/a	37624.875	largeHSmallT	correct	incongruent	0.42188	no	H	T
147.394043	n/a	37732.875	responseLargeH	correct	n/a	0.42188	no	n/a	n/a
148.465332	n/a	38007.125	largeTSmallT	correct	congruent	0.42822	no	T	T
148.8935547	n/a	38116.75	responseLargeT	correct	n/a	0.42822	no	n/a	n/a
149.9589844	n/a	38389.5	largeTSmallT	correct	congruent	0.39014	no	T	T
150.3491211	n/a	38489.375	responseLargeT	correct	n/a	0.39014	no	n/a	n/a
151.4121094	n/a	38761.5	largeTSmallT	correct	congruent	0.41309	no	T	T
151.8251953	n/a	38867.25	responseLargeT	correct	n/a	0.41309	no	n/a	n/a
152.8920898	n/a	39140.375	largeHSmallH	correct	congruent	0.39355	no	H	H
153.2856445	n/a	39241.125	responseLargeH	correct	n/a	0.39355	no	n/a	n/a
154.3452148	n/a	39512.375	largeHSmallH	correct	congruent	0.37939	no	H	H
154.7246094	n/a	39609.5	responseLargeH	correct	n/a	0.37939	no	n/a	n/a
155.7988281	n/a	39884.5	largeTSmallH	correct	incongruent	0.41797	no	T	H
156.2167969	n/a	39991.5	responseLargeT	correct	n/a	0.41797	no	n/a	n/a
157.2783203	n/a	40263.25	largeHSmallT	correct	incongruent	0.40723	no	H	T
157.6855469	n/a	40367.5	responseLargeH	correct	n/a	0.40723	no	n/a	n/a
158.7583008	n/a	40642.125	largeHSmallH	correct	congruent	0.39893	no	H	H
159.1572266	n/a	40744.25	responseLargeH	correct	n/a	0.39893	no	n/a	n/a
160.2250977	n/a	41017.625	largeHSmallT	correct	incongruent	0.41406	no	H	T
160.6391602	n/a	41123.625	responseLargeH	correct	n/a	0.41406	no	n/a	n/a
161.7050781	n/a	41396.5	largeHSmallH	correct	congruent	0.3877	no	H	H
162.0927734	n/a	41495.75	responseLargeH	correct	n/a	0.3877	no	n/a	n/a
163.1586914	n/a	41768.625	largeTSmallT	correct	congruent	0.45898	no	T	T
163.6176758	n/a	41886.125	responseLargeT	correct	n/a	0.45898	no	n/a	n/a
164.6918945	n/a	42161.125	largeHSmallT	correct	incongruent	0.43066	no	H	T
165.1225586	n/a	42271.375	responseLargeH	correct	n/a	0.43066	no	n/a	n/a
166.1850586	n/a	42543.375	largeHSmallH	correct	congruent	0.35547	no	H	H
166.5405273	n/a	42634.375	responseLargeH	correct	n/a	0.35547	no	n/a	n/a
167.6118164	n/a	42908.625	largeHSmallT	correct	incongruent	0.37695	no	H	T
167.9887695	n/a	43005.125	responseLargeH	correct	n/a	0.37695	no	n/a	n/a
169.0512695	n/a	43277.125	largeHSmallH	correct	congruent	0.40625	no	H	H
169.4575195	n/a	43381.125	responseLargeH	correct	n/a	0.40625	no	n/a	n/a
170.5180664	n/a	43652.625	largeHSmallH	correct	congruent	0.36035	no	H	H
170.878418	n/a	43744.875	responseLargeH	correct	n/a	0.36035	no	n/a	n/a
171.9448242	n/a	44017.875	largeTSmallT	correct	congruent	0.36182	no	T	T
172.3066406	n/a	44110.5	responseLargeT	correct	n/a	0.36182	no	n/a	n/a
173.371582	n/a	44383.125	largeHSmallT	correct	incongruent	0.35791	no	H	T
173.7294922	n/a	44474.75	responseLargeH	correct	n/a	0.35791	no	n/a	n/a
174.7983398	n/a	44748.375	largeTSmallT	correct	congruent	0.5083	no	T	T
175.3066406	n/a	44878.5	responseLargeT	correct	n/a	0.5083	no	n/a	n/a
176.371582	n/a	45151.125	largeTSmallT	correct	congruent	0.49365	no	T	T
176.8652344	n/a	45277.5	responseLargeT	correct	n/a	0.49365	no	n/a	n/a
177.9311523	n/a	45550.375	largeTSmallH	correct	incongruent	0.44238	no	T	H
178.3735352	n/a	45663.625	responseLargeT	correct	n/a	0.44238	no	n/a	n/a
179.4511719	n/a	45939.5	largeHSmallH	correct	congruent	0.36182	no	H	H
179.8129883	n/a	46032.125	responseLargeH	correct	n/a	0.36182	no	n/a	n/a
180.8779297	n/a	46304.75	largeTSmallT	correct	congruent	0.36035	no	T	T
181.2382812	n/a	46397	responseLargeT	correct	n/a	0.36035	no	n/a	n/a
182.3046875	n/a	46670	largeHSmallT	correct	incongruent	0.37109	no	H	T
182.6757812	n/a	46765	responseLargeH	correct	n/a	0.37109	no	n/a	n/a
183.7314453	n/a	47035.25	largeHSmallH	correct	congruent	0.37256	no	H	H
184.1040039	n/a	47130.625	responseLargeH	correct	n/a	0.37256	no	n/a	n/a
185.1713867	n/a	47403.875	largeTSmallH	correct	incongruent	0.42822	no	T	H
185.5996094	n/a	47513.5	responseLargeT	correct	n/a	0.42822	no	n/a	n/a
186.6645508	n/a	47786.125	largeTSmallT	correct	congruent	0.37451	no	T	T
187.0390625	n/a	47882	responseLargeT	correct	n/a	0.37451	no	n/a	n/a
188.1044922	n/a	48154.75	largeHSmallT	correct	incongruent	0.36768	no	H	T
188.472168	n/a	48248.875	responseLargeH	correct	n/a	0.36768	no	n/a	n/a
189.5444336	n/a	48523.375	largeHSmallT	correct	incongruent	0.37598	no	H	T
189.9204102	n/a	48619.625	responseLargeH	correct	n/a	0.37598	no	n/a	n/a
190.9980469	n/a	48895.5	largeHSmallT	correct	incongruent	0.42578	no	H	T
191.4238281	n/a	49004.5	responseLargeH	correct	n/a	0.42578	no	n/a	n/a
192.4912109	n/a	49277.75	largeTSmallT	correct	congruent	0.44336	no	T	T
192.9345703	n/a	49391.25	responseLargeT	correct	n/a	0.44336	no	n/a	n/a
193.9975586	n/a	49663.375	largeHSmallH	correct	congruent	0.39697	no	H	H
194.3945312	n/a	49765	responseLargeH	correct	n/a	0.39697	no	n/a	n/a
195.4643555	n/a	50038.875	largeTSmallT	correct	congruent	0.37109	no	T	T
195.8354492	n/a	50133.875	responseLargeT	correct	n/a	0.37109	no	n/a	n/a
196.9042969	n/a	50407.5	largeTSmallT	correct	congruent	0.53564	no	T	T
197.4399414	n/a	50544.625	responseLargeT	correct	n/a	0.53564	no	n/a	n/a
198.5043945	n/a	50817.125	largeTSmallT	correct	congruent	0.45166	no	T	T
198.9560547	n/a	50932.75	responseLargeT	correct	n/a	0.45166	no	n/a	n/a
200.0244141	n/a	51206.25	largeTSmallH	error	incongruent	0.43994	no	T	H
200.4643555	n/a	51318.875	responseLargeH	error	n/a	0.43994	no	n/a	n/a
201.53125	n/a	51592	largeHSmallT	correct	incongruent	0.45117	no	H	T
201.9824219	n/a	51707.5	responseLargeH	correct	n/a	0.45117	no	n/a	n/a
203.0507812	n/a	51981	largeHSmallT	correct	incongruent	0.50781	no	H	T
203.5585938	n/a	52111	responseLargeH	correct	n/a	0.50781	no	n/a	n/a
204.6240234	n/a	52383.75	largeTSmallT	correct	congruent	0.479	no	T	T
205.1030273	n/a	52506.375	responseLargeT	correct	n/a	0.479	no	n/a	n/a
206.1708984	n/a	52779.75	largeHSmallH	correct	congruent	0.46484	no	H	H
206.6357422	n/a	52898.75	responseLargeH	correct	n/a	0.46484	no	n/a	n/a
207.7041016	n/a	53172.25	largeTSmallH	correct	incongruent	0.56396	no	T	H
208.2680664	n/a	53316.625	responseLargeT	correct	n/a	0.56396	no	n/a	n/a
209.3305664	n/a	53588.625	largeHSmallT	correct	incongruent	0.44629	no	H	T
209.7768555	n/a	53702.875	responseLargeH	correct	n/a	0.44629	no	n/a	n/a
210.8505859	n/a	53977.75	largeHSmallH	correct	congruent	0.46338	no	H	H
211.3139648	n/a	54096.375	responseLargeH	correct	n/a	0.46338	no	n/a	n/a
212.3837891	n/a	54370.25	largeHSmallH	correct	congruent	0.39355	no	H	H
212.7773438	n/a	54471	responseLargeH	correct	n/a	0.39355	no	n/a	n/a
213.8505859	n/a	54745.75	largeHSmallH	correct	congruent	0.36523	no	H	H
214.2158203	n/a	54839.25	responseLargeH	correct	n/a	0.36523	no	n/a	n/a
215.2773438	n/a	55111	largeTSmallH	correct	incongruent	0.47852	no	T	H
215.7558594	n/a	55233.5	responseLargeT	correct	n/a	0.47852	no	n/a	n/a
216.8237305	n/a	55506.875	largeHSmallT	correct	incongruent	0.45264	no	H	T
217.2763672	n/a	55622.75	responseLargeH	correct	n/a	0.45264	no	n/a	n/a
218.34375	n/a	55896	largeTSmallH	correct	incongruent	0.48242	no	T	H
218.8261719	n/a	56019.5	responseLargeT	correct	n/a	0.48242	no	n/a	n/a
219.890625	n/a	56292	largeTSmallT	correct	congruent	0.39697	no	T	T
220.2875977	n/a	56393.625	responseLargeT	correct	n/a	0.39697	no	n/a	n/a
221.34375	n/a	56664	largeHSmallH	correct	congruent	0.42725	no	H	H
221.7709961	n/a	56773.375	responseLargeH	correct	n/a	0.42725	no	n/a	n/a
222.8500977	n/a	57049.625	largeHSmallH	correct	congruent	0.50781	no	H	H
223.3579102	n/a	57179.625	responseLargeH	correct	n/a	0.50781	no	n/a	n/a
224.4238281	n/a	57452.5	largeHSmallH	correct	congruent	0.42139	no	H	H
224.8452148	n/a	57560.375	responseLargeH	correct	n/a	0.42139	no	n/a	n/a
225.9169922	n/a	57834.75	largeHSmallT	correct	incongruent	0.38135	no	H	T
226.2983398	n/a	57932.375	responseLargeH	correct	n/a	0.38135	no	n/a	n/a
227.3701172	n/a	58206.75	largeHSmallT	correct	incongruent	0.42236	no	H	T
227.7924805	n/a	58314.875	responseLargeH	correct	n/a	0.42236	no	n/a	n/a
228.8637695	n/a	58589.125	largeTSmallT	correct	congruent	0.45996	no	T	T
229.3237305	n/a	58706.875	responseLargeT	correct	n/a	0.45996	no	n/a	n/a
230.3969727	n/a	58981.625	largeTSmallH	correct	incongruent	0.38379	no	T	H
230.7807617	n/a	59079.875	responseLargeT	correct	n/a	0.38379	no	n/a	n/a
231.8500977	n/a	59353.625	largeTSmallT	correct	congruent	0.37842	no	T	T
232.2285156	n/a	59450.5	responseLargeT	correct	n/a	0.37842	no	n/a	n/a
233.3037109	n/a	59725.75	largeTSmallH	correct	incongruent	0.5459	no	T	H
233.8496094	n/a	59865.5	responseLargeT	correct	n/a	0.5459	no	n/a	n/a
234.9165039	n/a	60138.625	largeHSmallT	correct	incongruent	0.44336	no	H	T
235.3598633	n/a	60252.125	responseLargeH	correct	n/a	0.44336	no	n/a	n/a
236.4365234	n/a	60527.75	largeTSmallT	correct	congruent	0.42578	no	T	T
236.8623047	n/a	60636.75	responseLargeT	correct	n/a	0.42578	no	n/a	n/a
237.9301758	n/a	60910.125	largeHSmallH	correct	congruent	0.41895	no	H	H
238.3491211	n/a	61017.375	responseLargeH	correct	n/a	0.41895	no	n/a	n/a
239.4101562	n/a	61289	largeHSmallH	correct	congruent	0.59766	no	H	H
240.0078125	n/a	61442	responseLargeH	correct	n/a	0.59766	no	n/a	n/a
241.0898438	n/a	61719	largeTSmallH	correct	incongruent	0.44287	no	T	H
241.5327148	n/a	61832.375	responseLargeT	correct	n/a	0.44287	no	n/a	n/a
242.5966797	n/a	62104.75	largeTSmallT	correct	congruent	0.50146	no	T	T
243.0981445	n/a	62233.125	responseLargeT	correct	n/a	0.50146	no	n/a	n/a
244.1699219	n/a	62507.5	largeHSmallH	correct	congruent	0.68848	no	H	H
244.8583984	n/a	62683.75	responseLargeH	correct	n/a	0.68848	no	n/a	n/a
245.9165039	n/a	62954.625	largeTSmallT	correct	congruent	0.56104	no	T	T
246.4775391	n/a	63098.25	responseLargeT	correct	n/a	0.56104	no	n/a	n/a
247.5429688	n/a	63371	largeHSmallH	correct	congruent	0.48975	no	H	H
248.0327148	n/a	63496.375	responseLargeH	correct	n/a	0.48975	no	n/a	n/a
249.1030273	n/a	63770.375	largeTSmallH	correct	incongruent	0.46729	no	T	H
249.5703125	n/a	63890	responseLargeT	correct	n/a	0.46729	no	n/a	n/a
250.6494141	n/a	64166.25	largeHSmallT	correct	incongruent	0.49707	no	H	T
251.1464844	n/a	64293.5	responseLargeH	correct	n/a	0.49707	no	n/a	n/a
252.2231445	n/a	64569.125	largeTSmallT	correct	congruent	0.43213	no	T	T
252.6552734	n/a	64679.75	responseLargeT	correct	n/a	0.43213	no	n/a	n/a
253.7163086	n/a	64951.375	largeTSmallH	correct	incongruent	0.47363	no	T	H
254.1899414	n/a	65072.625	responseLargeT	correct	n/a	0.47363	no	n/a	n/a
255.2626953	n/a	65347.25	largeHSmallH	correct	congruent	0.45947	no	H	H
255.722168	n/a	65464.875	responseLargeH	correct	n/a	0.45947	no	n/a	n/a
256.7963867	n/a	65739.875	largeHSmallT	correct	incongruent	0.49854	no	H	T
257.2949219	n/a	65867.5	responseLargeH	correct	n/a	0.49854	no	n/a	n/a
258.3696289	n/a	66142.625	largeHSmallH	correct	congruent	0.49805	no	H	H
258.8676758	n/a	66270.125	responseLargeH	correct	n/a	0.49805	no	n/a	n/a
259.9428711	n/a	66545.375	largeHSmallT	correct	incongruent	0.43457	no	H	T
260.3774414	n/a	66656.625	responseLargeH	correct	n/a	0.43457	no	n/a	n/a
261.4360352	n/a	66927.625	largeHSmallT	correct	incongruent	0.41064	no	H	T
261.8466797	n/a	67032.75	responseLargeH	correct	n/a	0.41064	no	n/a	n/a
262.9160156	n/a	67306.5	largeTSmallH	correct	incongruent	0.48877	no	T	H
263.4047852	n/a	67431.625	responseLargeT	correct	n/a	0.48877	no	n/a	n/a
264.4628906	n/a	67702.5	largeHSmallH	correct	congruent	0.45557	no	H	H
264.918457	n/a	67819.125	responseLargeH	correct	n/a	0.45557	no	n/a	n/a
265.9829102	n/a	68091.625	largeTSmallT	correct	congruent	0.43799	no	T	T
266.4208984	n/a	68203.75	responseLargeT	correct	n/a	0.43799	no	n/a	n/a
267.4892578	n/a	68477.25	largeTSmallH	correct	incongruent	0.42822	no	T	H
267.9174805	n/a	68586.875	responseLargeT	correct	n/a	0.42822	no	n/a	n/a
268.9960938	n/a	68863	largeHSmallH	correct	congruent	0.38428	no	H	H
269.3803711	n/a	68961.375	responseLargeH	correct	n/a	0.38428	no	n/a	n/a
270.4355469	n/a	69231.5	largeHSmallT	correct	incongruent	0.44092	no	H	T
270.8764648	n/a	69344.375	responseLargeH	correct	n/a	0.44092	no	n/a	n/a
271.9423828	n/a	69617.25	largeTSmallT	correct	congruent	0.49951	no	T	T
272.4418945	n/a	69745.125	responseLargeT	correct	n/a	0.49951	no	n/a	n/a
273.515625	n/a	70020	largeHSmallH	correct	congruent	0.375	no	H	H
273.890625	n/a	70116	responseLargeH	correct	n/a	0.375	no	n/a	n/a
274.9692383	n/a	70392.125	largeHSmallT	correct	incongruent	0.39697	no	H	T
275.3662109	n/a	70493.75	responseLargeH	correct	n/a	0.39697	no	n/a	n/a
276.4355469	n/a	70767.5	largeHSmallT	correct	incongruent	0.35205	no	H	T
276.7875977	n/a	70857.625	responseLargeH	correct	n/a	0.35205	no	n/a	n/a
277.8491211	n/a	71129.375	largeHSmallT	correct	incongruent	0.60889	no	H	T
278.4580078	n/a	71285.25	responseLargeH	correct	n/a	0.60889	no	n/a	n/a
279.515625	n/a	71556	largeHSmallH	correct	congruent	0.43115	no	H	H
279.9467773	n/a	71666.375	responseLargeH	correct	n/a	0.43115	no	n/a	n/a
281.0224609	n/a	71941.75	largeHSmallH	correct	congruent	0.47266	no	H	H
281.4951172	n/a	72062.75	responseLargeH	correct	n/a	0.47266	no	n/a	n/a
282.5688477	n/a	72337.625	largeHSmallH	correct	congruent	0.39014	no	H	H
282.9589844	n/a	72437.5	responseLargeH	correct	n/a	0.39014	no	n/a	n/a
284.0356445	n/a	72713.125	largeTSmallT	correct	congruent	0.479	no	T	T
284.5146484	n/a	72835.75	responseLargeT	correct	n/a	0.479	no	n/a	n/a
285.5952148	n/a	73112.375	largeHSmallT	correct	incongruent	0.38281	no	H	T
285.9780273	n/a	73210.375	responseLargeH	correct	n/a	0.38281	no	n/a	n/a
287.0356445	n/a	73481.125	largeHSmallH	correct	congruent	0.54541	no	H	H
287.5810547	n/a	73620.75	responseLargeH	correct	n/a	0.54541	no	n/a	n/a
288.6489258	n/a	73894.125	largeTSmallH	correct	incongruent	0.37354	no	T	H
289.0224609	n/a	73989.75	responseLargeT	correct	n/a	0.37354	no	n/a	n/a
290.1020508	n/a	74266.125	largeTSmallH	correct	incongruent	0.39209	no	T	H
290.4941406	n/a	74366.5	responseLargeT	correct	n/a	0.39209	no	n/a	n/a
291.5688477	n/a	74641.625	largeTSmallT	correct	congruent	0.42236	no	T	T
291.9912109	n/a	74749.75	responseLargeT	correct	n/a	0.42236	no	n/a	n/a
293.0620117	n/a	75023.875	largeTSmallH	correct	incongruent	0.42383	no	T	H
293.4858398	n/a	75132.375	responseLargeT	correct	n/a	0.42383	no	n/a	n/a
294.5556641	n/a	75406.25	largeHSmallT	correct	incongruent	0.40869	no	H	T
294.9643555	n/a	75510.875	responseLargeH	correct	n/a	0.40869	no	n/a	n/a
296.0219727	n/a	75781.625	largeHSmallT	correct	incongruent	0.44482	no	H	T
296.4667969	n/a	75895.5	responseLargeH	correct	n/a	0.44482	no	n/a	n/a
297.5419922	n/a	76170.75	largeTSmallH	correct	incongruent	0.4624	no	T	H
298.0043945	n/a	76289.125	responseLargeT	correct	n/a	0.4624	no	n/a	n/a
299.0620117	n/a	76559.875	largeHSmallT	correct	incongruent	0.43652	no	H	T
299.4985352	n/a	76671.625	responseLargeH	correct	n/a	0.43652	no	n/a	n/a
300.5683594	n/a	76945.5	largeHSmallH	correct	congruent	0.41797	no	H	H
300.9863281	n/a	77052.5	responseLargeH	correct	n/a	0.41797	no	n/a	n/a
302.0488281	n/a	77324.5	largeHSmallT	correct	incongruent	0.47021	no	H	T
302.519043	n/a	77444.875	responseLargeH	correct	n/a	0.47021	no	n/a	n/a
303.5952148	n/a	77720.375	largeTSmallH	correct	incongruent	0.45605	no	T	H
304.0512695	n/a	77837.125	responseLargeT	correct	n/a	0.45605	no	n/a	n/a
305.1289062	n/a	78113	largeTSmallH	correct	incongruent	0.4165	no	T	H
305.5454102	n/a	78219.625	responseLargeT	correct	n/a	0.4165	no	n/a	n/a
306.621582	n/a	78495.125	largeHSmallH	correct	congruent	0.3877	no	H	H
307.0092773	n/a	78594.375	responseLargeH	correct	n/a	0.3877	no	n/a	n/a
308.0883789	n/a	78870.625	largeHSmallT	correct	incongruent	0.4165	no	H	T
308.5048828	n/a	78977.25	responseLargeH	correct	n/a	0.4165	no	n/a	n/a
309.5683594	n/a	79249.5	largeHSmallH	correct	congruent	0.43604	no	H	H
310.0043945	n/a	79361.125	responseLargeH	correct	n/a	0.43604	no	n/a	n/a
311.0751953	n/a	79635.25	largeHSmallH	correct	congruent	0.48535	no	H	H
311.5605469	n/a	79759.5	responseLargeH	correct	n/a	0.48535	no	n/a	n/a
312.621582	n/a	80031.125	largeHSmallT	correct	incongruent	0.42627	no	H	T
313.0478516	n/a	80140.25	responseLargeH	correct	n/a	0.42627	no	n/a	n/a
314.1147461	n/a	80413.375	largeTSmallT	correct	congruent	0.44824	no	T	T
314.5629883	n/a	80528.125	responseLargeT	correct	n/a	0.44824	no	n/a	n/a
315.6347656	n/a	80802.5	largeHSmallH	correct	congruent	0.37891	no	H	H
316.0136719	n/a	80899.5	responseLargeH	correct	n/a	0.37891	no	n/a	n/a
317.0883789	n/a	81174.625	largeTSmallH	correct	incongruent	0.44385	no	T	H
317.5322266	n/a	81288.25	responseLargeT	correct	n/a	0.44385	no	n/a	n/a
318.5947266	n/a	81560.25	largeHSmallH	correct	congruent	0.37891	no	H	H
318.9736328	n/a	81657.25	responseLargeH	correct	n/a	0.37891	no	n/a	n/a
320.034668	n/a	81928.875	largeTSmallH	correct	incongruent	0.44385	no	T	H
320.4785156	n/a	82042.5	responseLargeT	correct	n/a	0.44385	no	n/a	n/a
321.5415039	n/a	82314.625	largeHSmallH	correct	congruent	0.43359	no	H	H
321.9750977	n/a	82425.625	responseLargeH	correct	n/a	0.43359	no	n/a	n/a
323.0478516	n/a	82700.25	largeTSmallH	correct	incongruent	0.37354	no	T	H
323.4213867	n/a	82795.875	responseLargeT	correct	n/a	0.37354	no	n/a	n/a
324.5014648	n/a	83072.375	largeTSmallT	correct	congruent	0.43896	no	T	T
324.9404297	n/a	83184.75	responseLargeT	correct	n/a	0.43896	no	n/a	n/a
326.0078125	n/a	83458	largeTSmallT	correct	congruent	0.37109	no	T	T
326.3789062	n/a	83553	responseLargeT	correct	n/a	0.37109	no	n/a	n/a
327.4477539	n/a	83826.625	largeTSmallT	correct	congruent	0.41064	no	T	T
327.8583984	n/a	83931.75	responseLargeT	correct	n/a	0.41064	no	n/a	n/a
334.2739258	n/a	85574.125	largeHSmallT	correct	incongruent	0.76172	no	H	T
335.0356445	n/a	85769.125	responseSmallT	correct	n/a	0.76172	no	n/a	n/a
336.1010742	n/a	86041.875	largeHSmallH	correct	congruent	0.4165	no	H	H
336.5175781	n/a	86148.5	responseSmallH	correct	n/a	0.4165	no	n/a	n/a
337.5810547	n/a	86420.75	largeTSmallT	correct	congruent	0.72021	no	T	T
338.3012695	n/a	86605.125	responseSmallT	correct	n/a	0.72021	no	n/a	n/a
339.3676758	n/a	86878.125	largeHSmallT	correct	incongruent	1.1865	no	H	T
340.5541992	n/a	87181.875	responseSmallT	correct	n/a	1.1865	no	n/a	n/a
341.6210938	n/a	87455	largeTSmallH	correct	incongruent	0.50342	no	T	H
342.1245117	n/a	87583.875	responseSmallH	correct	n/a	0.50342	no	n/a	n/a
343.1806641	n/a	87854.25	largeHSmallH	correct	congruent	0.57373	no	H	H
343.7543945	n/a	88001.125	responseSmallH	correct	n/a	0.57373	no	n/a	n/a
344.8208008	n/a	88274.125	largeTSmallT	correct	congruent	0.45752	no	T	T
345.2783203	n/a	88391.25	responseSmallT	correct	n/a	0.45752	no	n/a	n/a
346.3540039	n/a	88666.625	largeTSmallT	correct	congruent	0.4585	no	T	T
346.8125	n/a	88784	responseSmallT	correct	n/a	0.4585	no	n/a	n/a
347.8876953	n/a	89059.25	largeTSmallH	correct	incongruent	0.48926	no	T	H
348.3769531	n/a	89184.5	responseSmallH	correct	n/a	0.48926	no	n/a	n/a
349.434082	n/a	89455.125	largeHSmallH	correct	congruent	0.62695	no	H	H
350.0610352	n/a	89615.625	responseSmallH	correct	n/a	0.62695	no	n/a	n/a
351.1274414	n/a	89888.625	largeTSmallT	correct	congruent	0.39697	no	T	T
351.5244141	n/a	89990.25	responseSmallT	correct	n/a	0.39697	no	n/a	n/a
352.59375	n/a	90264	largeTSmallT	correct	congruent	0.50586	no	T	T
353.0996094	n/a	90393.5	responseSmallT	correct	n/a	0.50586	no	n/a	n/a
354.1674805	n/a	90666.875	largeTSmallT	correct	congruent	0.44385	no	T	T
354.6113281	n/a	90780.5	responseSmallT	correct	n/a	0.44385	no	n/a	n/a
355.6738281	n/a	91052.5	largeTSmallT	correct	congruent	0.47412	no	T	T
356.1479492	n/a	91173.875	responseSmallT	correct	n/a	0.47412	no	n/a	n/a
357.2070312	n/a	91445	largeTSmallT	correct	congruent	0.44482	no	T	T
357.6518555	n/a	91558.875	responseSmallT	correct	n/a	0.44482	no	n/a	n/a
358.7270508	n/a	91834.125	largeTSmallH	error	incongruent	0.46289	no	T	H
359.1899414	n/a	91952.625	responseSmallT	error	n/a	0.46289	no	n/a	n/a
360.2470703	n/a	92223.25	largeTSmallH	correct	incongruent	0.45557	no	T	H
360.7026367	n/a	92339.875	responseSmallH	correct	n/a	0.45557	no	n/a	n/a
361.7670898	n/a	92612.375	largeTSmallT	correct	congruent	0.45312	no	T	T
362.2202148	n/a	92728.375	responseSmallT	correct	n/a	0.45312	no	n/a	n/a
363.300293	n/a	93004.875	largeTSmallH	correct	incongruent	0.45898	no	T	H
363.7592773	n/a	93122.375	responseSmallH	correct	n/a	0.45898	no	n/a	n/a
364.8203125	n/a	93394	largeHSmallT	correct	incongruent	0.76514	no	H	T
365.5854492	n/a	93589.875	responseSmallT	correct	n/a	0.76514	no	n/a	n/a
366.6469727	n/a	93861.625	largeHSmallH	correct	congruent	0.40625	no	H	H
367.0532227	n/a	93965.625	responseSmallH	correct	n/a	0.40625	no	n/a	n/a
368.1269531	n/a	94240.5	largeTSmallT	correct	congruent	0.45117	no	T	T
368.578125	n/a	94356	responseSmallT	correct	n/a	0.45117	no	n/a	n/a
369.6469727	n/a	94629.625	largeTSmallT	correct	congruent	0.50781	no	T	T
370.1547852	n/a	94759.625	responseSmallT	correct	n/a	0.50781	no	n/a	n/a
371.2202148	n/a	95032.375	largeTSmallH	correct	incongruent	0.46582	no	T	H
371.6860352	n/a	95151.625	responseSmallH	correct	n/a	0.46582	no	n/a	n/a
372.7402344	n/a	95421.5	largeTSmallT	correct	congruent	0.48535	no	T	T
373.2255859	n/a	95545.75	responseSmallT	correct	n/a	0.48535	no	n/a	n/a
374.2866211	n/a	95817.375	largeHSmallH	correct	congruent	0.44092	no	H	H
374.7275391	n/a	95930.25	responseSmallH	correct	n/a	0.44092	no	n/a	n/a
375.793457	n/a	96203.125	largeHSmallT	correct	incongruent	0.65576	no	H	T
376.4492188	n/a	96371	responseSmallT	correct	n/a	0.65576	no	n/a	n/a
377.5136719	n/a	96643.5	largeTSmallT	correct	congruent	0.51074	no	T	T
378.0244141	n/a	96774.25	responseSmallT	correct	n/a	0.51074	no	n/a	n/a
379.1000977	n/a	97049.625	largeHSmallT	correct	incongruent	0.44873	no	H	T
379.5488281	n/a	97164.5	responseSmallT	correct	n/a	0.44873	no	n/a	n/a
380.6064453	n/a	97435.25	largeTSmallH	correct	incongruent	0.45508	no	T	H
381.0615234	n/a	97551.75	responseSmallH	correct	n/a	0.45508	no	n/a	n/a
382.1269531	n/a	97824.5	largeHSmallT	correct	incongruent	0.75879	no	H	T
382.8857422	n/a	98018.75	responseSmallT	correct	n/a	0.75879	no	n/a	n/a
383.9399414	n/a	98288.625	largeTSmallH	correct	incongruent	0.43896	no	T	H
384.3789062	n/a	98401	responseSmallH	correct	n/a	0.43896	no	n/a	n/a
385.4462891	n/a	98674.25	largeHSmallH	correct	congruent	0.40088	no	H	H
385.847168	n/a	98776.875	responseSmallH	correct	n/a	0.40088	no	n/a	n/a
386.9130859	n/a	99049.75	largeHSmallH	correct	congruent	0.43555	no	H	H
387.3486328	n/a	99161.25	responseSmallH	correct	n/a	0.43555	no	n/a	n/a
388.40625	n/a	99432	largeHSmallT	correct	incongruent	0.38965	no	H	T
388.7958984	n/a	99531.75	responseSmallT	correct	n/a	0.38965	no	n/a	n/a
389.8598633	n/a	99804.125	largeTSmallT	correct	congruent	0.42334	no	T	T
390.2832031	n/a	99912.5	responseSmallT	correct	n/a	0.42334	no	n/a	n/a
391.3530273	n/a	100186.375	largeHSmallH	correct	congruent	0.37549	no	H	H
391.7285156	n/a	100282.5	responseSmallH	correct	n/a	0.37549	no	n/a	n/a
392.7929688	n/a	100555	largeHSmallT	correct	incongruent	0.51758	no	H	T
393.3105469	n/a	100687.5	responseSmallT	correct	n/a	0.51758	no	n/a	n/a
394.3793945	n/a	100961.125	largeTSmallT	correct	congruent	0.604	no	T	T
394.9833984	n/a	101115.75	responseSmallT	correct	n/a	0.604	no	n/a	n/a
396.0463867	n/a	101387.875	largeTSmallT	correct	congruent	0.50684	no	T	T
396.5532227	n/a	101517.625	responseSmallT	correct	n/a	0.50684	no	n/a	n/a
397.6328125	n/a	101794	largeHSmallH	correct	congruent	0.45508	no	H	H
398.0878906	n/a	101910.5	responseSmallH	correct	n/a	0.45508	no	n/a	n/a
399.152832	n/a	102183.125	largeTSmallT	correct	congruent	0.71533	no	T	T
399.8681641	n/a	102366.25	responseSmallT	correct	n/a	0.71533	no	n/a	n/a
400.9394531	n/a	102640.5	largeHSmallT	correct	incongruent	0.53809	no	H	T
401.4775391	n/a	102778.25	responseSmallT	correct	n/a	0.53809	no	n/a	n/a
402.5395508	n/a	103050.125	largeHSmallH	correct	congruent	0.41699	no	H	H
402.956543	n/a	103156.875	responseSmallH	correct	n/a	0.41699	no	n/a	n/a
404.0327148	n/a	103432.375	largeHSmallH	correct	congruent	0.45752	no	H	H
404.4902344	n/a	103549.5	responseSmallH	correct	n/a	0.45752	no	n/a	n/a
405.5527344	n/a	103821.5	largeTSmallT	correct	congruent	0.45508	no	T	T
406.0078125	n/a	103938	responseSmallT	correct	n/a	0.45508	no	n/a	n/a
407.0859375	n/a	104214	largeHSmallT	correct	incongruent	0.41113	no	H	T
407.4970703	n/a	104319.25	responseSmallT	correct	n/a	0.41113	no	n/a	n/a
408.565918	n/a	104592.875	largeTSmallT	correct	congruent	0.43311	no	T	T
408.9990234	n/a	104703.75	responseSmallT	correct	n/a	0.43311	no	n/a	n/a
410.0595703	n/a	104975.25	largeTSmallH	correct	incongruent	0.47119	no	T	H
410.5307617	n/a	105095.875	responseSmallH	correct	n/a	0.47119	no	n/a	n/a
411.605957	n/a	105371.125	largeTSmallH	correct	incongruent	0.37939	no	T	H
411.9853516	n/a	105468.25	responseSmallH	correct	n/a	0.37939	no	n/a	n/a
413.059082	n/a	105743.125	largeHSmallT	correct	incongruent	0.41943	no	H	T
413.4785156	n/a	105850.5	responseSmallT	correct	n/a	0.41943	no	n/a	n/a
414.5390625	n/a	106122	largeHSmallT	correct	incongruent	0.41357	no	H	T
414.9526367	n/a	106227.875	responseSmallT	correct	n/a	0.41357	no	n/a	n/a
416.0195312	n/a	106501	largeTSmallH	correct	incongruent	0.37402	no	T	H
416.3935547	n/a	106596.75	responseSmallH	correct	n/a	0.37402	no	n/a	n/a
417.4594727	n/a	106869.625	largeHSmallH	correct	congruent	0.40137	no	H	H
417.8608398	n/a	106972.375	responseSmallH	correct	n/a	0.40137	no	n/a	n/a
418.9257812	n/a	107245	largeTSmallT	correct	congruent	0.43262	no	T	T
419.3583984	n/a	107355.75	responseSmallT	correct	n/a	0.43262	no	n/a	n/a
420.4189453	n/a	107627.25	largeTSmallH	error	incongruent	0.479	no	T	H
420.8979492	n/a	107749.875	responseSmallT	error	n/a	0.479	no	n/a	n/a
421.9658203	n/a	108023.25	largeTSmallH	correct	incongruent	0.45605	no	T	H
422.421875	n/a	108140	responseSmallH	correct	n/a	0.45605	no	n/a	n/a
423.4990234	n/a	108415.75	largeHSmallT	correct	incongruent	0.51318	no	H	T
424.012207	n/a	108547.125	responseSmallT	correct	n/a	0.51318	no	n/a	n/a
425.0859375	n/a	108822	largeTSmallT	correct	congruent	0.41016	no	T	T
425.4960938	n/a	108927	responseSmallT	correct	n/a	0.41016	no	n/a	n/a
426.5654297	n/a	109200.75	largeHSmallT	correct	incongruent	0.4502	no	H	T
427.015625	n/a	109316	responseSmallT	correct	n/a	0.4502	no	n/a	n/a
428.0854492	n/a	109589.875	largeTSmallH	correct	incongruent	0.48975	no	T	H
428.5751953	n/a	109715.25	responseSmallH	correct	n/a	0.48975	no	n/a	n/a
429.6455078	n/a	109989.25	largeTSmallH	correct	incongruent	0.51416	no	T	H
430.159668	n/a	110120.875	responseSmallH	correct	n/a	0.51416	no	n/a	n/a
431.2324219	n/a	110395.5	largeHSmallT	correct	incongruent	0.39941	no	H	T
431.6318359	n/a	110497.75	responseSmallT	correct	n/a	0.39941	no	n/a	n/a
432.6987305	n/a	110770.875	largeHSmallH	correct	congruent	0.47852	no	H	H
433.1772461	n/a	110893.375	responseSmallH	correct	n/a	0.47852	no	n/a	n/a
434.2451172	n/a	111166.75	largeTSmallH	correct	incongruent	0.47803	no	T	H
434.7231445	n/a	111289.125	responseSmallH	correct	n/a	0.47803	no	n/a	n/a
435.7919922	n/a	111562.75	largeTSmallT	correct	congruent	0.43652	no	T	T
436.2285156	n/a	111674.5	responseSmallT	correct	n/a	0.43652	no	n/a	n/a
437.2988281	n/a	111948.5	largeHSmallH	correct	congruent	0.43115	no	H	H
437.7299805	n/a	112058.875	responseSmallH	correct	n/a	0.43115	no	n/a	n/a
438.8051758	n/a	112334.125	largeTSmallT	correct	congruent	0.52588	no	T	T
439.3310547	n/a	112468.75	responseSmallT	correct	n/a	0.52588	no	n/a	n/a
440.4052734	n/a	112743.75	largeTSmallH	correct	incongruent	0.41748	no	T	H
440.8227539	n/a	112850.625	responseSmallH	correct	n/a	0.41748	no	n/a	n/a
441.8852539	n/a	113122.625	largeHSmallT	correct	incongruent	0.38037	no	H	T
442.265625	n/a	113220	responseSmallT	correct	n/a	0.38037	no	n/a	n/a
443.3388672	n/a	113494.75	largeTSmallT	correct	congruent	0.39795	no	T	T
443.7368164	n/a	113596.625	responseSmallT	correct	n/a	0.39795	no	n/a	n/a
444.8051758	n/a	113870.125	largeHSmallH	correct	congruent	0.43848	no	H	H
445.2436523	n/a	113982.375	responseSmallH	correct	n/a	0.43848	no	n/a	n/a
446.3120117	n/a	114255.875	largeTSmallT	correct	congruent	0.4126	no	T	T
446.7246094	n/a	114361.5	responseSmallT	correct	n/a	0.4126	no	n/a	n/a
447.8051758	n/a	114638.125	largeTSmallH	correct	incongruent	0.39258	no	T	H
448.1977539	n/a	114738.625	responseSmallH	correct	n/a	0.39258	no	n/a	n/a
449.2719727	n/a	115013.625	largeHSmallT	correct	incongruent	0.48438	no	H	T
449.7563477	n/a	115137.625	responseSmallT	correct	n/a	0.48438	no	n/a	n/a
450.8320312	n/a	115413	largeHSmallT	correct	incongruent	0.47705	no	H	T
451.309082	n/a	115535.125	responseSmallT	correct	n/a	0.47705	no	n/a	n/a
452.3652344	n/a	115805.5	largeTSmallH	correct	incongruent	0.41699	no	T	H
452.7822266	n/a	115912.25	responseSmallH	correct	n/a	0.41699	no	n/a	n/a
453.8452148	n/a	116184.375	largeHSmallT	correct	incongruent	0.39014	no	H	T
454.2353516	n/a	116284.25	responseSmallT	correct	n/a	0.39014	no	n/a	n/a
455.2983398	n/a	116556.375	largeTSmallH	correct	incongruent	0.36182	no	T	H
455.6601562	n/a	116649	responseSmallH	correct	n/a	0.36182	no	n/a	n/a
456.7250977	n/a	116921.625	largeHSmallH	correct	congruent	0.51611	no	H	H
457.2412109	n/a	117053.75	responseSmallH	correct	n/a	0.51611	no	n/a	n/a
458.3115234	n/a	117327.75	largeHSmallT	correct	incongruent	0.41895	no	H	T
458.7304688	n/a	117435	responseSmallT	correct	n/a	0.41895	no	n/a	n/a
459.7915039	n/a	117706.625	largeTSmallT	correct	congruent	0.41455	no	T	T
460.2060547	n/a	117812.75	responseSmallT	correct	n/a	0.41455	no	n/a	n/a
461.2714844	n/a	118085.5	largeTSmallT	correct	congruent	0.3999	no	T	T
461.6713867	n/a	118187.875	responseSmallT	correct	n/a	0.3999	no	n/a	n/a
462.7382812	n/a	118461	largeHSmallH	correct	congruent	0.35205	no	H	H
463.090332	n/a	118551.125	responseSmallH	correct	n/a	0.35205	no	n/a	n/a
464.1645508	n/a	118826.125	largeHSmallH	correct	congruent	0.38477	no	H	H
464.5493164	n/a	118924.625	responseSmallH	correct	n/a	0.38477	no	n/a	n/a
465.6181641	n/a	119198.25	largeHSmallH	correct	congruent	0.43262	no	H	H
466.0507812	n/a	119309	responseSmallH	correct	n/a	0.43262	no	n/a	n/a
467.1113281	n/a	119580.5	largeHSmallH	correct	congruent	0.41309	no	H	H
467.5244141	n/a	119686.25	responseSmallH	correct	n/a	0.41309	no	n/a	n/a
468.5913086	n/a	119959.375	largeHSmallH	correct	congruent	0.39941	no	H	H
468.9907227	n/a	120061.625	responseSmallH	correct	n/a	0.39941	no	n/a	n/a
470.0581055	n/a	120334.875	largeTSmallH	correct	incongruent	0.39941	no	T	H
470.4575195	n/a	120437.125	responseSmallH	correct	n/a	0.39941	no	n/a	n/a
471.5249023	n/a	120710.375	largeTSmallT	correct	congruent	0.44385	no	T	T
471.96875	n/a	120824	responseSmallT	correct	n/a	0.44385	no	n/a	n/a
473.0444336	n/a	121099.375	largeTSmallH	correct	incongruent	0.4458	no	T	H
473.4902344	n/a	121213.5	responseSmallH	correct	n/a	0.4458	no	n/a	n/a
474.5512695	n/a	121485.125	largeTSmallT	correct	congruent	0.36719	no	T	T
474.918457	n/a	121579.125	responseSmallT	correct	n/a	0.36719	no	n/a	n/a
475.9912109	n/a	121853.75	largeHSmallT	correct	incongruent	0.5625	no	H	T
476.5537109	n/a	121997.75	responseSmallT	correct	n/a	0.5625	no	n/a	n/a
477.6308594	n/a	122273.5	largeHSmallT	correct	incongruent	0.51807	no	H	T
478.1489258	n/a	122406.125	responseSmallT	correct	n/a	0.51807	no	n/a	n/a
479.2177734	n/a	122679.75	largeTSmallH	correct	incongruent	0.52588	no	T	H
479.7436523	n/a	122814.375	responseSmallH	correct	n/a	0.52588	no	n/a	n/a
480.8041992	n/a	123085.875	largeHSmallT	correct	incongruent	0.49268	no	H	T
481.296875	n/a	123212	responseSmallT	correct	n/a	0.49268	no	n/a	n/a
482.3642578	n/a	123485.25	largeTSmallH	correct	incongruent	0.42676	no	T	H
482.7910156	n/a	123594.5	responseSmallH	correct	n/a	0.42676	no	n/a	n/a
483.8710938	n/a	123871	largeHSmallH	correct	congruent	0.45605	no	H	H
484.3271484	n/a	123987.75	responseSmallH	correct	n/a	0.45605	no	n/a	n/a
485.3911133	n/a	124260.125	largeTSmallH	correct	incongruent	0.43115	no	T	H
485.8222656	n/a	124370.5	responseSmallH	correct	n/a	0.43115	no	n/a	n/a
486.8974609	n/a	124645.75	largeHSmallT	correct	incongruent	0.43115	no	H	T
487.3286133	n/a	124756.125	responseSmallT	correct	n/a	0.43115	no	n/a	n/a
488.390625	n/a	125028	largeTSmallH	correct	incongruent	0.39453	no	T	H
488.7851562	n/a	125129	responseSmallH	correct	n/a	0.39453	no	n/a	n/a
489.8574219	n/a	125403.5	largeHSmallT	correct	incongruent	0.50098	no	H	T
490.3583984	n/a	125531.75	responseSmallT	correct	n/a	0.50098	no	n/a	n/a
491.4306641	n/a	125806.25	largeHSmallH	correct	congruent	0.39551	no	H	H
491.8261719	n/a	125907.5	responseSmallH	correct	n/a	0.39551	no	n/a	n/a
492.8974609	n/a	126181.75	largeHSmallH	correct	congruent	0.55811	no	H	H
493.4555664	n/a	126324.625	responseSmallH	correct	n/a	0.55811	no	n/a	n/a
494.5239258	n/a	126598.125	largeTSmallH	correct	incongruent	0.62061	no	T	H
495.1445312	n/a	126757	responseSmallH	correct	n/a	0.62061	no	n/a	n/a
496.2041016	n/a	127028.25	largeHSmallT	correct	incongruent	0.49463	no	H	T
496.6987305	n/a	127154.875	responseSmallT	correct	n/a	0.49463	no	n/a	n/a
497.7641602	n/a	127427.625	largeHSmallH	correct	congruent	0.45947	no	H	H
498.2236328	n/a	127545.25	responseSmallH	correct	n/a	0.45947	no	n/a	n/a
499.2973633	n/a	127820.125	largeHSmallH	correct	congruent	0.34521	no	H	H
499.6425781	n/a	127908.5	responseSmallH	correct	n/a	0.34521	no	n/a	n/a
500.7104492	n/a	128181.875	largeHSmallT	correct	incongruent	0.4248	no	H	T
501.1352539	n/a	128290.625	responseSmallT	correct	n/a	0.4248	no	n/a	n/a
502.1904297	n/a	128560.75	largeTSmallH	correct	incongruent	0.46338	no	T	H
502.6538086	n/a	128679.375	responseSmallH	correct	n/a	0.46338	no	n/a	n/a
503.7241211	n/a	128953.375	largeHSmallT	correct	incongruent	0.44141	no	H	T
504.1655273	n/a	129066.375	responseSmallT	correct	n/a	0.44141	no	n/a	n/a
505.2436523	n/a	129342.375	largeTSmallH	correct	incongruent	0.36328	no	T	H
505.6069336	n/a	129435.375	responseSmallH	correct	n/a	0.36328	no	n/a	n/a
506.6704102	n/a	129707.625	largeHSmallH	correct	congruent	0.39307	no	H	H
507.0634766	n/a	129808.25	responseSmallH	correct	n/a	0.39307	no	n/a	n/a
508.1235352	n/a	130079.625	largeHSmallH	correct	congruent	0.43164	no	H	H
508.5551758	n/a	130190.125	responseSmallH	correct	n/a	0.43164	no	n/a	n/a
509.6171875	n/a	130462	largeHSmallH	correct	congruent	0.43457	no	H	H
510.0517578	n/a	130573.25	responseSmallH	correct	n/a	0.43457	no	n/a	n/a
511.1235352	n/a	130847.625	largeHSmallH	correct	congruent	0.40918	no	H	H
511.5327148	n/a	130952.375	responseSmallH	correct	n/a	0.40918	no	n/a	n/a
512.6035156	n/a	131226.5	largeTSmallH	correct	incongruent	0.46338	no	T	H
513.0668945	n/a	131345.125	responseSmallH	correct	n/a	0.46338	no	n/a	n/a
514.137207	n/a	131619.125	largeTSmallT	correct	congruent	0.55762	no	T	T
514.6948242	n/a	131761.875	responseSmallT	correct	n/a	0.55762	no	n/a	n/a
515.7636719	n/a	132035.5	largeTSmallH	correct	incongruent	0.41797	no	T	H
516.1816406	n/a	132142.5	responseSmallH	correct	n/a	0.41797	no	n/a	n/a
517.2436523	n/a	132414.375	largeHSmallT	correct	incongruent	0.38379	no	H	T
517.6274414	n/a	132512.625	responseSmallT	correct	n/a	0.38379	no	n/a	n/a
518.6967773	n/a	132786.375	largeHSmallT	correct	incongruent	0.38037	no	H	T
519.0771484	n/a	132883.75	responseSmallT	correct	n/a	0.38037	no	n/a	n/a
520.1503906	n/a	133158.5	largeHSmallT	correct	incongruent	0.45605	no	H	T
520.6064453	n/a	133275.25	responseSmallT	correct	n/a	0.45605	no	n/a	n/a
521.6835938	n/a	133551	largeHSmallT	correct	incongruent	0.38525	no	H	T
522.0688477	n/a	133649.625	responseSmallT	correct	n/a	0.38525	no	n/a	n/a
523.1367188	n/a	133923	largeTSmallH	correct	incongruent	0.44092	no	T	H
523.5776367	n/a	134035.875	responseSmallH	correct	n/a	0.44092	no	n/a	n/a
524.6435547	n/a	134308.75	largeHSmallT	correct	incongruent	0.45166	no	H	T
525.0952148	n/a	134424.375	responseSmallT	correct	n/a	0.45166	no	n/a	n/a
526.1635742	n/a	134697.875	largeHSmallH	correct	congruent	0.41016	no	H	H
526.5737305	n/a	134802.875	responseSmallH	correct	n/a	0.41016	no	n/a	n/a
527.6435547	n/a	135076.75	largeTSmallH	correct	incongruent	0.40479	no	T	H
528.0483398	n/a	135180.375	responseSmallH	correct	n/a	0.40479	no	n/a	n/a
529.1230469	n/a	135455.5	largeHSmallT	correct	incongruent	0.47021	no	H	T
529.5932617	n/a	135575.875	responseSmallT	correct	n/a	0.47021	no	n/a	n/a
530.6699219	n/a	135851.5	largeTSmallT	correct	congruent	0.47559	no	T	T
531.1455078	n/a	135973.25	responseSmallT	correct	n/a	0.47559	no	n/a	n/a
532.203125	n/a	136244	largeHSmallH	correct	congruent	0.41113	no	H	H
532.6142578	n/a	136349.25	responseSmallH	correct	n/a	0.41113	no	n/a	n/a
533.6831055	n/a	136622.875	largeHSmallH	correct	congruent	0.39697	no	H	H
534.0800781	n/a	136724.5	responseSmallH	correct	n/a	0.39697	no	n/a	n/a
535.1362305	n/a	136994.875	largeTSmallH	correct	incongruent	0.40088	no	T	H
535.5371094	n/a	137097.5	responseSmallH	correct	n/a	0.40088	no	n/a	n/a
536.6162109	n/a	137373.75	largeHSmallH	correct	congruent	0.40771	no	H	H
537.0239258	n/a	137478.125	responseSmallH	correct	n/a	0.40771	no	n/a	n/a
538.0966797	n/a	137752.75	largeHSmallT	correct	incongruent	0.44141	no	H	T
538.5380859	n/a	137865.75	responseSmallT	correct	n/a	0.44141	no	n/a	n/a
539.6030273	n/a	138138.375	largeTSmallH	correct	incongruent	0.43115	no	T	H
540.0341797	n/a	138248.75	responseSmallH	correct	n/a	0.43115	no	n/a	n/a
541.0961914	n/a	138520.625	largeHSmallT	correct	incongruent	0.43115	no	H	T
541.5273438	n/a	138631	responseSmallT	correct	n/a	0.43115	no	n/a	n/a
542.6030273	n/a	138906.375	largeHSmallT	correct	incongruent	0.50781	no	H	T
543.1108398	n/a	139036.375	responseSmallT	correct	n/a	0.50781	no	n/a	n/a
544.1762695	n/a	139309.125	largeHSmallH	correct	congruent	0.42432	no	H	H
544.6005859	n/a	139417.75	responseSmallH	correct	n/a	0.42432	no	n/a	n/a
545.6694336	n/a	139691.375	largeHSmallH	correct	congruent	0.5127	no	H	H
546.1821289	n/a	139822.625	responseSmallH	correct	n/a	0.5127	no	n/a	n/a
547.2563477	n/a	140097.625	largeHSmallH	correct	congruent	0.42139	no	H	H
547.6777344	n/a	140205.5	responseSmallH	correct	n/a	0.42139	no	n/a	n/a
548.7504883	n/a	140480.125	largeTSmallT	correct	congruent	0.45312	no	T	T
549.2036133	n/a	140596.125	responseSmallT	correct	n/a	0.45312	no	n/a	n/a
550.2695312	n/a	140869	largeHSmallH	correct	congruent	0.45605	no	H	H
550.7255859	n/a	140985.75	responseSmallH	correct	n/a	0.45605	no	n/a	n/a
551.7895508	n/a	141258.125	largeHSmallH	correct	congruent	0.43799	no	H	H
552.2275391	n/a	141370.25	responseSmallH	correct	n/a	0.43799	no	n/a	n/a
553.2958984	n/a	141643.75	largeTSmallT	correct	congruent	0.41504	no	T	T
553.7109375	n/a	141750	responseSmallT	correct	n/a	0.41504	no	n/a	n/a
554.7758789	n/a	142022.625	largeHSmallH	correct	congruent	0.4873	no	H	H
555.2631836	n/a	142147.375	responseSmallH	correct	n/a	0.4873	no	n/a	n/a
556.3227539	n/a	142418.625	largeTSmallH	correct	incongruent	0.43262	no	T	H
556.7553711	n/a	142529.375	responseSmallH	correct	n/a	0.43262	no	n/a	n/a
557.8291016	n/a	142804.25	largeTSmallT	correct	congruent	0.40186	no	T	T
558.230957	n/a	142907.125	responseSmallT	correct	n/a	0.40186	no	n/a	n/a
559.2958984	n/a	143179.75	largeHSmallT	correct	incongruent	0.43848	no	H	T
559.734375	n/a	143292	responseSmallT	correct	n/a	0.43848	no	n/a	n/a
560.8027344	n/a	143565.5	largeHSmallT	correct	incongruent	0.4458	no	H	T
561.2485352	n/a	143679.625	responseSmallT	correct	n/a	0.4458	no	n/a	n/a
562.3222656	n/a	143954.5	largeTSmallH	correct	incongruent	0.42334	no	T	H
562.7456055	n/a	144062.875	responseSmallH	correct	n/a	0.42334	no	n/a	n/a
563.815918	n/a	144336.875	largeTSmallT	correct	congruent	0.44385	no	T	T
564.2597656	n/a	144450.5	responseSmallT	correct	n/a	0.44385	no	n/a	n/a
565.3222656	n/a	144722.5	largeHSmallT	error	incongruent	0.33936	no	H	T
565.6616211	n/a	144809.375	responseSmallH	error	n/a	0.33936	no	n/a	n/a
566.7358398	n/a	145084.375	largeHSmallT	correct	incongruent	0.99951	no	H	T
567.7353516	n/a	145340.25	responseSmallT	correct	n/a	0.99951	no	n/a	n/a
568.815918	n/a	145616.875	largeTSmallT	correct	congruent	0.54541	no	T	T
569.3613281	n/a	145756.5	responseSmallT	correct	n/a	0.54541	no	n/a	n/a
570.4291992	n/a	146029.875	largeTSmallH	correct	incongruent	0.45264	no	T	H
570.8818359	n/a	146145.75	responseSmallH	correct	n/a	0.45264	no	n/a	n/a
571.9492188	n/a	146419	largeHSmallH	correct	congruent	0.49854	no	H	H
572.4477539	n/a	146546.625	responseSmallH	correct	n/a	0.49854	no	n/a	n/a
573.5219727	n/a	146821.625	largeTSmallT	correct	congruent	0.45654	no	T	T
573.9785156	n/a	146938.5	responseSmallT	correct	n/a	0.45654	no	n/a	n/a
575.0556641	n/a	147214.25	largeHSmallH	error	congruent	0.4541	no	H	H
575.5097656	n/a	147330.5	responseSmallT	error	n/a	0.4541	no	n/a	n/a
576.5751953	n/a	147603.25	largeTSmallH	correct	incongruent	0.479	no	T	H
577.0541992	n/a	147725.875	responseSmallH	correct	n/a	0.479	no	n/a	n/a
578.1220703	n/a	147999.25	largeHSmallT	correct	incongruent	0.4585	no	H	T
578.5805664	n/a	148116.625	responseSmallT	correct	n/a	0.4585	no	n/a	n/a
579.6552734	n/a	148391.75	largeTSmallT	correct	congruent	0.50146	no	T	T
580.1567383	n/a	148520.125	responseSmallT	correct	n/a	0.50146	no	n/a	n/a
581.2285156	n/a	148794.5	largeTSmallT	correct	congruent	0.44629	no	T	T
581.6748047	n/a	148908.75	responseSmallT	correct	n/a	0.44629	no	n/a	n/a
582.7353516	n/a	149180.25	largeHSmallH	correct	congruent	0.47314	no	H	H
583.2084961	n/a	149301.375	responseSmallH	correct	n/a	0.47314	no	n/a	n/a
584.2822266	n/a	149576.25	largeTSmallT	correct	congruent	0.44434	no	T	T
584.7265625	n/a	149690	responseSmallT	correct	n/a	0.44434	no	n/a	n/a
585.8017578	n/a	149965.25	largeHSmallH	correct	congruent	0.48242	no	H	H
586.2841797	n/a	150088.75	responseSmallH	correct	n/a	0.48242	no	n/a	n/a
587.3486328	n/a	150361.25	largeHSmallH	correct	congruent	0.48633	no	H	H
587.8349609	n/a	150485.75	responseSmallH	correct	n/a	0.48633	no	n/a	n/a
588.8950195	n/a	150757.125	largeHSmallH	correct	congruent	0.49316	no	H	H
589.3881836	n/a	150883.375	responseSmallH	correct	n/a	0.49316	no	n/a	n/a
590.4682617	n/a	151159.875	largeTSmallH	correct	incongruent	0.50684	no	T	H
590.9750977	n/a	151289.625	responseSmallH	correct	n/a	0.50684	no	n/a	n/a
592.0415039	n/a	151562.625	largeHSmallT	correct	incongruent	0.4668	no	H	T
592.5083008	n/a	151682.125	responseSmallT	correct	n/a	0.4668	no	n/a	n/a
593.5751953	n/a	151955.25	largeHSmallT	correct	incongruent	0.46143	no	H	T
594.0366211	n/a	152073.375	responseSmallT	correct	n/a	0.46143	no	n/a	n/a
595.1083984	n/a	152347.75	largeTSmallH	correct	incongruent	0.39746	no	T	H
595.5058594	n/a	152449.5	responseSmallH	correct	n/a	0.39746	no	n/a	n/a
596.5751953	n/a	152723.25	largeTSmallH	correct	incongruent	0.44043	no	T	H
597.015625	n/a	152836	responseSmallH	correct	n/a	0.44043	no	n/a	n/a
598.0947266	n/a	153112.25	largeTSmallT	correct	congruent	0.46436	no	T	T
598.559082	n/a	153231.125	responseSmallT	correct	n/a	0.46436	no	n/a	n/a
599.628418	n/a	153504.875	largeHSmallT	correct	incongruent	0.53174	no	H	T
600.1601562	n/a	153641	responseSmallT	correct	n/a	0.53174	no	n/a	n/a
601.2280273	n/a	153914.375	largeTSmallT	correct	congruent	0.48291	no	T	T
601.7109375	n/a	154038	responseSmallT	correct	n/a	0.48291	no	n/a	n/a
602.7885742	n/a	154313.875	largeTSmallH	correct	incongruent	0.44531	no	T	H
603.2338867	n/a	154427.875	responseSmallH	correct	n/a	0.44531	no	n/a	n/a
604.2949219	n/a	154699.5	largeHSmallH	correct	congruent	0.4292	no	H	H
604.7241211	n/a	154809.375	responseSmallH	correct	n/a	0.4292	no	n/a	n/a
605.8017578	n/a	155085.25	largeTSmallT	correct	congruent	0.49561	no	T	T
606.2973633	n/a	155212.125	responseSmallT	correct	n/a	0.49561	no	n/a	n/a
607.375	n/a	155488	largeTSmallT	correct	congruent	0.43799	no	T	T
607.8129883	n/a	155600.125	responseSmallT	correct	n/a	0.43799	no	n/a	n/a
608.8813477	n/a	155873.625	largeTSmallH	correct	incongruent	0.40771	no	T	H
609.2890625	n/a	155978	responseSmallH	correct	n/a	0.40771	no	n/a	n/a
610.3481445	n/a	156249.125	largeTSmallH	correct	incongruent	0.45508	no	T	H
610.8032227	n/a	156365.625	responseSmallH	correct	n/a	0.45508	no	n/a	n/a
611.8681641	n/a	156638.25	largeTSmallH	correct	incongruent	0.50342	no	T	H
612.371582	n/a	156767.125	responseSmallH	correct	n/a	0.50342	no	n/a	n/a
613.4414062	n/a	157041	largeTSmallT	correct	congruent	0.41504	no	T	T
613.8564453	n/a	157147.25	responseSmallT	correct	n/a	0.41504	no	n/a	n/a
614.9213867	n/a	157419.875	largeTSmallT	correct	congruent	0.48633	no	T	T
615.4077148	n/a	157544.375	responseSmallT	correct	n/a	0.48633	no	n/a	n/a
616.480957	n/a	157819.125	largeTSmallH	correct	incongruent	0.44824	no	T	H
616.9291992	n/a	157933.875	responseSmallH	correct	n/a	0.44824	no	n/a	n/a
618.0014648	n/a	158208.375	largeTSmallH	correct	incongruent	0.43311	no	T	H
618.4345703	n/a	158319.25	responseSmallH	correct	n/a	0.43311	no	n/a	n/a
619.5078125	n/a	158594	largeHSmallT	correct	incongruent	0.44189	no	H	T
619.949707	n/a	158707.125	responseSmallT	correct	n/a	0.44189	no	n/a	n/a
621.027832	n/a	158983.125	largeTSmallT	correct	congruent	0.40771	no	T	T
621.4355469	n/a	159087.5	responseSmallT	correct	n/a	0.40771	no	n/a	n/a
622.5078125	n/a	159362	largeTSmallH	correct	incongruent	0.43799	no	T	H
622.9458008	n/a	159474.125	responseSmallH	correct	n/a	0.43799	no	n/a	n/a
624.0146484	n/a	159747.75	largeHSmallH	correct	congruent	0.3877	no	H	H
624.4023438	n/a	159847	responseSmallH	correct	n/a	0.3877	no	n/a	n/a
625.4677734	n/a	160119.75	largeHSmallH	correct	congruent	0.44189	no	H	H
625.909668	n/a	160232.875	responseSmallH	correct	n/a	0.44189	no	n/a	n/a
626.9741211	n/a	160505.375	largeHSmallT	correct	incongruent	0.41699	no	H	T
627.3911133	n/a	160612.125	responseSmallT	correct	n/a	0.41699	no	n/a	n/a
628.4677734	n/a	160887.75	largeHSmallT	correct	incongruent	0.62988	no	H	T
629.0976562	n/a	161049	responseSmallT	correct	n/a	0.62988	no	n/a	n/a
630.1606445	n/a	161321.125	largeTSmallT	correct	congruent	0.46289	no	T	T
630.6235352	n/a	161439.625	responseSmallT	correct	n/a	0.46289	no	n/a	n/a
631.6943359	n/a	161713.75	largeTSmallT	correct	congruent	0.39404	no	T	T
632.0883789	n/a	161814.625	responseSmallT	correct	n/a	0.39404	no	n/a	n/a
633.1606445	n/a	162089.125	largeHSmallH	correct	congruent	0.42285	no	H	H
633.5834961	n/a	162197.375	responseSmallH	correct	n/a	0.42285	no	n/a	n/a
634.6542969	n/a	162471.5	largeTSmallH	correct	incongruent	0.42334	no	T	H
635.0776367	n/a	162579.875	responseSmallH	correct	n/a	0.42334	no	n/a	n/a
636.1342773	n/a	162850.375	largeHSmallT	correct	incongruent	0.43994	no	H	T
636.5742188	n/a	162963	responseSmallT	correct	n/a	0.43994	no	n/a	n/a
637.640625	n/a	163236	largeHSmallT	correct	incongruent	0.45703	no	H	T
638.0976562	n/a	163353	responseSmallT	correct	n/a	0.45703	no	n/a	n/a
639.1606445	n/a	163625.125	largeTSmallT	correct	congruent	0.42822	no	T	T
639.5888672	n/a	163734.75	responseSmallT	correct	n/a	0.42822	no	n/a	n/a
654.1333008	n/a	167458.125	largeHSmallH	correct	congruent	0.49854	no	H	H
654.6318359	n/a	167585.75	responseLargeH	correct	n/a	0.49854	no	n/a	n/a
655.7070312	n/a	167861	largeHSmallT	correct	incongruent	0.58154	no	H	T
656.2885742	n/a	168009.875	responseLargeH	correct	n/a	0.58154	no	n/a	n/a
657.3466797	n/a	168280.75	largeTSmallT	correct	congruent	0.44629	no	T	T
657.7929688	n/a	168395	responseLargeT	correct	n/a	0.44629	no	n/a	n/a
658.8666992	n/a	168669.875	largeTSmallT	correct	congruent	0.47852	no	T	T
659.3452148	n/a	168792.375	responseLargeT	correct	n/a	0.47852	no	n/a	n/a
660.4135742	n/a	169065.875	largeHSmallT	correct	incongruent	0.39062	no	H	T
660.8041992	n/a	169165.875	responseLargeH	correct	n/a	0.39062	no	n/a	n/a
661.8798828	n/a	169441.25	largeHSmallT	correct	incongruent	0.6123	no	H	T
662.4921875	n/a	169598	responseLargeH	correct	n/a	0.6123	no	n/a	n/a
663.5600586	n/a	169871.375	largeTSmallH	correct	incongruent	0.42188	no	T	H
663.9819336	n/a	169979.375	responseLargeT	correct	n/a	0.42188	no	n/a	n/a
665.0400391	n/a	170250.25	largeTSmallH	correct	incongruent	0.4917	no	T	H
665.5317383	n/a	170376.125	responseLargeT	correct	n/a	0.4917	no	n/a	n/a
666.6000977	n/a	170649.625	largeTSmallT	correct	congruent	0.43994	no	T	T
667.0400391	n/a	170762.25	responseLargeT	correct	n/a	0.43994	no	n/a	n/a
668.1069336	n/a	171035.375	largeTSmallT	correct	congruent	0.43506	no	T	T
668.5419922	n/a	171146.75	responseLargeT	correct	n/a	0.43506	no	n/a	n/a
669.6132812	n/a	171421	largeHSmallH	correct	congruent	0.33691	no	H	H
669.9501953	n/a	171507.25	responseLargeH	correct	n/a	0.33691	no	n/a	n/a
671.0131836	n/a	171779.375	largeTSmallH	correct	incongruent	0.41699	no	T	H
671.4301758	n/a	171886.125	responseLargeT	correct	n/a	0.41699	no	n/a	n/a
672.5063477	n/a	172161.625	largeHSmallT	correct	incongruent	0.42725	no	H	T
672.9335938	n/a	172271	responseLargeH	correct	n/a	0.42725	no	n/a	n/a
674	n/a	172544	largeHSmallT	correct	incongruent	0.40918	no	H	T
674.4091797	n/a	172648.75	responseLargeH	correct	n/a	0.40918	no	n/a	n/a
675.4799805	n/a	172922.875	largeHSmallH	correct	congruent	0.70605	no	H	H
676.1860352	n/a	173103.625	responseLargeH	correct	n/a	0.70605	no	n/a	n/a
677.253418	n/a	173376.875	largeHSmallT	correct	incongruent	0.40771	no	H	T
677.6611328	n/a	173481.25	responseLargeH	correct	n/a	0.40771	no	n/a	n/a
678.7197266	n/a	173752.25	largeTSmallH	correct	incongruent	0.43848	no	T	H
679.1582031	n/a	173864.5	responseLargeT	correct	n/a	0.43848	no	n/a	n/a
680.2265625	n/a	174138	largeHSmallH	correct	congruent	0.43701	no	H	H
680.6635742	n/a	174249.875	responseLargeH	correct	n/a	0.43701	no	n/a	n/a
681.7329102	n/a	174523.625	largeTSmallH	correct	incongruent	0.42529	no	T	H
682.1582031	n/a	174632.5	responseLargeT	correct	n/a	0.42529	no	n/a	n/a
683.2128906	n/a	174902.5	largeHSmallH	correct	congruent	0.354	no	H	H
683.5668945	n/a	174993.125	responseLargeH	correct	n/a	0.354	no	n/a	n/a
684.6396484	n/a	175267.75	largeHSmallT	correct	incongruent	0.41064	no	H	T
685.050293	n/a	175372.875	responseLargeH	correct	n/a	0.41064	no	n/a	n/a
686.1196289	n/a	175646.625	largeHSmallT	correct	incongruent	0.38623	no	H	T
686.5058594	n/a	175745.5	responseLargeH	correct	n/a	0.38623	no	n/a	n/a
687.5727539	n/a	176018.625	largeTSmallT	correct	congruent	0.42188	no	T	T
687.9946289	n/a	176126.625	responseLargeT	correct	n/a	0.42188	no	n/a	n/a
689.0664062	n/a	176401	largeTSmallH	correct	incongruent	0.5957	no	T	H
689.6621094	n/a	176553.5	responseLargeT	correct	n/a	0.5957	no	n/a	n/a
690.7192383	n/a	176824.125	largeHSmallH	correct	congruent	0.37695	no	H	H
691.0961914	n/a	176920.625	responseLargeH	correct	n/a	0.37695	no	n/a	n/a
692.1591797	n/a	177192.75	largeTSmallT	correct	congruent	0.41992	no	T	T
692.5791016	n/a	177300.25	responseLargeT	correct	n/a	0.41992	no	n/a	n/a
693.6391602	n/a	177571.625	largeHSmallH	correct	congruent	0.39551	no	H	H
694.034668	n/a	177672.875	responseLargeH	correct	n/a	0.39551	no	n/a	n/a
695.105957	n/a	177947.125	largeTSmallT	correct	congruent	0.41748	no	T	T
695.5234375	n/a	178054	responseLargeT	correct	n/a	0.41748	no	n/a	n/a
696.5859375	n/a	178326	largeTSmallT	correct	congruent	0.46338	no	T	T
697.0493164	n/a	178444.625	responseLargeT	correct	n/a	0.46338	no	n/a	n/a
698.1191406	n/a	178718.5	largeTSmallT	correct	congruent	0.40771	no	T	T
698.5268555	n/a	178822.875	responseLargeT	correct	n/a	0.40771	no	n/a	n/a
699.5991211	n/a	179097.375	largeTSmallH	correct	incongruent	0.45996	no	T	H
700.059082	n/a	179215.125	responseLargeT	correct	n/a	0.45996	no	n/a	n/a
701.1328125	n/a	179490	largeHSmallH	correct	congruent	0.38867	no	H	H
701.5214844	n/a	179589.5	responseLargeH	correct	n/a	0.38867	no	n/a	n/a
702.5991211	n/a	179865.375	largeTSmallH	correct	incongruent	0.70215	no	T	H
703.3012695	n/a	180045.125	responseLargeT	correct	n/a	0.70215	no	n/a	n/a
704.3725586	n/a	180319.375	largeHSmallT	correct	incongruent	0.37744	no	H	T
704.75	n/a	180416	responseLargeH	correct	n/a	0.37744	no	n/a	n/a
705.8256836	n/a	180691.375	largeHSmallH	correct	congruent	0.51514	no	H	H
706.3408203	n/a	180823.25	responseLargeH	correct	n/a	0.51514	no	n/a	n/a
707.4125977	n/a	181097.625	largeHSmallH	correct	congruent	0.36377	no	H	H
707.7763672	n/a	181190.75	responseLargeH	correct	n/a	0.36377	no	n/a	n/a
708.8520508	n/a	181466.125	largeTSmallH	correct	incongruent	0.45264	no	T	H
709.3046875	n/a	181582	responseLargeT	correct	n/a	0.45264	no	n/a	n/a
710.3725586	n/a	181855.375	largeHSmallH	correct	congruent	0.37939	no	H	H
710.7519531	n/a	181952.5	responseLargeH	correct	n/a	0.37939	no	n/a	n/a
711.8125	n/a	182224	largeTSmallH	correct	incongruent	0.46387	no	T	H
712.2763672	n/a	182342.75	responseLargeT	correct	n/a	0.46387	no	n/a	n/a
713.3457031	n/a	182616.5	largeHSmallT	correct	incongruent	0.37158	no	H	T
713.7172852	n/a	182711.625	responseLargeH	correct	n/a	0.37158	no	n/a	n/a
714.7724609	n/a	182981.75	largeTSmallH	correct	incongruent	0.38965	no	T	H
715.1621094	n/a	183081.5	responseLargeT	correct	n/a	0.38965	no	n/a	n/a
716.2255859	n/a	183353.75	largeTSmallH	correct	incongruent	0.43652	no	T	H
716.6621094	n/a	183465.5	responseLargeT	correct	n/a	0.43652	no	n/a	n/a
717.7324219	n/a	183739.5	largeHSmallT	correct	incongruent	0.36182	no	H	T
718.0942383	n/a	183832.125	responseLargeH	correct	n/a	0.36182	no	n/a	n/a
719.1586914	n/a	184104.625	largeTSmallT	correct	congruent	0.36963	no	T	T
719.5283203	n/a	184199.25	responseLargeT	correct	n/a	0.36963	no	n/a	n/a
720.5986328	n/a	184473.25	largeTSmallT	correct	congruent	0.4458	no	T	T
721.0444336	n/a	184587.375	responseLargeT	correct	n/a	0.4458	no	n/a	n/a
722.1054688	n/a	184859	largeTSmallH	correct	incongruent	0.46582	no	T	H
722.5712891	n/a	184978.25	responseLargeT	correct	n/a	0.46582	no	n/a	n/a
723.6386719	n/a	185251.5	largeHSmallT	correct	incongruent	0.34912	no	H	T
723.987793	n/a	185340.875	responseLargeH	correct	n/a	0.34912	no	n/a	n/a
725.0522461	n/a	185613.375	largeHSmallT	correct	incongruent	0.37598	no	H	T
725.4282227	n/a	185709.625	responseLargeH	correct	n/a	0.37598	no	n/a	n/a
726.4921875	n/a	185982	largeHSmallH	correct	congruent	0.41064	no	H	H
726.902832	n/a	186087.125	responseLargeH	correct	n/a	0.41064	no	n/a	n/a
727.972168	n/a	186360.875	largeHSmallH	correct	congruent	0.4209	no	H	H
728.3930664	n/a	186468.625	responseLargeH	correct	n/a	0.4209	no	n/a	n/a
729.4526367	n/a	186739.875	largeTSmallT	correct	congruent	0.41553	no	T	T
729.8681641	n/a	186846.25	responseLargeT	correct	n/a	0.41553	no	n/a	n/a
730.9467773	n/a	187122.375	largeHSmallH	correct	congruent	0.38818	no	H	H
731.3349609	n/a	187221.75	responseLargeH	correct	n/a	0.38818	no	n/a	n/a
732.4116211	n/a	187497.375	largeTSmallT	correct	congruent	0.46289	no	T	T
732.8745117	n/a	187615.875	responseLargeT	correct	n/a	0.46289	no	n/a	n/a
733.9316406	n/a	187886.5	largeHSmallH	correct	congruent	0.43408	no	H	H
734.3657227	n/a	187997.625	responseLargeH	correct	n/a	0.43408	no	n/a	n/a
735.4384766	n/a	188272.25	largeTSmallT	correct	congruent	0.36035	no	T	T
735.7988281	n/a	188364.5	responseLargeT	correct	n/a	0.36035	no	n/a	n/a
736.8652344	n/a	188637.5	largeHSmallH	correct	congruent	0.37891	no	H	H
737.2441406	n/a	188734.5	responseLargeH	correct	n/a	0.37891	no	n/a	n/a
738.3183594	n/a	189009.5	largeHSmallT	correct	incongruent	0.35693	no	H	T
738.675293	n/a	189100.875	responseLargeH	correct	n/a	0.35693	no	n/a	n/a
739.7314453	n/a	189371.25	largeTSmallH	correct	incongruent	0.45996	no	T	H
740.1914062	n/a	189489	responseLargeT	correct	n/a	0.45996	no	n/a	n/a
741.2651367	n/a	189763.875	largeHSmallH	correct	congruent	0.37012	no	H	H
741.6352539	n/a	189858.625	responseLargeH	correct	n/a	0.37012	no	n/a	n/a
742.7050781	n/a	190132.5	largeTSmallH	correct	incongruent	0.50781	no	T	H
743.2128906	n/a	190262.5	responseLargeT	correct	n/a	0.50781	no	n/a	n/a
744.2783203	n/a	190535.25	largeHSmallT	correct	incongruent	0.37646	no	H	T
744.6547852	n/a	190631.625	responseLargeH	correct	n/a	0.37646	no	n/a	n/a
745.7314453	n/a	190907.25	largeHSmallT	correct	incongruent	0.39697	no	H	T
746.128418	n/a	191008.875	responseLargeH	correct	n/a	0.39697	no	n/a	n/a
747.1982422	n/a	191282.75	largeHSmallH	correct	congruent	0.33984	no	H	H
747.5380859	n/a	191369.75	responseLargeH	correct	n/a	0.33984	no	n/a	n/a
748.5981445	n/a	191641.125	largeHSmallH	correct	congruent	0.41846	no	H	H
749.0166016	n/a	191748.25	responseLargeH	correct	n/a	0.41846	no	n/a	n/a
750.078125	n/a	192020	largeTSmallT	correct	congruent	0.32324	no	T	T
750.4013672	n/a	192102.75	responseLargeT	correct	n/a	0.32324	no	n/a	n/a
751.4648438	n/a	192375	largeHSmallT	correct	incongruent	0.33594	no	H	T
751.8007812	n/a	192461	responseLargeH	correct	n/a	0.33594	no	n/a	n/a
752.8779297	n/a	192736.75	largeTSmallT	correct	congruent	0.4873	no	T	T
753.3652344	n/a	192861.5	responseLargeT	correct	n/a	0.4873	no	n/a	n/a
754.4379883	n/a	193136.125	largeTSmallT	correct	congruent	0.54834	no	T	T
754.9863281	n/a	193276.5	responseLargeT	correct	n/a	0.54834	no	n/a	n/a
756.0512695	n/a	193549.125	largeHSmallH	correct	congruent	0.42041	no	H	H
756.4716797	n/a	193656.75	responseLargeH	correct	n/a	0.42041	no	n/a	n/a
757.53125	n/a	193928	largeTSmallT	correct	congruent	0.42676	no	T	T
757.9580078	n/a	194037.25	responseLargeT	correct	n/a	0.42676	no	n/a	n/a
759.0244141	n/a	194310.25	largeTSmallH	correct	incongruent	0.41113	no	T	H
759.4355469	n/a	194415.5	responseLargeT	correct	n/a	0.41113	no	n/a	n/a
760.5043945	n/a	194689.125	largeHSmallH	correct	congruent	0.37793	no	H	H
760.8823242	n/a	194785.875	responseLargeH	correct	n/a	0.37793	no	n/a	n/a
761.9580078	n/a	195061.25	largeHSmallT	correct	incongruent	0.43066	no	H	T
762.3886719	n/a	195171.5	responseLargeH	correct	n/a	0.43066	no	n/a	n/a
763.4511719	n/a	195443.5	largeTSmallH	correct	incongruent	0.43457	no	T	H
763.8857422	n/a	195554.75	responseLargeT	correct	n/a	0.43457	no	n/a	n/a
764.9443359	n/a	195825.75	largeTSmallT	correct	congruent	0.48926	no	T	T
765.4335938	n/a	195951	responseLargeT	correct	n/a	0.48926	no	n/a	n/a
766.5043945	n/a	196225.125	largeTSmallT	correct	congruent	0.44482	no	T	T
766.9492188	n/a	196339	responseLargeT	correct	n/a	0.44482	no	n/a	n/a
768.0244141	n/a	196614.25	largeHSmallT	correct	incongruent	0.38623	no	H	T
768.4106445	n/a	196713.125	responseLargeH	correct	n/a	0.38623	no	n/a	n/a
769.4648438	n/a	196983	largeHSmallH	correct	congruent	0.37109	no	H	H
769.8359375	n/a	197078	responseLargeH	correct	n/a	0.37109	no	n/a	n/a
770.9042969	n/a	197351.5	largeHSmallT	error	incongruent	0.38281	no	H	T
771.2871094	n/a	197449.5	responseLargeT	error	n/a	0.38281	no	n/a	n/a
772.3579102	n/a	197723.625	largeHSmallT	correct	incongruent	0.42822	no	H	T
772.7861328	n/a	197833.25	responseLargeH	correct	n/a	0.42822	no	n/a	n/a
773.8510742	n/a	198105.875	largeHSmallH	correct	congruent	0.41895	no	H	H
774.2700195	n/a	198213.125	responseLargeH	correct	n/a	0.41895	no	n/a	n/a
775.3310547	n/a	198484.75	largeHSmallT	correct	incongruent	0.40186	no	H	T
775.7329102	n/a	198587.625	responseLargeH	correct	n/a	0.40186	no	n/a	n/a
776.7973633	n/a	198860.125	largeTSmallH	correct	incongruent	0.42236	no	T	H
777.2197266	n/a	198968.25	responseLargeT	correct	n/a	0.42236	no	n/a	n/a
778.2910156	n/a	199242.5	largeHSmallH	correct	congruent	0.37988	no	H	H
778.6708984	n/a	199339.75	responseLargeH	correct	n/a	0.37988	no	n/a	n/a
779.730957	n/a	199611.125	largeHSmallH	correct	congruent	0.34619	no	H	H
780.0771484	n/a	199699.75	responseLargeH	correct	n/a	0.34619	no	n/a	n/a
781.144043	n/a	199972.875	largeTSmallH	correct	incongruent	0.46826	no	T	H
781.6123047	n/a	200092.75	responseLargeT	correct	n/a	0.46826	no	n/a	n/a
782.690918	n/a	200368.875	largeHSmallH	correct	congruent	0.38965	no	H	H
783.0805664	n/a	200468.625	responseLargeH	correct	n/a	0.38965	no	n/a	n/a
784.1572266	n/a	200744.25	largeHSmallH	correct	congruent	0.43994	no	H	H
784.597168	n/a	200856.875	responseLargeH	correct	n/a	0.43994	no	n/a	n/a
785.6640625	n/a	201130	largeTSmallH	correct	incongruent	0.51025	no	T	H
786.1743164	n/a	201260.625	responseLargeT	correct	n/a	0.51025	no	n/a	n/a
787.2373047	n/a	201532.75	largeTSmallT	correct	congruent	0.43213	no	T	T
787.6694336	n/a	201643.375	responseLargeT	correct	n/a	0.43213	no	n/a	n/a
788.7436523	n/a	201918.375	largeTSmallT	correct	congruent	0.46631	no	T	T
789.2099609	n/a	202037.75	responseLargeT	correct	n/a	0.46631	no	n/a	n/a
790.2773438	n/a	202311	largeTSmallT	correct	congruent	0.38428	no	T	T
790.6616211	n/a	202409.375	responseLargeT	correct	n/a	0.38428	no	n/a	n/a
791.7304688	n/a	202683	largeTSmallT	correct	congruent	0.42529	no	T	T
792.1557617	n/a	202791.875	responseLargeT	correct	n/a	0.42529	no	n/a	n/a
793.2236328	n/a	203065.25	largeHSmallT	correct	incongruent	0.44385	no	H	T
793.6674805	n/a	203178.875	responseLargeH	correct	n/a	0.44385	no	n/a	n/a
794.7304688	n/a	203451	largeTSmallT	correct	congruent	0.48193	no	T	T
795.2124023	n/a	203574.375	responseLargeT	correct	n/a	0.48193	no	n/a	n/a
796.2905273	n/a	203850.375	largeHSmallH	correct	congruent	0.43701	no	H	H
796.7275391	n/a	203962.25	responseLargeH	correct	n/a	0.43701	no	n/a	n/a
797.796875	n/a	204236	largeHSmallT	correct	incongruent	0.44092	no	H	T
798.237793	n/a	204348.875	responseLargeH	correct	n/a	0.44092	no	n/a	n/a
799.3037109	n/a	204621.75	largeHSmallT	correct	incongruent	0.44678	no	H	T
799.7504883	n/a	204736.125	responseLargeH	correct	n/a	0.44678	no	n/a	n/a
800.8105469	n/a	205007.5	largeHSmallH	correct	congruent	0.41016	no	H	H
801.2207031	n/a	205112.5	responseLargeH	correct	n/a	0.41016	no	n/a	n/a
802.2900391	n/a	205386.25	largeTSmallH	correct	incongruent	0.44238	no	T	H
802.7324219	n/a	205499.5	responseLargeT	correct	n/a	0.44238	no	n/a	n/a
803.8100586	n/a	205775.375	largeTSmallT	correct	congruent	0.9043	no	T	T
804.7143555	n/a	206006.875	responseLargeT	correct	n/a	0.9043	no	n/a	n/a
805.7832031	n/a	206280.5	largeHSmallT	correct	incongruent	0.53076	no	H	T
806.3139648	n/a	206416.375	responseLargeH	correct	n/a	0.53076	no	n/a	n/a
807.3833008	n/a	206690.125	largeHSmallT	correct	incongruent	0.43262	no	H	T
807.815918	n/a	206800.875	responseLargeH	correct	n/a	0.43262	no	n/a	n/a
808.8769531	n/a	207072.5	largeHSmallH	correct	congruent	0.38721	no	H	H
809.2641602	n/a	207171.625	responseLargeH	correct	n/a	0.38721	no	n/a	n/a
810.3300781	n/a	207444.5	largeTSmallT	correct	congruent	0.43555	no	T	T
810.765625	n/a	207556	responseLargeT	correct	n/a	0.43555	no	n/a	n/a
811.8232422	n/a	207826.75	largeTSmallT	correct	congruent	0.44873	no	T	T
812.2719727	n/a	207941.625	responseLargeT	correct	n/a	0.44873	no	n/a	n/a
813.3432617	n/a	208215.875	largeTSmallH	correct	incongruent	0.57031	no	T	H
813.9135742	n/a	208361.875	responseLargeT	correct	n/a	0.57031	no	n/a	n/a
814.9702148	n/a	208632.375	largeTSmallH	correct	incongruent	0.40137	no	T	H
815.371582	n/a	208735.125	responseLargeT	correct	n/a	0.40137	no	n/a	n/a
816.449707	n/a	209011.125	largeHSmallH	correct	congruent	0.41162	no	H	H
816.8613281	n/a	209116.5	responseLargeH	correct	n/a	0.41162	no	n/a	n/a
817.9301758	n/a	209390.125	largeTSmallH	correct	incongruent	0.45801	no	T	H
818.3881836	n/a	209507.375	responseLargeT	correct	n/a	0.45801	no	n/a	n/a
819.449707	n/a	209779.125	largeHSmallH	correct	congruent	0.37451	no	H	H
819.8242188	n/a	209875	responseLargeH	correct	n/a	0.37451	no	n/a	n/a
820.8896484	n/a	210147.75	largeHSmallT	correct	incongruent	0.52686	no	H	T
821.4165039	n/a	210282.625	responseLargeH	correct	n/a	0.52686	no	n/a	n/a
822.4765625	n/a	210554	largeTSmallT	correct	congruent	0.41064	no	T	T
822.887207	n/a	210659.125	responseLargeT	correct	n/a	0.41064	no	n/a	n/a
823.9570312	n/a	210933	largeHSmallH	correct	congruent	0.4458	no	H	H
824.402832	n/a	211047.125	responseLargeH	correct	n/a	0.4458	no	n/a	n/a
825.4765625	n/a	211322	largeTSmallH	correct	incongruent	0.38086	no	T	H
825.8574219	n/a	211419.5	responseLargeT	correct	n/a	0.38086	no	n/a	n/a
826.9296875	n/a	211694	largeHSmallT	correct	incongruent	0.39795	no	H	T
827.3276367	n/a	211795.875	responseLargeH	correct	n/a	0.39795	no	n/a	n/a
828.3964844	n/a	212069.5	largeHSmallT	correct	incongruent	0.6709	no	H	T
829.0673828	n/a	212241.25	responseLargeH	correct	n/a	0.6709	no	n/a	n/a
830.1430664	n/a	212516.625	largeHSmallH	correct	congruent	0.45117	no	H	H
830.5942383	n/a	212632.125	responseLargeH	correct	n/a	0.45117	no	n/a	n/a
831.6762695	n/a	212909.125	largeTSmallT	correct	congruent	0.46289	no	T	T
832.1391602	n/a	213027.625	responseLargeT	correct	n/a	0.46289	no	n/a	n/a
833.2231445	n/a	213305.125	largeTSmallH	correct	incongruent	0.43604	no	T	H
833.6591797	n/a	213416.75	responseLargeT	correct	n/a	0.43604	no	n/a	n/a
834.7294922	n/a	213690.75	largeHSmallT	correct	incongruent	0.40967	no	H	T
835.1391602	n/a	213795.625	responseLargeH	correct	n/a	0.40967	no	n/a	n/a
836.2094727	n/a	214069.625	largeHSmallH	correct	congruent	0.43408	no	H	H
836.6435547	n/a	214180.75	responseLargeH	correct	n/a	0.43408	no	n/a	n/a
837.7026367	n/a	214451.875	largeHSmallH	correct	congruent	0.42578	no	H	H
838.128418	n/a	214560.875	responseLargeH	correct	n/a	0.42578	no	n/a	n/a
839.1826172	n/a	214830.75	largeTSmallT	correct	congruent	0.36914	no	T	T
839.5517578	n/a	214925.25	responseLargeT	correct	n/a	0.36914	no	n/a	n/a
840.6225586	n/a	215199.375	largeHSmallT	correct	incongruent	0.43213	no	H	T
841.0546875	n/a	215310	responseLargeH	correct	n/a	0.43213	no	n/a	n/a
842.1162109	n/a	215581.75	largeTSmallT	correct	congruent	0.46143	no	T	T
842.5776367	n/a	215699.875	responseLargeT	correct	n/a	0.46143	no	n/a	n/a
843.6494141	n/a	215974.25	largeTSmallT	correct	congruent	0.4541	no	T	T
844.1035156	n/a	216090.5	responseLargeT	correct	n/a	0.4541	no	n/a	n/a
845.1826172	n/a	216366.75	largeTSmallT	correct	congruent	0.53516	no	T	T
845.7177734	n/a	216503.75	responseLargeT	correct	n/a	0.53516	no	n/a	n/a
846.7822266	n/a	216776.25	largeTSmallH	correct	incongruent	0.45117	no	T	H
847.2333984	n/a	216891.75	responseLargeT	correct	n/a	0.45117	no	n/a	n/a
848.3027344	n/a	217165.5	largeTSmallH	correct	incongruent	0.375	no	T	H
848.6777344	n/a	217261.5	responseLargeT	correct	n/a	0.375	no	n/a	n/a
849.7558594	n/a	217537.5	largeHSmallT	correct	incongruent	0.36426	no	H	T
850.1201172	n/a	217630.75	responseLargeH	correct	n/a	0.36426	no	n/a	n/a
851.1826172	n/a	217902.75	largeHSmallT	correct	incongruent	0.36621	no	H	T
851.5488281	n/a	217996.5	responseLargeH	correct	n/a	0.36621	no	n/a	n/a
852.6225586	n/a	218271.375	largeHSmallT	correct	incongruent	0.44873	no	H	T
853.0712891	n/a	218386.25	responseLargeH	correct	n/a	0.44873	no	n/a	n/a
854.1289062	n/a	218657	largeTSmallH	correct	incongruent	0.34229	no	T	H
854.4711914	n/a	218744.625	responseLargeT	correct	n/a	0.34229	no	n/a	n/a
855.5424805	n/a	219018.875	largeHSmallH	correct	congruent	0.36719	no	H	H
855.909668	n/a	219112.875	responseLargeH	correct	n/a	0.36719	no	n/a	n/a
856.9692383	n/a	219384.125	largeHSmallT	correct	incongruent	0.43311	no	H	T
857.4023438	n/a	219495	responseLargeH	correct	n/a	0.43311	no	n/a	n/a
858.4755859	n/a	219769.75	largeHSmallT	correct	incongruent	0.39062	no	H	T
858.8662109	n/a	219869.75	responseLargeH	correct	n/a	0.39062	no	n/a	n/a
859.9423828	n/a	220145.25	largeTSmallH	correct	incongruent	0.3999	no	T	H
860.3422852	n/a	220247.625	responseLargeT	correct	n/a	0.3999	no	n/a	n/a
861.4091797	n/a	220520.75	largeHSmallT	correct	incongruent	0.38525	no	H	T
861.7944336	n/a	220619.375	responseLargeH	correct	n/a	0.38525	no	n/a	n/a
862.8623047	n/a	220892.75	largeHSmallT	correct	incongruent	0.38379	no	H	T
863.2460938	n/a	220991	responseLargeH	correct	n/a	0.38379	no	n/a	n/a
864.3154297	n/a	221264.75	largeHSmallH	correct	congruent	0.39209	no	H	H
864.7075195	n/a	221365.125	responseLargeH	correct	n/a	0.39209	no	n/a	n/a
865.7685547	n/a	221636.75	largeTSmallT	correct	congruent	0.32178	no	T	T
866.090332	n/a	221719.125	responseLargeT	correct	n/a	0.32178	no	n/a	n/a
867.1552734	n/a	221991.75	largeHSmallH	correct	congruent	0.39355	no	H	H
867.5488281	n/a	222092.5	responseLargeH	correct	n/a	0.39355	no	n/a	n/a
868.6088867	n/a	222363.875	largeTSmallT	correct	congruent	0.46631	no	T	T
869.0751953	n/a	222483.25	responseLargeT	correct	n/a	0.46631	no	n/a	n/a
870.1420898	n/a	222756.375	largeTSmallT	correct	congruent	0.40186	no	T	T
870.5439453	n/a	222859.25	responseLargeT	correct	n/a	0.40186	no	n/a	n/a
871.6083984	n/a	223131.75	largeTSmallH	correct	incongruent	0.47119	no	T	H
872.0795898	n/a	223252.375	responseLargeT	correct	n/a	0.47119	no	n/a	n/a
873.1552734	n/a	223527.75	largeTSmallT	correct	congruent	0.42969	no	T	T
873.5849609	n/a	223637.75	responseLargeT	correct	n/a	0.42969	no	n/a	n/a
874.6484375	n/a	223910	largeTSmallT	correct	congruent	0.37793	no	T	T
875.0263672	n/a	224006.75	responseLargeT	correct	n/a	0.37793	no	n/a	n/a
876.1020508	n/a	224282.125	largeHSmallH	correct	congruent	0.36963	no	H	H
876.4716797	n/a	224376.75	responseLargeH	correct	n/a	0.36963	no	n/a	n/a
877.5283203	n/a	224647.25	largeHSmallT	correct	incongruent	0.35547	no	H	T
877.8837891	n/a	224738.25	responseLargeH	correct	n/a	0.35547	no	n/a	n/a
878.9550781	n/a	225012.5	largeTSmallH	correct	incongruent	0.31641	no	T	H
879.2714844	n/a	225093.5	responseLargeT	correct	n/a	0.31641	no	n/a	n/a
880.3417969	n/a	225367.5	largeTSmallH	correct	incongruent	0.43848	no	T	H
880.7802734	n/a	225479.75	responseLargeT	correct	n/a	0.43848	no	n/a	n/a
881.8486328	n/a	225753.25	largeTSmallH	correct	incongruent	0.36572	no	T	H
882.2143555	n/a	225846.875	responseLargeT	correct	n/a	0.36572	no	n/a	n/a
883.2885742	n/a	226121.875	largeTSmallT	correct	congruent	0.37158	no	T	T
883.6601562	n/a	226217	responseLargeT	correct	n/a	0.37158	no	n/a	n/a
884.7285156	n/a	226490.5	largeTSmallH	correct	incongruent	0.36816	no	T	H
885.0966797	n/a	226584.75	responseLargeT	correct	n/a	0.36816	no	n/a	n/a
886.1547852	n/a	226855.625	largeHSmallH	correct	congruent	0.35107	no	H	H
886.5058594	n/a	226945.5	responseLargeH	correct	n/a	0.35107	no	n/a	n/a
887.581543	n/a	227220.875	largeHSmallH	correct	congruent	0.43311	no	H	H
888.0146484	n/a	227331.75	responseLargeH	correct	n/a	0.43311	no	n/a	n/a
889.074707	n/a	227603.125	largeTSmallT	correct	congruent	0.44482	no	T	T
889.5195312	n/a	227717	responseLargeT	correct	n/a	0.44482	no	n/a	n/a
890.5947266	n/a	227992.25	largeHSmallT	correct	incongruent	0.53564	no	H	T
891.1303711	n/a	228129.375	responseLargeH	correct	n/a	0.53564	no	n/a	n/a
892.1948242	n/a	228401.875	largeTSmallT	correct	congruent	0.46729	no	T	T
892.6621094	n/a	228521.5	responseLargeT	correct	n/a	0.46729	no	n/a	n/a
893.7280273	n/a	228794.375	largeHSmallH	correct	congruent	0.87109	no	H	H
894.5991211	n/a	229017.375	responseLargeH	correct	n/a	0.87109	no	n/a	n/a
895.6611328	n/a	229289.25	largeTSmallT	correct	congruent	0.44824	no	T	T
896.109375	n/a	229404	responseLargeT	correct	n/a	0.44824	no	n/a	n/a
897.1811523	n/a	229678.375	largeHSmallT	correct	incongruent	0.48486	no	H	T
897.6660156	n/a	229802.5	responseLargeH	correct	n/a	0.48486	no	n/a	n/a
898.7412109	n/a	230077.75	largeTSmallH	correct	incongruent	0.47217	no	T	H
899.2133789	n/a	230198.625	responseLargeT	correct	n/a	0.47217	no	n/a	n/a
900.2749023	n/a	230470.375	largeTSmallT	correct	congruent	0.43457	no	T	T
900.7094727	n/a	230581.625	responseLargeT	correct	n/a	0.43457	no	n/a	n/a
901.78125	n/a	230856	largeTSmallH	correct	incongruent	0.4292	no	T	H
902.2104492	n/a	230965.875	responseLargeT	correct	n/a	0.4292	no	n/a	n/a
903.2744141	n/a	231238.25	largeHSmallT	correct	incongruent	0.37012	no	H	T
903.6445312	n/a	231333	responseLargeH	correct	n/a	0.37012	no	n/a	n/a
904.7143555	n/a	231606.875	largeHSmallT	correct	incongruent	0.42139	no	H	T
905.1357422	n/a	231714.75	responseLargeH	correct	n/a	0.42139	no	n/a	n/a
906.2080078	n/a	231989.25	largeTSmallT	correct	congruent	0.32129	no	T	T
906.5292969	n/a	232071.5	responseLargeT	correct	n/a	0.32129	no	n/a	n/a
907.5947266	n/a	232344.25	largeHSmallH	correct	congruent	0.31934	no	H	H
907.9140625	n/a	232426	responseLargeH	correct	n/a	0.31934	no	n/a	n/a
908.980957	n/a	232699.125	largeTSmallT	correct	congruent	0.41309	no	T	T
909.394043	n/a	232804.875	responseLargeT	correct	n/a	0.41309	no	n/a	n/a
910.4609375	n/a	233078	largeTSmallH	correct	incongruent	0.45361	no	T	H
910.9145508	n/a	233194.125	responseLargeT	correct	n/a	0.45361	no	n/a	n/a
911.980957	n/a	233467.125	largeHSmallT	correct	incongruent	0.46191	no	H	T
912.4428711	n/a	233585.375	responseLargeH	correct	n/a	0.46191	no	n/a	n/a
913.5009766	n/a	233856.25	largeHSmallH	correct	congruent	0.396	no	H	H
913.8969727	n/a	233957.625	responseLargeH	correct	n/a	0.396	no	n/a	n/a
914.9541016	n/a	234228.25	largeTSmallH	correct	incongruent	0.41357	no	T	H
915.3676758	n/a	234334.125	responseLargeT	correct	n/a	0.41357	no	n/a	n/a
916.4345703	n/a	234607.25	largeHSmallT	correct	incongruent	0.35205	no	H	T
916.7866211	n/a	234697.375	responseLargeH	correct	n/a	0.35205	no	n/a	n/a
917.8608398	n/a	234972.375	largeTSmallT	correct	congruent	0.48193	no	T	T
918.3427734	n/a	235095.75	responseLargeT	correct	n/a	0.48193	no	n/a	n/a
919.4077148	n/a	235368.375	largeHSmallT	correct	incongruent	0.36865	no	H	T
919.7763672	n/a	235462.75	responseLargeH	correct	n/a	0.36865	no	n/a	n/a
920.8339844	n/a	235733.5	largeHSmallT	correct	incongruent	0.47607	no	H	T
921.3100586	n/a	235855.375	responseLargeH	correct	n/a	0.47607	no	n/a	n/a
922.3808594	n/a	236129.5	largeTSmallT	correct	congruent	0.42969	no	T	T
922.8105469	n/a	236239.5	responseLargeT	correct	n/a	0.42969	no	n/a	n/a
923.8876953	n/a	236515.25	largeTSmallH	correct	incongruent	0.45703	no	T	H
924.3447266	n/a	236632.25	responseLargeT	correct	n/a	0.45703	no	n/a	n/a
925.4072266	n/a	236904.25	largeTSmallH	correct	incongruent	0.3999	no	T	H
925.8071289	n/a	237006.625	responseLargeT	correct	n/a	0.3999	no	n/a	n/a
926.8740234	n/a	237279.75	largeTSmallH	correct	incongruent	0.33301	no	T	H
927.2070312	n/a	237365	responseLargeT	correct	n/a	0.33301	no	n/a	n/a
928.2739258	n/a	237638.125	largeHSmallH	correct	congruent	0.37842	no	H	H
928.6523438	n/a	237735	responseLargeH	correct	n/a	0.37842	no	n/a	n/a
929.7138672	n/a	238006.75	largeTSmallH	correct	incongruent	0.38477	no	T	H
930.0986328	n/a	238105.25	responseLargeT	correct	n/a	0.38477	no	n/a	n/a
931.1669922	n/a	238378.75	largeTSmallH	correct	incongruent	0.38818	no	T	H
931.5551758	n/a	238478.125	responseLargeT	correct	n/a	0.38818	no	n/a	n/a
932.6206055	n/a	238750.875	largeTSmallH	correct	incongruent	0.34082	no	T	H
932.9614258	n/a	238838.125	responseLargeT	correct	n/a	0.34082	no	n/a	n/a
934.0336914	n/a	239112.625	largeTSmallT	error	congruent	0.30127	no	T	T
934.3349609	n/a	239189.75	responseLargeH	error	n/a	0.30127	no	n/a	n/a
935.4072266	n/a	239464.25	largeTSmallH	correct	incongruent	0.4707	no	T	H
935.8779297	n/a	239584.75	responseLargeT	correct	n/a	0.4707	no	n/a	n/a
936.9536133	n/a	239860.125	largeTSmallH	correct	incongruent	0.28125	no	T	H
937.2348633	n/a	239932.125	responseLargeT	correct	n/a	0.28125	no	n/a	n/a
938.3139648	n/a	240208.375	largeHSmallT	correct	incongruent	0.3623	no	H	T
938.6762695	n/a	240301.125	responseLargeH	correct	n/a	0.3623	no	n/a	n/a
939.7402344	n/a	240573.5	largeTSmallH	correct	incongruent	0.39551	no	T	H
940.1357422	n/a	240674.75	responseLargeT	correct	n/a	0.39551	no	n/a	n/a
941.1938477	n/a	240945.625	largeHSmallH	correct	congruent	0.37061	no	H	H
941.5644531	n/a	241040.5	responseLargeH	correct	n/a	0.37061	no	n/a	n/a
942.6333008	n/a	241314.125	largeHSmallH	correct	congruent	0.40234	no	H	H
943.0356445	n/a	241417.125	responseLargeH	correct	n/a	0.40234	no	n/a	n/a
944.1000977	n/a	241689.625	largeTSmallH	correct	incongruent	0.41602	no	T	H
944.5161133	n/a	241796.125	responseLargeT	correct	n/a	0.41602	no	n/a	n/a
945.5800781	n/a	242068.5	largeHSmallH	correct	congruent	0.42871	no	H	H
946.0087891	n/a	242178.25	responseLargeH	correct	n/a	0.42871	no	n/a	n/a
947.0737305	n/a	242450.875	largeHSmallT	correct	incongruent	0.45801	no	H	T
947.5317383	n/a	242568.125	responseLargeH	correct	n/a	0.45801	no	n/a	n/a
948.6069336	n/a	242843.375	largeHSmallH	correct	congruent	0.37695	no	H	H
948.9838867	n/a	242939.875	responseLargeH	correct	n/a	0.37695	no	n/a	n/a
950.0600586	n/a	243215.375	largeTSmallT	correct	congruent	0.46289	no	T	T
950.5229492	n/a	243333.875	responseLargeT	correct	n/a	0.46289	no	n/a	n/a
951.5932617	n/a	243607.875	largeTSmallH	correct	incongruent	0.35205	no	T	H
951.9453125	n/a	243698	responseLargeT	correct	n/a	0.35205	no	n/a	n/a
958.8730469	n/a	245471.5	largeTSmallT	correct	congruent	0.53418	no	T	T
959.4072266	n/a	245608.25	responseSmallT	correct	n/a	0.53418	no	n/a	n/a
960.4731445	n/a	245881.125	largeHSmallH	correct	congruent	0.41943	no	H	H
960.8925781	n/a	245988.5	responseSmallH	correct	n/a	0.41943	no	n/a	n/a
961.9667969	n/a	246263.5	largeTSmallT	correct	congruent	0.40186	no	T	T
962.3686523	n/a	246366.375	responseSmallT	correct	n/a	0.40186	no	n/a	n/a
963.4462891	n/a	246642.25	largeTSmallH	correct	incongruent	0.51318	no	T	H
963.9594727	n/a	246773.625	responseSmallH	correct	n/a	0.51318	no	n/a	n/a
965.0332031	n/a	247048.5	largeTSmallT	correct	congruent	0.35254	no	T	T
965.3857422	n/a	247138.75	responseSmallT	correct	n/a	0.35254	no	n/a	n/a
966.4462891	n/a	247410.25	largeHSmallT	correct	incongruent	0.40723	no	H	T
966.8535156	n/a	247514.5	responseSmallT	correct	n/a	0.40723	no	n/a	n/a
967.9262695	n/a	247789.125	largeTSmallT	correct	congruent	0.39404	no	T	T
968.3203125	n/a	247890	responseSmallT	correct	n/a	0.39404	no	n/a	n/a
969.3798828	n/a	248161.25	largeTSmallT	correct	congruent	0.40918	no	T	T
969.7890625	n/a	248266	responseSmallT	correct	n/a	0.40918	no	n/a	n/a
970.8461914	n/a	248536.625	largeTSmallH	correct	incongruent	0.57715	no	T	H
971.4233398	n/a	248684.375	responseSmallH	correct	n/a	0.57715	no	n/a	n/a
972.4863281	n/a	248956.5	largeHSmallT	correct	incongruent	0.48779	no	H	T
972.9741211	n/a	249081.375	responseSmallT	correct	n/a	0.48779	no	n/a	n/a
974.0327148	n/a	249352.375	largeHSmallH	correct	congruent	0.37207	no	H	H
974.4047852	n/a	249447.625	responseSmallH	correct	n/a	0.37207	no	n/a	n/a
975.4726562	n/a	249721	largeTSmallT	correct	congruent	0.44141	no	T	T
975.9140625	n/a	249834	responseSmallT	correct	n/a	0.44141	no	n/a	n/a
976.9794922	n/a	250106.75	largeHSmallT	error	incongruent	0.43115	no	H	T
977.4106445	n/a	250217.125	responseSmallH	error	n/a	0.43115	no	n/a	n/a
978.4863281	n/a	250492.5	largeHSmallT	correct	incongruent	0.60352	no	H	T
979.0898438	n/a	250647	responseSmallT	correct	n/a	0.60352	no	n/a	n/a
980.1665039	n/a	250922.625	largeHSmallT	correct	incongruent	0.43408	no	H	T
980.6005859	n/a	251033.75	responseSmallT	correct	n/a	0.43408	no	n/a	n/a
981.659668	n/a	251304.875	largeTSmallH	correct	incongruent	0.41211	no	T	H
982.0717773	n/a	251410.375	responseSmallH	correct	n/a	0.41211	no	n/a	n/a
983.152832	n/a	251687.125	largeHSmallH	correct	congruent	0.45605	no	H	H
983.6088867	n/a	251803.875	responseSmallH	correct	n/a	0.45605	no	n/a	n/a
984.6728516	n/a	252076.25	largeHSmallT	correct	incongruent	0.41699	no	H	T
985.0898438	n/a	252183	responseSmallT	correct	n/a	0.41699	no	n/a	n/a
986.152832	n/a	252455.125	largeHSmallT	correct	incongruent	0.55713	no	H	T
986.7099609	n/a	252597.75	responseSmallT	correct	n/a	0.55713	no	n/a	n/a
987.7792969	n/a	252871.5	largeHSmallT	correct	incongruent	0.42725	no	H	T
988.206543	n/a	252980.875	responseSmallT	correct	n/a	0.42725	no	n/a	n/a
989.2724609	n/a	253253.75	largeHSmallH	correct	congruent	0.44482	no	H	H
989.7172852	n/a	253367.625	responseSmallH	correct	n/a	0.44482	no	n/a	n/a
990.7924805	n/a	253642.875	largeTSmallH	correct	incongruent	0.38916	no	T	H
991.1816406	n/a	253742.5	responseSmallH	correct	n/a	0.38916	no	n/a	n/a
992.2592773	n/a	254018.375	largeHSmallT	correct	incongruent	0.45215	no	H	T
992.7114258	n/a	254134.125	responseSmallT	correct	n/a	0.45215	no	n/a	n/a
993.7792969	n/a	254407.5	largeHSmallH	correct	congruent	0.39062	no	H	H
994.1699219	n/a	254507.5	responseSmallH	correct	n/a	0.39062	no	n/a	n/a
995.2324219	n/a	254779.5	largeTSmallT	correct	congruent	0.40625	no	T	T
995.6386719	n/a	254883.5	responseSmallT	correct	n/a	0.40625	no	n/a	n/a
996.6992188	n/a	255155	largeHSmallH	correct	congruent	0.38525	no	H	H
997.0844727	n/a	255253.625	responseSmallH	correct	n/a	0.38525	no	n/a	n/a
998.1523438	n/a	255527	largeTSmallT	correct	congruent	0.42285	no	T	T
998.5751953	n/a	255635.25	responseSmallT	correct	n/a	0.42285	no	n/a	n/a
999.6455078	n/a	255909.25	largeTSmallH	correct	incongruent	0.37549	no	T	H
1000.020996	n/a	256005.375	responseSmallH	correct	n/a	0.37549	no	n/a	n/a
1001.085938	n/a	256278	largeTSmallH	correct	incongruent	0.42627	no	T	H
1001.512207	n/a	256387.125	responseSmallH	correct	n/a	0.42627	no	n/a	n/a
1002.579102	n/a	256660.25	largeTSmallT	correct	congruent	0.43408	no	T	T
1003.013184	n/a	256771.375	responseSmallT	correct	n/a	0.43408	no	n/a	n/a
1004.085449	n/a	257045.875	largeTSmallT	correct	congruent	0.4043	no	T	T
1004.489746	n/a	257149.375	responseSmallT	correct	n/a	0.4043	no	n/a	n/a
1005.56543	n/a	257424.75	largeHSmallT	correct	incongruent	0.40381	no	H	T
1005.969238	n/a	257528.125	responseSmallT	correct	n/a	0.40381	no	n/a	n/a
1007.04541	n/a	257803.625	largeHSmallT	correct	incongruent	0.44287	no	H	T
1007.488281	n/a	257917	responseSmallT	correct	n/a	0.44287	no	n/a	n/a
1008.552246	n/a	258189.375	largeTSmallH	correct	incongruent	0.41211	no	T	H
1008.964355	n/a	258294.875	responseSmallH	correct	n/a	0.41211	no	n/a	n/a
1010.018555	n/a	258564.75	largeHSmallT	correct	incongruent	0.87988	no	H	T
1010.898438	n/a	258790	responseSmallT	correct	n/a	0.87988	no	n/a	n/a
1011.952148	n/a	259059.75	largeTSmallH	correct	incongruent	0.43799	no	T	H
1012.390137	n/a	259171.875	responseSmallH	correct	n/a	0.43799	no	n/a	n/a
1013.458496	n/a	259445.375	largeHSmallH	correct	congruent	0.46826	no	H	H
1013.926758	n/a	259565.25	responseSmallH	correct	n/a	0.46826	no	n/a	n/a
1015.005371	n/a	259841.375	largeHSmallT	correct	incongruent	0.45996	no	H	T
1015.465332	n/a	259959.125	responseSmallT	correct	n/a	0.45996	no	n/a	n/a
1016.525391	n/a	260230.5	largeHSmallH	correct	congruent	0.38818	no	H	H
1016.913574	n/a	260329.875	responseSmallH	correct	n/a	0.38818	no	n/a	n/a
1017.978516	n/a	260602.5	largeHSmallT	correct	incongruent	0.40479	no	H	T
1018.383301	n/a	260706.125	responseSmallT	correct	n/a	0.40479	no	n/a	n/a
1019.445312	n/a	260978	largeHSmallT	correct	incongruent	0.4165	no	H	T
1019.861816	n/a	261084.625	responseSmallT	correct	n/a	0.4165	no	n/a	n/a
1020.925293	n/a	261356.875	largeHSmallH	correct	congruent	0.41504	no	H	H
1021.340332	n/a	261463.125	responseSmallH	correct	n/a	0.41504	no	n/a	n/a
1022.405273	n/a	261735.75	largeHSmallT	correct	incongruent	0.37793	no	H	T
1022.783203	n/a	261832.5	responseSmallT	correct	n/a	0.37793	no	n/a	n/a
1023.845215	n/a	262104.375	largeTSmallH	correct	incongruent	0.51709	no	T	H
1024.362305	n/a	262236.75	responseSmallH	correct	n/a	0.51709	no	n/a	n/a
1025.431641	n/a	262510.5	largeTSmallH	error	incongruent	0.46191	no	T	H
1025.893555	n/a	262628.75	responseSmallT	error	n/a	0.46191	no	n/a	n/a
1026.965332	n/a	262903.125	largeHSmallT	correct	incongruent	0.59766	no	H	T
1027.562988	n/a	263056.125	responseSmallT	correct	n/a	0.59766	no	n/a	n/a
1028.631836	n/a	263329.75	largeTSmallT	correct	congruent	0.45312	no	T	T
1029.084961	n/a	263445.75	responseSmallT	correct	n/a	0.45312	no	n/a	n/a
1030.151855	n/a	263718.875	largeTSmallH	correct	incongruent	0.47461	no	T	H
1030.626465	n/a	263840.375	responseSmallH	correct	n/a	0.47461	no	n/a	n/a
1031.698242	n/a	264114.75	largeTSmallT	correct	congruent	0.43213	no	T	T
1032.130371	n/a	264225.375	responseSmallT	correct	n/a	0.43213	no	n/a	n/a
1033.205078	n/a	264500.5	largeTSmallT	correct	congruent	0.43359	no	T	T
1033.638672	n/a	264611.5	responseSmallT	correct	n/a	0.43359	no	n/a	n/a
1034.698242	n/a	264882.75	largeTSmallT	correct	congruent	0.3833	no	T	T
1035.081543	n/a	264980.875	responseSmallT	correct	n/a	0.3833	no	n/a	n/a
1036.151367	n/a	265254.75	largeHSmallT	correct	incongruent	0.41064	no	H	T
1036.562012	n/a	265359.875	responseSmallT	correct	n/a	0.41064	no	n/a	n/a
1037.631348	n/a	265633.625	largeHSmallH	correct	congruent	0.43994	no	H	H
1038.071289	n/a	265746.25	responseSmallH	correct	n/a	0.43994	no	n/a	n/a
1039.138184	n/a	266019.375	largeTSmallT	correct	congruent	0.37012	no	T	T
1039.508301	n/a	266114.125	responseSmallT	correct	n/a	0.37012	no	n/a	n/a
1040.564941	n/a	266384.625	largeHSmallT	correct	incongruent	0.42627	no	H	T
1040.991211	n/a	266493.75	responseSmallT	correct	n/a	0.42627	no	n/a	n/a
1042.071289	n/a	266770.25	largeHSmallH	correct	congruent	0.45459	no	H	H
1042.525879	n/a	266886.625	responseSmallH	correct	n/a	0.45459	no	n/a	n/a
1043.591309	n/a	267159.375	largeTSmallT	correct	congruent	0.34814	no	T	T
1043.939453	n/a	267248.5	responseSmallT	correct	n/a	0.34814	no	n/a	n/a
1045.004883	n/a	267521.25	largeHSmallT	correct	incongruent	0.65234	no	H	T
1045.657227	n/a	267688.25	responseSmallT	correct	n/a	0.65234	no	n/a	n/a
1046.724609	n/a	267961.5	largeHSmallT	correct	incongruent	0.46143	no	H	T
1047.186035	n/a	268079.625	responseSmallT	correct	n/a	0.46143	no	n/a	n/a
1048.257812	n/a	268354	largeTSmallH	correct	incongruent	0.71289	no	T	H
1048.970703	n/a	268536.5	responseSmallH	correct	n/a	0.71289	no	n/a	n/a
1050.044434	n/a	268811.375	largeHSmallH	correct	congruent	0.4668	no	H	H
1050.51123	n/a	268930.875	responseSmallH	correct	n/a	0.4668	no	n/a	n/a
1051.577637	n/a	269203.875	largeHSmallH	correct	congruent	0.41455	no	H	H
1051.992188	n/a	269310	responseSmallH	correct	n/a	0.41455	no	n/a	n/a
1053.057617	n/a	269582.75	largeHSmallT	correct	incongruent	0.39697	no	H	T
1053.45459	n/a	269684.375	responseSmallT	correct	n/a	0.39697	no	n/a	n/a
1054.510742	n/a	269954.75	largeHSmallT	correct	incongruent	0.60986	no	H	T
1055.120605	n/a	270110.875	responseSmallT	correct	n/a	0.60986	no	n/a	n/a
1056.190918	n/a	270384.875	largeHSmallT	correct	incongruent	0.40527	no	H	T
1056.596191	n/a	270488.625	responseSmallT	correct	n/a	0.40527	no	n/a	n/a
1057.670898	n/a	270763.75	largeTSmallH	correct	incongruent	0.46143	no	T	H
1058.132324	n/a	270881.875	responseSmallH	correct	n/a	0.46143	no	n/a	n/a
1059.190918	n/a	271152.875	largeTSmallT	correct	congruent	0.44531	no	T	T
1059.63623	n/a	271266.875	responseSmallT	correct	n/a	0.44531	no	n/a	n/a
1060.710938	n/a	271542	largeHSmallH	correct	congruent	0.45557	no	H	H
1061.166504	n/a	271658.625	responseSmallH	correct	n/a	0.45557	no	n/a	n/a
1062.244141	n/a	271934.5	largeTSmallH	correct	incongruent	0.51465	no	T	H
1062.758789	n/a	272066.25	responseSmallH	correct	n/a	0.51465	no	n/a	n/a
1063.831055	n/a	272340.75	largeTSmallH	correct	incongruent	0.40283	no	T	H
1064.233887	n/a	272443.875	responseSmallH	correct	n/a	0.40283	no	n/a	n/a
1065.297852	n/a	272716.25	largeHSmallH	error	congruent	0.42676	no	H	H
1065.724609	n/a	272825.5	responseSmallT	error	n/a	0.42676	no	n/a	n/a
1066.791016	n/a	273098.5	largeTSmallH	correct	incongruent	0.43848	no	T	H
1067.229492	n/a	273210.75	responseSmallH	correct	n/a	0.43848	no	n/a	n/a
1068.28418	n/a	273480.75	largeHSmallH	correct	congruent	0.49707	no	H	H
1068.78125	n/a	273608	responseSmallH	correct	n/a	0.49707	no	n/a	n/a
1069.857422	n/a	273883.5	largeTSmallT	correct	congruent	0.48438	no	T	T
1070.341797	n/a	274007.5	responseSmallT	correct	n/a	0.48438	no	n/a	n/a
1071.404297	n/a	274279.5	largeTSmallH	correct	incongruent	0.44873	no	T	H
1071.853027	n/a	274394.375	responseSmallH	correct	n/a	0.44873	no	n/a	n/a
1072.923828	n/a	274668.5	largeTSmallH	correct	incongruent	0.48438	no	T	H
1073.408203	n/a	274792.5	responseSmallH	correct	n/a	0.48438	no	n/a	n/a
1074.483887	n/a	275067.875	largeTSmallT	correct	congruent	0.48291	no	T	T
1074.966797	n/a	275191.5	responseSmallT	correct	n/a	0.48291	no	n/a	n/a
1076.030762	n/a	275463.875	largeHSmallH	correct	congruent	0.47852	no	H	H
1076.509277	n/a	275586.375	responseSmallH	correct	n/a	0.47852	no	n/a	n/a
1077.577148	n/a	275859.75	largeTSmallT	correct	congruent	0.4917	no	T	T
1078.068848	n/a	275985.625	responseSmallT	correct	n/a	0.4917	no	n/a	n/a
1079.137207	n/a	276259.125	largeTSmallT	correct	congruent	0.39062	no	T	T
1079.527832	n/a	276359.125	responseSmallT	correct	n/a	0.39062	no	n/a	n/a
1080.604004	n/a	276634.625	largeTSmallH	correct	incongruent	0.4624	no	T	H
1081.066406	n/a	276753	responseSmallH	correct	n/a	0.4624	no	n/a	n/a
1082.123535	n/a	277023.625	largeHSmallT	correct	incongruent	0.50488	no	H	T
1082.628418	n/a	277152.875	responseSmallT	correct	n/a	0.50488	no	n/a	n/a
1083.697266	n/a	277426.5	largeTSmallH	correct	incongruent	0.45166	no	T	H
1084.148926	n/a	277542.125	responseSmallH	correct	n/a	0.45166	no	n/a	n/a
1085.217285	n/a	277815.625	largeTSmallT	correct	congruent	0.4541	no	T	T
1085.671387	n/a	277931.875	responseSmallT	correct	n/a	0.4541	no	n/a	n/a
1086.750488	n/a	278208.125	largeHSmallT	correct	incongruent	0.60352	no	H	T
1087.354004	n/a	278362.625	responseSmallT	correct	n/a	0.60352	no	n/a	n/a
1088.416992	n/a	278634.75	largeHSmallT	correct	incongruent	0.49658	no	H	T
1088.913574	n/a	278761.875	responseSmallT	correct	n/a	0.49658	no	n/a	n/a
1089.976562	n/a	279034	largeTSmallH	correct	incongruent	0.44971	no	T	H
1090.42627	n/a	279149.125	responseSmallH	correct	n/a	0.44971	no	n/a	n/a
1091.483398	n/a	279419.75	largeHSmallH	correct	congruent	0.38672	no	H	H
1091.870117	n/a	279518.75	responseSmallH	correct	n/a	0.38672	no	n/a	n/a
1092.937012	n/a	279791.875	largeTSmallT	correct	congruent	0.4624	no	T	T
1093.399414	n/a	279910.25	responseSmallT	correct	n/a	0.4624	no	n/a	n/a
1094.470215	n/a	280184.375	largeTSmallT	correct	congruent	0.45264	no	T	T
1094.922852	n/a	280300.25	responseSmallT	correct	n/a	0.45264	no	n/a	n/a
1096.003418	n/a	280576.875	largeTSmallH	correct	incongruent	0.45605	no	T	H
1096.459473	n/a	280693.625	responseSmallH	correct	n/a	0.45605	no	n/a	n/a
1097.523438	n/a	280966	largeHSmallH	error	congruent	0.42725	no	H	H
1097.950684	n/a	281075.375	responseSmallT	error	n/a	0.42725	no	n/a	n/a
1099.016602	n/a	281348.25	largeTSmallH	correct	incongruent	0.48584	no	T	H
1099.502441	n/a	281472.625	responseSmallH	correct	n/a	0.48584	no	n/a	n/a
1100.563477	n/a	281744.25	largeTSmallT	correct	congruent	0.56641	no	T	T
1101.129883	n/a	281889.25	responseSmallT	correct	n/a	0.56641	no	n/a	n/a
1102.203125	n/a	282164	largeHSmallT	correct	incongruent	0.70068	no	H	T
