onset	duration	sample	value	response_type	congruence	response_time	response_out_of_range	largeletter	smallletter
46.2109375	n/a	11830	largeHSmallT	correct	incongruent	1.5312	yes	H	T
47.7421875	n/a	12222	responseLargeH	correct	n/a	1.5312	yes	n/a	n/a
48.80859375	n/a	12495	largeTSmallH	correct	incongruent	1.2539	no	T	H
50.0625	n/a	12816	responseLargeT	correct	n/a	1.2539	no	n/a	n/a
51.12890625	n/a	13089	largeHSmallH	correct	congruent	1.0195	no	H	H
52.1484375	n/a	13350	responseLargeH	correct	n/a	1.0195	no	n/a	n/a
53.22265625	n/a	13625	largeTSmallT	correct	congruent	0.71094	no	T	T
53.93359375	n/a	13807	responseLargeT	correct	n/a	0.71094	no	n/a	n/a
54.99609375	n/a	14079	largeHSmallT	correct	incongruent	0.58203	no	H	T
55.578125	n/a	14228	responseLargeH	correct	n/a	0.58203	no	n/a	n/a
56.6484375	n/a	14502	largeTSmallH	correct	incongruent	0.64844	no	T	H
57.296875	n/a	14668	responseLargeT	correct	n/a	0.64844	no	n/a	n/a
58.3671875	n/a	14942	largeHSmallH	correct	congruent	0.68359	no	H	H
59.05078125	n/a	15117	responseLargeH	correct	n/a	0.68359	no	n/a	n/a
60.11328125	n/a	15389	largeHSmallH	correct	congruent	0.55859	no	H	H
60.671875	n/a	15532	responseLargeH	correct	n/a	0.55859	no	n/a	n/a
61.7421875	n/a	15806	largeTSmallT	correct	congruent	0.58984	no	T	T
62.33203125	n/a	15957	responseLargeT	correct	n/a	0.58984	no	n/a	n/a
63.41015625	n/a	16233	largeTSmallT	correct	congruent	0.57812	no	T	T
63.98828125	n/a	16381	responseLargeT	correct	n/a	0.57812	no	n/a	n/a
65.0625	n/a	16656	largeTSmallT	correct	congruent	0.53125	no	T	T
65.59375	n/a	16792	responseLargeT	correct	n/a	0.53125	no	n/a	n/a
66.66015625	n/a	17065	largeTSmallH	correct	incongruent	0.53516	no	T	H
67.1953125	n/a	17202	responseLargeT	correct	n/a	0.53516	no	n/a	n/a
68.2734375	n/a	17478	largeTSmallT	correct	congruent	0.59375	no	T	T
68.8671875	n/a	17630	responseLargeT	correct	n/a	0.59375	no	n/a	n/a
69.9296875	n/a	17902	largeHSmallT	correct	incongruent	0.56641	no	H	T
70.49609375	n/a	18047	responseLargeH	correct	n/a	0.56641	no	n/a	n/a
71.56640625	n/a	18321	largeHSmallH	correct	congruent	0.44531	no	H	H
72.01171875	n/a	18435	responseLargeH	correct	n/a	0.44531	no	n/a	n/a
73.07421875	n/a	18707	largeTSmallH	correct	incongruent	0.53125	no	T	H
73.60546875	n/a	18843	responseLargeT	correct	n/a	0.53125	no	n/a	n/a
74.67578125	n/a	19117	largeHSmallH	correct	congruent	0.47266	no	H	H
75.1484375	n/a	19238	responseLargeH	correct	n/a	0.47266	no	n/a	n/a
76.22265625	n/a	19513	largeTSmallT	correct	congruent	0.48047	no	T	T
76.703125	n/a	19636	responseLargeT	correct	n/a	0.48047	no	n/a	n/a
77.76953125	n/a	19909	largeHSmallT	correct	incongruent	0.5	no	H	T
78.26953125	n/a	20037	responseLargeH	correct	n/a	0.5	no	n/a	n/a
79.33984375	n/a	20311	largeHSmallT	error	incongruent	0.46094	no	H	T
79.80078125	n/a	20429	responseLargeT	error	n/a	0.46094	no	n/a	n/a
80.875	n/a	20704	largeHSmallH	correct	congruent	0.64062	no	H	H
81.515625	n/a	20868	responseLargeH	correct	n/a	0.64062	no	n/a	n/a
82.58203125	n/a	21141	largeHSmallT	correct	incongruent	0.41406	no	H	T
82.99609375	n/a	21247	responseLargeH	correct	n/a	0.41406	no	n/a	n/a
84.0625	n/a	21520	largeTSmallH	correct	incongruent	0.50781	no	T	H
84.5703125	n/a	21650	responseLargeT	correct	n/a	0.50781	no	n/a	n/a
85.6328125	n/a	21922	largeTSmallH	error	incongruent	0.35547	no	T	H
85.98828125	n/a	22013	responseLargeH	error	n/a	0.35547	no	n/a	n/a
87.0625	n/a	22288	largeTSmallH	correct	incongruent	0.48047	no	T	H
87.54296875	n/a	22411	responseLargeT	correct	n/a	0.48047	no	n/a	n/a
88.62109375	n/a	22687	largeTSmallT	correct	congruent	0.44922	no	T	T
89.0703125	n/a	22802	responseLargeT	correct	n/a	0.44922	no	n/a	n/a
90.140625	n/a	23076	largeHSmallH	correct	congruent	0.47656	no	H	H
90.6171875	n/a	23198	responseLargeH	correct	n/a	0.47656	no	n/a	n/a
91.6875	n/a	23472	largeHSmallT	correct	incongruent	0.46094	no	H	T
92.1484375	n/a	23590	responseLargeH	correct	n/a	0.46094	no	n/a	n/a
93.22265625	n/a	23865	largeHSmallT	correct	incongruent	0.50391	no	H	T
93.7265625	n/a	23994	responseLargeH	correct	n/a	0.50391	no	n/a	n/a
94.79296875	n/a	24267	largeHSmallH	correct	congruent	0.41406	no	H	H
95.20703125	n/a	24373	responseLargeH	correct	n/a	0.41406	no	n/a	n/a
96.2734375	n/a	24646	largeHSmallT	correct	incongruent	0.46094	no	H	T
96.734375	n/a	24764	responseLargeH	correct	n/a	0.46094	no	n/a	n/a
97.80859375	n/a	25039	largeHSmallH	correct	congruent	0.45312	no	H	H
98.26171875	n/a	25155	responseLargeH	correct	n/a	0.45312	no	n/a	n/a
99.328125	n/a	25428	largeHSmallT	correct	incongruent	0.43359	no	H	T
99.76171875	n/a	25539	responseLargeH	correct	n/a	0.43359	no	n/a	n/a
100.8320312	n/a	25813	largeTSmallH	correct	incongruent	0.59375	no	T	H
101.4257812	n/a	25965	responseLargeT	correct	n/a	0.59375	no	n/a	n/a
102.5	n/a	26240	largeTSmallH	correct	incongruent	0.40625	no	T	H
102.90625	n/a	26344	responseLargeT	correct	n/a	0.40625	no	n/a	n/a
103.9804688	n/a	26619	largeHSmallH	correct	congruent	0.46875	no	H	H
104.4492188	n/a	26739	responseLargeH	correct	n/a	0.46875	no	n/a	n/a
105.5273438	n/a	27015	largeTSmallH	correct	incongruent	0.5625	no	T	H
106.0898438	n/a	27159	responseLargeT	correct	n/a	0.5625	no	n/a	n/a
107.1679688	n/a	27435	largeTSmallH	error	incongruent	0.36328	no	T	H
107.53125	n/a	27528	responseLargeH	error	n/a	0.36328	no	n/a	n/a
108.6054688	n/a	27803	largeTSmallH	correct	incongruent	0.5	no	T	H
109.1054688	n/a	27931	responseLargeT	correct	n/a	0.5	no	n/a	n/a
110.1796875	n/a	28206	largeHSmallT	correct	incongruent	0.80078	no	H	T
110.9804688	n/a	28411	responseLargeH	correct	n/a	0.80078	no	n/a	n/a
112.046875	n/a	28684	largeTSmallT	correct	congruent	0.66016	no	T	T
112.7070312	n/a	28853	responseLargeT	correct	n/a	0.66016	no	n/a	n/a
113.78125	n/a	29128	largeTSmallT	correct	congruent	0.47656	no	T	T
114.2578125	n/a	29250	responseLargeT	correct	n/a	0.47656	no	n/a	n/a
115.328125	n/a	29524	largeHSmallT	correct	incongruent	0.57812	no	H	T
115.90625	n/a	29672	responseLargeH	correct	n/a	0.57812	no	n/a	n/a
116.9804688	n/a	29947	largeHSmallH	correct	congruent	0.62109	no	H	H
117.6015625	n/a	30106	responseLargeH	correct	n/a	0.62109	no	n/a	n/a
118.671875	n/a	30380	largeHSmallT	correct	incongruent	0.46484	no	H	T
119.1367188	n/a	30499	responseLargeH	correct	n/a	0.46484	no	n/a	n/a
120.2070312	n/a	30773	largeHSmallH	correct	congruent	0.51953	no	H	H
120.7265625	n/a	30906	responseLargeH	correct	n/a	0.51953	no	n/a	n/a
121.7929688	n/a	31179	largeTSmallT	correct	congruent	0.48438	no	T	T
122.2773438	n/a	31303	responseLargeT	correct	n/a	0.48438	no	n/a	n/a
123.3398438	n/a	31575	largeTSmallT	correct	congruent	0.32031	no	T	T
123.6601562	n/a	31657	responseLargeT	correct	n/a	0.32031	no	n/a	n/a
124.7265625	n/a	31930	largeTSmallH	correct	incongruent	0.42188	no	T	H
125.1484375	n/a	32038	responseLargeT	correct	n/a	0.42188	no	n/a	n/a
126.2070312	n/a	32309	largeHSmallT	correct	incongruent	0.51172	no	H	T
126.71875	n/a	32440	responseLargeH	correct	n/a	0.51172	no	n/a	n/a
127.7929688	n/a	32715	largeTSmallT	correct	congruent	0.64453	no	T	T
128.4375	n/a	32880	responseLargeT	correct	n/a	0.64453	no	n/a	n/a
129.5	n/a	33152	largeTSmallH	correct	incongruent	0.57031	no	T	H
130.0703125	n/a	33298	responseLargeT	correct	n/a	0.57031	no	n/a	n/a
131.140625	n/a	33572	largeHSmallH	correct	congruent	0.54297	no	H	H
131.6835938	n/a	33711	responseLargeH	correct	n/a	0.54297	no	n/a	n/a
132.7539062	n/a	33985	largeTSmallT	correct	congruent	0.53906	no	T	T
133.2929688	n/a	34123	responseLargeT	correct	n/a	0.53906	no	n/a	n/a
134.3671875	n/a	34398	largeHSmallT	correct	incongruent	0.43359	no	H	T
134.8007812	n/a	34509	responseLargeH	correct	n/a	0.43359	no	n/a	n/a
135.875	n/a	34784	largeTSmallH	correct	incongruent	0.58203	no	T	H
136.4570312	n/a	34933	responseLargeT	correct	n/a	0.58203	no	n/a	n/a
137.5273438	n/a	35207	largeHSmallH	correct	congruent	0.40234	no	H	H
137.9296875	n/a	35310	responseLargeH	correct	n/a	0.40234	no	n/a	n/a
139.0078125	n/a	35586	largeHSmallH	correct	congruent	0.54297	no	H	H
139.5507812	n/a	35725	responseLargeH	correct	n/a	0.54297	no	n/a	n/a
140.6328125	n/a	36002	largeHSmallT	correct	incongruent	0.43359	no	H	T
141.0664062	n/a	36113	responseLargeH	correct	n/a	0.43359	no	n/a	n/a
142.140625	n/a	36388	largeTSmallH	correct	incongruent	0.50391	no	T	H
142.6445312	n/a	36517	responseLargeT	correct	n/a	0.50391	no	n/a	n/a
143.7148438	n/a	36791	largeHSmallT	correct	incongruent	0.42578	no	H	T
144.140625	n/a	36900	responseLargeH	correct	n/a	0.42578	no	n/a	n/a
145.21875	n/a	37176	largeHSmallH	correct	congruent	0.54688	no	H	H
145.765625	n/a	37316	responseLargeH	correct	n/a	0.54688	no	n/a	n/a
146.8320312	n/a	37589	largeTSmallT	correct	congruent	0.55078	no	T	T
147.3828125	n/a	37730	responseLargeT	correct	n/a	0.55078	no	n/a	n/a
148.4609375	n/a	38006	largeHSmallT	correct	incongruent	0.4375	no	H	T
148.8984375	n/a	38118	responseLargeH	correct	n/a	0.4375	no	n/a	n/a
149.9648438	n/a	38391	largeTSmallT	correct	congruent	0.47266	no	T	T
150.4375	n/a	38512	responseLargeT	correct	n/a	0.47266	no	n/a	n/a
151.5	n/a	38784	largeHSmallT	correct	incongruent	0.46875	no	H	T
151.96875	n/a	38904	responseLargeH	correct	n/a	0.46875	no	n/a	n/a
153.046875	n/a	39180	largeTSmallH	correct	incongruent	0.50391	no	T	H
153.5507812	n/a	39309	responseLargeT	correct	n/a	0.50391	no	n/a	n/a
154.6210938	n/a	39583	largeHSmallT	correct	incongruent	0.44141	no	H	T
155.0625	n/a	39696	responseLargeH	correct	n/a	0.44141	no	n/a	n/a
156.140625	n/a	39972	largeTSmallH	correct	incongruent	0.52734	no	T	H
156.6679688	n/a	40107	responseLargeT	correct	n/a	0.52734	no	n/a	n/a
157.7382812	n/a	40381	largeTSmallH	correct	incongruent	0.59375	no	T	H
158.3320312	n/a	40533	responseLargeT	correct	n/a	0.59375	no	n/a	n/a
159.390625	n/a	40804	largeHSmallH	correct	congruent	0.51172	no	H	H
159.9023438	n/a	40935	responseLargeH	correct	n/a	0.51172	no	n/a	n/a
160.9648438	n/a	41207	largeHSmallH	correct	congruent	0.55859	no	H	H
161.5234375	n/a	41350	responseLargeH	correct	n/a	0.55859	no	n/a	n/a
162.59375	n/a	41624	largeHSmallH	correct	congruent	0.51562	no	H	H
163.109375	n/a	41756	responseLargeH	correct	n/a	0.51562	no	n/a	n/a
164.1796875	n/a	42030	largeHSmallT	correct	incongruent	0.46094	no	H	T
164.640625	n/a	42148	responseLargeH	correct	n/a	0.46094	no	n/a	n/a
165.7109375	n/a	42422	largeTSmallH	correct	incongruent	0.41406	no	T	H
166.125	n/a	42528	responseLargeT	correct	n/a	0.41406	no	n/a	n/a
167.1914062	n/a	42801	largeHSmallT	correct	incongruent	0.54688	no	H	T
167.7382812	n/a	42941	responseLargeH	correct	n/a	0.54688	no	n/a	n/a
168.8046875	n/a	43214	largeTSmallT	correct	congruent	0.46484	no	T	T
169.2695312	n/a	43333	responseLargeT	correct	n/a	0.46484	no	n/a	n/a
170.3398438	n/a	43607	largeTSmallT	error	congruent	0.33984	no	T	T
170.6796875	n/a	43694	responseLargeH	error	n/a	0.33984	no	n/a	n/a
171.7539062	n/a	43969	largeTSmallT	correct	congruent	0.42578	no	T	T
172.1796875	n/a	44078	responseLargeT	correct	n/a	0.42578	no	n/a	n/a
173.2460938	n/a	44351	largeHSmallH	correct	congruent	0.57031	no	H	H
173.8164062	n/a	44497	responseLargeH	correct	n/a	0.57031	no	n/a	n/a
174.8867188	n/a	44771	largeTSmallH	correct	incongruent	1.2852	no	T	H
176.171875	n/a	45100	responseLargeT	correct	n/a	1.2852	no	n/a	n/a
177.2460938	n/a	45375	largeHSmallT	correct	incongruent	0.65234	no	H	T
177.8984375	n/a	45542	responseLargeH	correct	n/a	0.65234	no	n/a	n/a
178.9804688	n/a	45819	largeHSmallH	correct	congruent	0.60156	no	H	H
179.5820312	n/a	45973	responseLargeH	correct	n/a	0.60156	no	n/a	n/a
180.6601562	n/a	46249	largeHSmallH	correct	congruent	0.50781	no	H	H
181.1679688	n/a	46379	responseLargeH	correct	n/a	0.50781	no	n/a	n/a
182.2304688	n/a	46651	largeTSmallT	correct	congruent	0.53906	no	T	T
182.7695312	n/a	46789	responseLargeT	correct	n/a	0.53906	no	n/a	n/a
183.84375	n/a	47064	largeTSmallH	correct	incongruent	0.60938	no	T	H
184.453125	n/a	47220	responseLargeT	correct	n/a	0.60938	no	n/a	n/a
185.5234375	n/a	47494	largeHSmallT	correct	incongruent	0.58594	no	H	T
186.109375	n/a	47644	responseLargeH	correct	n/a	0.58594	no	n/a	n/a
187.1796875	n/a	47918	largeHSmallT	correct	incongruent	0.54297	no	H	T
187.7226562	n/a	48057	responseLargeH	correct	n/a	0.54297	no	n/a	n/a
188.8046875	n/a	48334	largeHSmallH	correct	congruent	0.51562	no	H	H
189.3203125	n/a	48466	responseLargeH	correct	n/a	0.51562	no	n/a	n/a
190.390625	n/a	48740	largeTSmallT	correct	congruent	0.52734	no	T	T
190.9179688	n/a	48875	responseLargeT	correct	n/a	0.52734	no	n/a	n/a
191.9765625	n/a	49146	largeHSmallT	error	incongruent	0.52734	no	H	T
192.5039062	n/a	49281	responseLargeT	error	n/a	0.52734	no	n/a	n/a
193.578125	n/a	49556	largeHSmallH	correct	congruent	1.0977	no	H	H
194.6757812	n/a	49837	responseLargeH	correct	n/a	1.0977	no	n/a	n/a
195.7382812	n/a	50109	largeHSmallT	correct	incongruent	1.0703	no	H	T
196.8085938	n/a	50383	responseLargeH	correct	n/a	1.0703	no	n/a	n/a
197.8867188	n/a	50659	largeTSmallT	correct	congruent	0.53906	no	T	T
198.4257812	n/a	50797	responseLargeT	correct	n/a	0.53906	no	n/a	n/a
199.5	n/a	51072	largeHSmallH	correct	congruent	0.57031	no	H	H
200.0703125	n/a	51218	responseLargeH	correct	n/a	0.57031	no	n/a	n/a
201.1367188	n/a	51491	largeHSmallH	correct	congruent	0.47266	no	H	H
201.609375	n/a	51612	responseLargeH	correct	n/a	0.47266	no	n/a	n/a
202.6835938	n/a	51887	largeHSmallT	correct	incongruent	0.46875	no	H	T
203.1523438	n/a	52007	responseLargeH	correct	n/a	0.46875	no	n/a	n/a
204.2304688	n/a	52283	largeTSmallH	correct	incongruent	0.55078	no	T	H
204.78125	n/a	52424	responseLargeT	correct	n/a	0.55078	no	n/a	n/a
205.859375	n/a	52700	largeTSmallT	correct	congruent	0.44922	no	T	T
206.3085938	n/a	52815	responseLargeT	correct	n/a	0.44922	no	n/a	n/a
207.3789062	n/a	53089	largeHSmallH	correct	congruent	0.51172	no	H	H
207.890625	n/a	53220	responseLargeH	correct	n/a	0.51172	no	n/a	n/a
208.953125	n/a	53492	largeHSmallT	correct	incongruent	0.85547	no	H	T
209.8085938	n/a	53711	responseLargeH	correct	n/a	0.85547	no	n/a	n/a
210.8710938	n/a	53983	largeTSmallT	correct	congruent	0.55859	no	T	T
211.4296875	n/a	54126	responseLargeT	correct	n/a	0.55859	no	n/a	n/a
212.4960938	n/a	54399	largeTSmallT	correct	congruent	0.51562	no	T	T
213.0117188	n/a	54531	responseLargeT	correct	n/a	0.51562	no	n/a	n/a
214.0859375	n/a	54806	largeTSmallT	correct	congruent	0.46875	no	T	T
214.5546875	n/a	54926	responseLargeT	correct	n/a	0.46875	no	n/a	n/a
215.6171875	n/a	55198	largeTSmallH	correct	incongruent	0.49219	no	T	H
216.109375	n/a	55324	responseLargeT	correct	n/a	0.49219	no	n/a	n/a
217.1757812	n/a	55597	largeTSmallT	correct	congruent	0.53516	no	T	T
217.7109375	n/a	55734	responseLargeT	correct	n/a	0.53516	no	n/a	n/a
218.7773438	n/a	56007	largeHSmallH	correct	congruent	0.52344	no	H	H
219.3007812	n/a	56141	responseLargeH	correct	n/a	0.52344	no	n/a	n/a
220.3789062	n/a	56417	largeHSmallH	correct	congruent	0.39844	no	H	H
220.7773438	n/a	56519	responseLargeH	correct	n/a	0.39844	no	n/a	n/a
221.84375	n/a	56792	largeHSmallT	correct	incongruent	0.46094	no	H	T
222.3046875	n/a	56910	responseLargeH	correct	n/a	0.46094	no	n/a	n/a
223.3789062	n/a	57185	largeTSmallT	error	congruent	0.42578	no	T	T
223.8046875	n/a	57294	responseLargeH	error	n/a	0.42578	no	n/a	n/a
224.8710938	n/a	57567	largeTSmallH	correct	incongruent	1.3398	no	T	H
226.2109375	n/a	57910	responseLargeT	correct	n/a	1.3398	no	n/a	n/a
227.2851562	n/a	58185	largeHSmallH	correct	congruent	0.66016	no	H	H
227.9453125	n/a	58354	responseLargeH	correct	n/a	0.66016	no	n/a	n/a
229.015625	n/a	58628	largeHSmallH	correct	congruent	0.55469	no	H	H
229.5703125	n/a	58770	responseLargeH	correct	n/a	0.55469	no	n/a	n/a
230.6445312	n/a	59045	largeHSmallT	correct	incongruent	0.76562	no	H	T
231.4101562	n/a	59241	responseLargeH	correct	n/a	0.76562	no	n/a	n/a
232.484375	n/a	59516	largeTSmallT	correct	congruent	0.41406	no	T	T
232.8984375	n/a	59622	responseLargeT	correct	n/a	0.41406	no	n/a	n/a
233.9648438	n/a	59895	largeHSmallH	correct	congruent	0.5	no	H	H
234.4648438	n/a	60023	responseLargeH	correct	n/a	0.5	no	n/a	n/a
235.5390625	n/a	60298	largeTSmallH	correct	incongruent	0.41797	no	T	H
235.9570312	n/a	60405	responseLargeT	correct	n/a	0.41797	no	n/a	n/a
237.015625	n/a	60676	largeHSmallT	correct	incongruent	0.49219	no	H	T
237.5078125	n/a	60802	responseLargeH	correct	n/a	0.49219	no	n/a	n/a
238.578125	n/a	61076	largeTSmallH	correct	incongruent	0.58203	no	T	H
239.1601562	n/a	61225	responseLargeT	correct	n/a	0.58203	no	n/a	n/a
240.2304688	n/a	61499	largeTSmallH	correct	incongruent	0.56641	no	T	H
240.796875	n/a	61644	responseLargeT	correct	n/a	0.56641	no	n/a	n/a
241.8710938	n/a	61919	largeTSmallH	correct	incongruent	0.54688	no	T	H
242.4179688	n/a	62059	responseLargeT	correct	n/a	0.54688	no	n/a	n/a
243.4960938	n/a	62335	largeTSmallT	correct	congruent	0.5	no	T	T
243.9960938	n/a	62463	responseLargeT	correct	n/a	0.5	no	n/a	n/a
245.0703125	n/a	62738	largeHSmallH	correct	congruent	0.51953	no	H	H
245.5898438	n/a	62871	responseLargeH	correct	n/a	0.51953	no	n/a	n/a
246.65625	n/a	63144	largeTSmallH	correct	incongruent	0.54297	no	T	H
247.1992188	n/a	63283	responseLargeT	correct	n/a	0.54297	no	n/a	n/a
248.2695312	n/a	63557	largeHSmallT	correct	incongruent	0.44531	no	H	T
248.7148438	n/a	63671	responseLargeH	correct	n/a	0.44531	no	n/a	n/a
249.7773438	n/a	63943	largeHSmallT	correct	incongruent	0.60547	no	H	T
250.3828125	n/a	64098	responseLargeH	correct	n/a	0.60547	no	n/a	n/a
251.4570312	n/a	64373	largeHSmallH	correct	congruent	0.57422	no	H	H
252.03125	n/a	64520	responseLargeH	correct	n/a	0.57422	no	n/a	n/a
253.0976562	n/a	64793	largeTSmallT	correct	congruent	0.51562	no	T	T
253.6132812	n/a	64925	responseLargeT	correct	n/a	0.51562	no	n/a	n/a
254.6835938	n/a	65199	largeTSmallH	correct	incongruent	0.39453	no	T	H
255.078125	n/a	65300	responseLargeT	correct	n/a	0.39453	no	n/a	n/a
256.1484375	n/a	65574	largeTSmallT	correct	congruent	0.54688	no	T	T
256.6953125	n/a	65714	responseLargeT	correct	n/a	0.54688	no	n/a	n/a
257.7617188	n/a	65987	largeTSmallT	correct	congruent	0.46484	no	T	T
258.2265625	n/a	66106	responseLargeT	correct	n/a	0.46484	no	n/a	n/a
259.296875	n/a	66380	largeTSmallT	correct	congruent	0.47656	no	T	T
259.7734375	n/a	66502	responseLargeT	correct	n/a	0.47656	no	n/a	n/a
260.84375	n/a	66776	largeHSmallH	correct	congruent	0.58203	no	H	H
261.4257812	n/a	66925	responseLargeH	correct	n/a	0.58203	no	n/a	n/a
262.4960938	n/a	67199	largeTSmallH	error	incongruent	0.55859	no	T	H
263.0546875	n/a	67342	responseLargeH	error	n/a	0.55859	no	n/a	n/a
264.125	n/a	67616	largeTSmallH	correct	incongruent	0.76562	no	T	H
264.890625	n/a	67812	responseLargeT	correct	n/a	0.76562	no	n/a	n/a
265.9648438	n/a	68087	largeHSmallH	correct	congruent	0.59375	no	H	H
266.5585938	n/a	68239	responseLargeH	correct	n/a	0.59375	no	n/a	n/a
267.6289062	n/a	68513	largeHSmallT	correct	incongruent	1.207	no	H	T
268.8359375	n/a	68822	responseLargeH	correct	n/a	1.207	no	n/a	n/a
269.9101562	n/a	69097	largeTSmallT	correct	congruent	0.47266	no	T	T
270.3828125	n/a	69218	responseLargeT	correct	n/a	0.47266	no	n/a	n/a
271.4570312	n/a	69493	largeHSmallT	correct	incongruent	0.67969	no	H	T
272.1367188	n/a	69667	responseLargeH	correct	n/a	0.67969	no	n/a	n/a
273.2148438	n/a	69943	largeHSmallT	correct	incongruent	0.59766	no	H	T
273.8125	n/a	70096	responseLargeH	correct	n/a	0.59766	no	n/a	n/a
274.8828125	n/a	70370	largeHSmallH	correct	congruent	0.54688	no	H	H
275.4296875	n/a	70510	responseLargeH	correct	n/a	0.54688	no	n/a	n/a
276.5078125	n/a	70786	largeHSmallH	correct	congruent	0.49219	no	H	H
277	n/a	70912	responseLargeH	correct	n/a	0.49219	no	n/a	n/a
278.0820312	n/a	71189	largeTSmallH	correct	incongruent	0.65625	no	T	H
278.7382812	n/a	71357	responseLargeT	correct	n/a	0.65625	no	n/a	n/a
279.8164062	n/a	71633	largeTSmallH	correct	incongruent	0.40625	no	T	H
280.2226562	n/a	71737	responseLargeT	correct	n/a	0.40625	no	n/a	n/a
281.296875	n/a	72012	largeTSmallT	correct	congruent	0.48828	no	T	T
281.7851562	n/a	72137	responseLargeT	correct	n/a	0.48828	no	n/a	n/a
282.8554688	n/a	72411	largeTSmallT	correct	congruent	0.42188	no	T	T
283.2773438	n/a	72519	responseLargeT	correct	n/a	0.42188	no	n/a	n/a
284.3476562	n/a	72793	largeHSmallH	correct	congruent	0.52734	no	H	H
284.875	n/a	72928	responseLargeH	correct	n/a	0.52734	no	n/a	n/a
285.9492188	n/a	73203	largeHSmallT	correct	incongruent	0.53906	no	H	T
286.4882812	n/a	73341	responseLargeH	correct	n/a	0.53906	no	n/a	n/a
287.5625	n/a	73616	largeHSmallT	correct	incongruent	0.47266	no	H	T
288.0351562	n/a	73737	responseLargeH	correct	n/a	0.47266	no	n/a	n/a
289.109375	n/a	74012	largeHSmallH	correct	congruent	0.44531	no	H	H
289.5546875	n/a	74126	responseLargeH	correct	n/a	0.44531	no	n/a	n/a
290.6171875	n/a	74398	largeHSmallT	correct	incongruent	0.45312	no	H	T
291.0703125	n/a	74514	responseLargeH	correct	n/a	0.45312	no	n/a	n/a
292.1367188	n/a	74787	largeTSmallH	correct	incongruent	0.53125	no	T	H
292.6679688	n/a	74923	responseLargeT	correct	n/a	0.53125	no	n/a	n/a
293.734375	n/a	75196	largeTSmallH	correct	incongruent	0.61328	no	T	H
294.3476562	n/a	75353	responseLargeT	correct	n/a	0.61328	no	n/a	n/a
295.4296875	n/a	75630	largeHSmallH	correct	congruent	1.1523	no	H	H
296.5820312	n/a	75925	responseLargeH	correct	n/a	1.1523	no	n/a	n/a
297.65625	n/a	76200	largeHSmallT	correct	incongruent	0.58203	no	H	T
298.2382812	n/a	76349	responseLargeH	correct	n/a	0.58203	no	n/a	n/a
299.3085938	n/a	76623	largeTSmallH	correct	incongruent	0.61328	no	T	H
299.921875	n/a	76780	responseLargeT	correct	n/a	0.61328	no	n/a	n/a
301.0039062	n/a	77057	largeHSmallH	correct	congruent	0.42578	no	H	H
301.4296875	n/a	77166	responseLargeH	correct	n/a	0.42578	no	n/a	n/a
302.4960938	n/a	77439	largeTSmallT	correct	congruent	0.41797	no	T	T
302.9140625	n/a	77546	responseLargeT	correct	n/a	0.41797	no	n/a	n/a
303.9882812	n/a	77821	largeTSmallT	correct	congruent	0.39844	no	T	T
304.3867188	n/a	77923	responseLargeT	correct	n/a	0.39844	no	n/a	n/a
305.4570312	n/a	78197	largeTSmallT	correct	congruent	0.40625	no	T	T
305.8632812	n/a	78301	responseLargeT	correct	n/a	0.40625	no	n/a	n/a
306.9335938	n/a	78575	largeTSmallH	correct	incongruent	0.36719	no	T	H
307.3007812	n/a	78669	responseLargeT	correct	n/a	0.36719	no	n/a	n/a
308.375	n/a	78944	largeHSmallH	correct	congruent	0.34375	no	H	H
308.71875	n/a	79032	responseLargeH	correct	n/a	0.34375	no	n/a	n/a
309.7890625	n/a	79306	largeTSmallT	correct	congruent	0.51562	no	T	T
310.3046875	n/a	79438	responseLargeT	correct	n/a	0.51562	no	n/a	n/a
311.375	n/a	79712	largeTSmallT	correct	congruent	0.45312	no	T	T
311.828125	n/a	79828	responseLargeT	correct	n/a	0.45312	no	n/a	n/a
312.8945312	n/a	80101	largeTSmallH	correct	incongruent	0.38281	no	T	H
313.2773438	n/a	80199	responseLargeT	correct	n/a	0.38281	no	n/a	n/a
314.3476562	n/a	80473	largeHSmallT	correct	incongruent	0.51172	no	H	T
314.859375	n/a	80604	responseLargeH	correct	n/a	0.51172	no	n/a	n/a
315.921875	n/a	80876	largeHSmallT	error	incongruent	0.35156	no	H	T
316.2734375	n/a	80966	responseLargeT	error	n/a	0.35156	no	n/a	n/a
317.3476562	n/a	81241	largeTSmallT	correct	congruent	0.81641	no	T	T
318.1640625	n/a	81450	responseLargeT	correct	n/a	0.81641	no	n/a	n/a
319.2304688	n/a	81723	largeTSmallH	error	incongruent	0.39453	no	T	H
319.625	n/a	81824	responseLargeH	error	n/a	0.39453	no	n/a	n/a
320.6953125	n/a	82098	largeTSmallH	correct	incongruent	0.80859	no	T	H
321.5039062	n/a	82305	responseLargeT	correct	n/a	0.80859	no	n/a	n/a
322.5742188	n/a	82579	largeHSmallT	correct	incongruent	0.64844	no	H	T
323.2226562	n/a	82745	responseLargeH	correct	n/a	0.64844	no	n/a	n/a
324.28125	n/a	83016	largeTSmallT	correct	congruent	0.76172	no	T	T
325.0429688	n/a	83211	responseLargeT	correct	n/a	0.76172	no	n/a	n/a
326.109375	n/a	83484	largeHSmallT	correct	incongruent	0.63672	no	H	T
326.7460938	n/a	83647	responseLargeH	correct	n/a	0.63672	no	n/a	n/a
327.8164062	n/a	83921	largeTSmallT	correct	congruent	0.37109	no	T	T
328.1875	n/a	84016	responseLargeT	correct	n/a	0.37109	no	n/a	n/a
329.2695312	n/a	84293	largeHSmallT	correct	incongruent	0.89062	no	H	T
330.1601562	n/a	84521	responseLargeH	correct	n/a	0.89062	no	n/a	n/a
331.2265625	n/a	84794	largeTSmallH	correct	incongruent	0.40625	no	T	H
331.6328125	n/a	84898	responseLargeT	correct	n/a	0.40625	no	n/a	n/a
332.7070312	n/a	85173	largeTSmallT	correct	congruent	0.61328	no	T	T
333.3203125	n/a	85330	responseLargeT	correct	n/a	0.61328	no	n/a	n/a
334.4023438	n/a	85607	largeTSmallH	error	incongruent	0.47656	no	T	H
334.8789062	n/a	85729	responseLargeH	error	n/a	0.47656	no	n/a	n/a
335.9609375	n/a	86006	largeTSmallH	correct	incongruent	0.89453	no	T	H
336.8554688	n/a	86235	responseLargeT	correct	n/a	0.89453	no	n/a	n/a
337.921875	n/a	86508	largeTSmallT	correct	congruent	0.44141	no	T	T
338.3632812	n/a	86621	responseLargeT	correct	n/a	0.44141	no	n/a	n/a
339.4296875	n/a	86894	largeHSmallH	correct	congruent	0.55078	no	H	H
339.9804688	n/a	87035	responseLargeH	correct	n/a	0.55078	no	n/a	n/a
341.0546875	n/a	87310	largeHSmallH	correct	congruent	0.5625	no	H	H
341.6171875	n/a	87454	responseLargeH	correct	n/a	0.5625	no	n/a	n/a
342.6953125	n/a	87730	largeHSmallT	correct	incongruent	0.55078	no	H	T
343.2460938	n/a	87871	responseLargeH	correct	n/a	0.55078	no	n/a	n/a
344.3203125	n/a	88146	largeTSmallH	correct	incongruent	0.52344	no	T	H
344.84375	n/a	88280	responseLargeT	correct	n/a	0.52344	no	n/a	n/a
345.90625	n/a	88552	largeTSmallH	correct	incongruent	0.35156	no	T	H
346.2578125	n/a	88642	responseLargeT	correct	n/a	0.35156	no	n/a	n/a
347.3359375	n/a	88918	largeTSmallH	correct	incongruent	0.52734	no	T	H
347.8632812	n/a	89053	responseLargeT	correct	n/a	0.52734	no	n/a	n/a
348.9335938	n/a	89327	largeHSmallT	correct	incongruent	0.49609	no	H	T
349.4296875	n/a	89454	responseLargeH	correct	n/a	0.49609	no	n/a	n/a
350.4960938	n/a	89727	largeTSmallT	error	congruent	0.40625	no	T	T
350.9023438	n/a	89831	responseLargeH	error	n/a	0.40625	no	n/a	n/a
351.9726562	n/a	90105	largeTSmallH	correct	incongruent	0.89453	no	T	H
352.8671875	n/a	90334	responseLargeT	correct	n/a	0.89453	no	n/a	n/a
353.9492188	n/a	90611	largeHSmallH	correct	congruent	0.64453	no	H	H
354.59375	n/a	90776	responseLargeH	correct	n/a	0.64453	no	n/a	n/a
355.6523438	n/a	91047	largeHSmallH	correct	congruent	0.57031	no	H	H
356.2226562	n/a	91193	responseLargeH	correct	n/a	0.57031	no	n/a	n/a
357.2929688	n/a	91467	largeHSmallH	correct	congruent	0.70703	no	H	H
358	n/a	91648	responseLargeH	correct	n/a	0.70703	no	n/a	n/a
359.0820312	n/a	91925	largeTSmallT	correct	congruent	0.64453	no	T	T
359.7265625	n/a	92090	responseLargeT	correct	n/a	0.64453	no	n/a	n/a
360.7890625	n/a	92362	largeHSmallT	correct	incongruent	0.98047	no	H	T
361.7695312	n/a	92613	responseLargeH	correct	n/a	0.98047	no	n/a	n/a
362.8398438	n/a	92887	largeTSmallT	correct	congruent	0.42578	no	T	T
363.265625	n/a	92996	responseLargeT	correct	n/a	0.42578	no	n/a	n/a
364.3359375	n/a	93270	largeTSmallT	correct	congruent	0.64062	no	T	T
364.9765625	n/a	93434	responseLargeT	correct	n/a	0.64062	no	n/a	n/a
366.0546875	n/a	93710	largeHSmallH	correct	congruent	0.54688	no	H	H
366.6015625	n/a	93850	responseLargeH	correct	n/a	0.54688	no	n/a	n/a
367.6679688	n/a	94123	largeTSmallH	correct	incongruent	0.58984	no	T	H
368.2578125	n/a	94274	responseLargeT	correct	n/a	0.58984	no	n/a	n/a
369.3203125	n/a	94546	largeHSmallH	correct	congruent	0.9375	no	H	H
370.2578125	n/a	94786	responseLargeH	correct	n/a	0.9375	no	n/a	n/a
371.3320312	n/a	95061	largeHSmallT	correct	incongruent	0.61719	no	H	T
371.9492188	n/a	95219	responseLargeH	correct	n/a	0.61719	no	n/a	n/a
382.09375	n/a	97816	largeHSmallH	correct	congruent	0.76953	no	H	H
382.8632812	n/a	98013	responseSmallH	correct	n/a	0.76953	no	n/a	n/a
383.9453125	n/a	98290	largeHSmallH	correct	congruent	0.53516	no	H	H
384.4804688	n/a	98427	responseSmallH	correct	n/a	0.53516	no	n/a	n/a
385.546875	n/a	98700	largeHSmallT	correct	incongruent	0.59375	no	H	T
386.140625	n/a	98852	responseSmallT	correct	n/a	0.59375	no	n/a	n/a
387.2148438	n/a	99127	largeHSmallH	correct	congruent	0.46094	no	H	H
387.6757812	n/a	99245	responseSmallH	correct	n/a	0.46094	no	n/a	n/a
388.7460938	n/a	99519	largeHSmallH	correct	congruent	0.53906	no	H	H
389.2851562	n/a	99657	responseSmallH	correct	n/a	0.53906	no	n/a	n/a
390.359375	n/a	99932	largeTSmallH	correct	incongruent	0.62891	no	T	H
390.9882812	n/a	100093	responseSmallH	correct	n/a	0.62891	no	n/a	n/a
392.0546875	n/a	100366	largeTSmallT	correct	congruent	0.49219	no	T	T
392.546875	n/a	100492	responseSmallT	correct	n/a	0.49219	no	n/a	n/a
393.6132812	n/a	100765	largeHSmallH	correct	congruent	0.54688	no	H	H
394.1601562	n/a	100905	responseSmallH	correct	n/a	0.54688	no	n/a	n/a
395.2382812	n/a	101181	largeTSmallT	correct	congruent	0.53516	no	T	T
395.7734375	n/a	101318	responseSmallT	correct	n/a	0.53516	no	n/a	n/a
396.8398438	n/a	101591	largeHSmallT	error	incongruent	0.39844	no	H	T
397.2382812	n/a	101693	responseSmallH	error	n/a	0.39844	no	n/a	n/a
398.3046875	n/a	101966	largeTSmallH	correct	incongruent	0.85938	no	T	H
399.1640625	n/a	102186	responseSmallH	correct	n/a	0.85938	no	n/a	n/a
400.2265625	n/a	102458	largeHSmallH	correct	congruent	0.67969	no	H	H
400.90625	n/a	102632	responseSmallH	correct	n/a	0.67969	no	n/a	n/a
401.9726562	n/a	102905	largeHSmallH	correct	congruent	0.54297	no	H	H
402.515625	n/a	103044	responseSmallH	correct	n/a	0.54297	no	n/a	n/a
403.5859375	n/a	103318	largeTSmallT	correct	congruent	0.49219	no	T	T
404.078125	n/a	103444	responseSmallT	correct	n/a	0.49219	no	n/a	n/a
405.1601562	n/a	103721	largeHSmallT	correct	incongruent	0.47656	no	H	T
405.6367188	n/a	103843	responseSmallT	correct	n/a	0.47656	no	n/a	n/a
406.7070312	n/a	104117	largeTSmallH	correct	incongruent	0.57422	no	T	H
407.28125	n/a	104264	responseSmallH	correct	n/a	0.57422	no	n/a	n/a
408.359375	n/a	104540	largeHSmallT	correct	incongruent	0.57422	no	H	T
408.9335938	n/a	104687	responseSmallT	correct	n/a	0.57422	no	n/a	n/a
410.0117188	n/a	104963	largeTSmallT	correct	congruent	0.49609	no	T	T
410.5078125	n/a	105090	responseSmallT	correct	n/a	0.49609	no	n/a	n/a
411.5859375	n/a	105366	largeHSmallH	correct	congruent	0.52344	no	H	H
412.109375	n/a	105500	responseSmallH	correct	n/a	0.52344	no	n/a	n/a
413.171875	n/a	105772	largeHSmallT	correct	incongruent	0.54297	no	H	T
413.7148438	n/a	105911	responseSmallT	correct	n/a	0.54297	no	n/a	n/a
414.7851562	n/a	106185	largeHSmallH	correct	congruent	0.33984	no	H	H
415.125	n/a	106272	responseSmallH	correct	n/a	0.33984	no	n/a	n/a
416.1992188	n/a	106547	largeTSmallT	correct	congruent	0.40234	no	T	T
416.6015625	n/a	106650	responseSmallT	correct	n/a	0.40234	no	n/a	n/a
417.6679688	n/a	106923	largeHSmallT	correct	incongruent	0.64844	no	H	T
418.3164062	n/a	107089	responseSmallT	correct	n/a	0.64844	no	n/a	n/a
419.3867188	n/a	107363	largeTSmallT	correct	congruent	0.49219	no	T	T
419.8789062	n/a	107489	responseSmallT	correct	n/a	0.49219	no	n/a	n/a
420.9453125	n/a	107762	largeHSmallH	correct	congruent	0.63281	no	H	H
421.578125	n/a	107924	responseSmallH	correct	n/a	0.63281	no	n/a	n/a
422.6523438	n/a	108199	largeHSmallT	correct	incongruent	0.65234	no	H	T
423.3046875	n/a	108366	responseSmallT	correct	n/a	0.65234	no	n/a	n/a
424.3710938	n/a	108639	largeTSmallT	correct	congruent	0.59375	no	T	T
424.9648438	n/a	108791	responseSmallT	correct	n/a	0.59375	no	n/a	n/a
426.0273438	n/a	109063	largeTSmallT	correct	congruent	0.52344	no	T	T
426.5507812	n/a	109197	responseSmallT	correct	n/a	0.52344	no	n/a	n/a
427.625	n/a	109472	largeTSmallH	correct	incongruent	0.64453	no	T	H
428.2695312	n/a	109637	responseSmallH	correct	n/a	0.64453	no	n/a	n/a
429.34375	n/a	109912	largeHSmallT	correct	incongruent	0.59375	no	H	T
429.9375	n/a	110064	responseSmallT	correct	n/a	0.59375	no	n/a	n/a
431.0117188	n/a	110339	largeHSmallT	correct	incongruent	0.57031	no	H	T
431.5820312	n/a	110485	responseSmallT	correct	n/a	0.57031	no	n/a	n/a
432.6523438	n/a	110759	largeHSmallH	correct	congruent	0.66406	no	H	H
433.3164062	n/a	110929	responseSmallH	correct	n/a	0.66406	no	n/a	n/a
434.3867188	n/a	111203	largeHSmallT	correct	incongruent	0.8125	no	H	T
435.1992188	n/a	111411	responseSmallT	correct	n/a	0.8125	no	n/a	n/a
436.265625	n/a	111684	largeTSmallT	error	congruent	0.47266	no	T	T
436.7382812	n/a	111805	responseSmallH	error	n/a	0.47266	no	n/a	n/a
437.8125	n/a	112080	largeTSmallT	correct	congruent	0.73828	no	T	T
438.5507812	n/a	112269	responseSmallT	correct	n/a	0.73828	no	n/a	n/a
439.6132812	n/a	112541	largeTSmallT	correct	congruent	0.46875	no	T	T
440.0820312	n/a	112661	responseSmallT	correct	n/a	0.46875	no	n/a	n/a
441.1445312	n/a	112933	largeTSmallT	correct	congruent	0.42578	no	T	T
441.5703125	n/a	113042	responseSmallT	correct	n/a	0.42578	no	n/a	n/a
442.640625	n/a	113316	largeTSmallH	correct	incongruent	0.51953	no	T	H
443.1601562	n/a	113449	responseSmallH	correct	n/a	0.51953	no	n/a	n/a
444.2382812	n/a	113725	largeHSmallT	correct	incongruent	0.58984	no	H	T
444.828125	n/a	113876	responseSmallT	correct	n/a	0.58984	no	n/a	n/a
445.90625	n/a	114152	largeTSmallT	correct	congruent	0.65234	no	T	T
446.5585938	n/a	114319	responseSmallT	correct	n/a	0.65234	no	n/a	n/a
447.6367188	n/a	114595	largeTSmallH	correct	incongruent	0.46484	no	T	H
448.1015625	n/a	114714	responseSmallH	correct	n/a	0.46484	no	n/a	n/a
449.171875	n/a	114988	largeHSmallT	correct	incongruent	0.47656	no	H	T
449.6484375	n/a	115110	responseSmallT	correct	n/a	0.47656	no	n/a	n/a
450.71875	n/a	115384	largeHSmallT	correct	incongruent	0.50391	no	H	T
451.2226562	n/a	115513	responseSmallT	correct	n/a	0.50391	no	n/a	n/a
452.3046875	n/a	115790	largeHSmallH	correct	congruent	0.58594	no	H	H
452.890625	n/a	115940	responseSmallH	correct	n/a	0.58594	no	n/a	n/a
453.9726562	n/a	116217	largeTSmallH	correct	incongruent	0.64844	no	T	H
454.6210938	n/a	116383	responseSmallH	correct	n/a	0.64844	no	n/a	n/a
455.6914062	n/a	116657	largeHSmallT	correct	incongruent	0.48047	no	H	T
456.171875	n/a	116780	responseSmallT	correct	n/a	0.48047	no	n/a	n/a
457.25	n/a	117056	largeTSmallT	correct	congruent	0.59375	no	T	T
457.84375	n/a	117208	responseSmallT	correct	n/a	0.59375	no	n/a	n/a
458.9179688	n/a	117483	largeTSmallT	correct	congruent	0.53125	no	T	T
459.4492188	n/a	117619	responseSmallT	correct	n/a	0.53125	no	n/a	n/a
460.5195312	n/a	117893	largeTSmallT	correct	congruent	0.71094	no	T	T
461.2304688	n/a	118075	responseSmallT	correct	n/a	0.71094	no	n/a	n/a
462.3046875	n/a	118350	largeHSmallT	correct	incongruent	0.6875	no	H	T
462.9921875	n/a	118526	responseSmallT	correct	n/a	0.6875	no	n/a	n/a
464.0664062	n/a	118801	largeTSmallT	correct	congruent	0.46875	no	T	T
464.5351562	n/a	118921	responseSmallT	correct	n/a	0.46875	no	n/a	n/a
465.6132812	n/a	119197	largeTSmallT	correct	congruent	0.46875	no	T	T
466.0820312	n/a	119317	responseSmallT	correct	n/a	0.46875	no	n/a	n/a
467.15625	n/a	119592	largeHSmallT	correct	incongruent	0.73047	no	H	T
467.8867188	n/a	119779	responseSmallT	correct	n/a	0.73047	no	n/a	n/a
468.9570312	n/a	120053	largeTSmallT	correct	congruent	0.5	no	T	T
469.4570312	n/a	120181	responseSmallT	correct	n/a	0.5	no	n/a	n/a
470.5195312	n/a	120453	largeTSmallH	correct	incongruent	0.69531	no	T	H
471.2148438	n/a	120631	responseSmallH	correct	n/a	0.69531	no	n/a	n/a
472.2773438	n/a	120903	largeTSmallT	correct	congruent	0.58594	no	T	T
472.8632812	n/a	121053	responseSmallT	correct	n/a	0.58594	no	n/a	n/a
473.9453125	n/a	121330	largeTSmallH	correct	incongruent	0.50781	no	T	H
474.453125	n/a	121460	responseSmallH	correct	n/a	0.50781	no	n/a	n/a
475.53125	n/a	121736	largeTSmallT	correct	congruent	0.57812	no	T	T
476.109375	n/a	121884	responseSmallT	correct	n/a	0.57812	no	n/a	n/a
477.1835938	n/a	122159	largeHSmallH	correct	congruent	0.55859	no	H	H
477.7421875	n/a	122302	responseSmallH	correct	n/a	0.55859	no	n/a	n/a
478.8242188	n/a	122579	largeHSmallT	correct	incongruent	0.35938	no	H	T
479.1835938	n/a	122671	responseSmallT	correct	n/a	0.35938	no	n/a	n/a
480.25	n/a	122944	largeTSmallH	correct	incongruent	0.42188	no	T	H
480.671875	n/a	123052	responseSmallH	correct	n/a	0.42188	no	n/a	n/a
481.7460938	n/a	123327	largeHSmallT	correct	incongruent	0.60547	no	H	T
482.3515625	n/a	123482	responseSmallT	correct	n/a	0.60547	no	n/a	n/a
483.4257812	n/a	123757	largeTSmallH	correct	incongruent	0.49219	no	T	H
483.9179688	n/a	123883	responseSmallH	correct	n/a	0.49219	no	n/a	n/a
484.984375	n/a	124156	largeTSmallH	correct	incongruent	0.62891	no	T	H
485.6132812	n/a	124317	responseSmallH	correct	n/a	0.62891	no	n/a	n/a
486.6757812	n/a	124589	largeTSmallH	correct	incongruent	0.53906	no	T	H
487.2148438	n/a	124727	responseSmallH	correct	n/a	0.53906	no	n/a	n/a
488.2890625	n/a	125002	largeTSmallH	correct	incongruent	0.47266	no	T	H
488.7617188	n/a	125123	responseSmallH	correct	n/a	0.47266	no	n/a	n/a
489.8359375	n/a	125398	largeTSmallH	correct	incongruent	0.37891	no	T	H
490.2148438	n/a	125495	responseSmallH	correct	n/a	0.37891	no	n/a	n/a
491.2890625	n/a	125770	largeTSmallT	error	congruent	0.35156	no	T	T
491.640625	n/a	125860	responseSmallH	error	n/a	0.35156	no	n/a	n/a
492.703125	n/a	126132	largeTSmallH	correct	incongruent	0.97266	no	T	H
493.6757812	n/a	126381	responseSmallH	correct	n/a	0.97266	no	n/a	n/a
494.7421875	n/a	126654	largeTSmallH	correct	incongruent	0.80859	no	T	H
495.5507812	n/a	126861	responseSmallH	correct	n/a	0.80859	no	n/a	n/a
496.625	n/a	127136	largeHSmallH	correct	congruent	0.66016	no	H	H
497.2851562	n/a	127305	responseSmallH	correct	n/a	0.66016	no	n/a	n/a
498.3554688	n/a	127579	largeHSmallT	correct	incongruent	0.53906	no	H	T
498.8945312	n/a	127717	responseSmallT	correct	n/a	0.53906	no	n/a	n/a
499.96875	n/a	127992	largeTSmallT	correct	congruent	0.60938	no	T	T
500.578125	n/a	128148	responseSmallT	correct	n/a	0.60938	no	n/a	n/a
501.6523438	n/a	128423	largeHSmallT	correct	incongruent	0.55859	no	H	T
502.2109375	n/a	128566	responseSmallT	correct	n/a	0.55859	no	n/a	n/a
503.2773438	n/a	128839	largeHSmallT	correct	incongruent	0.57422	no	H	T
503.8515625	n/a	128986	responseSmallT	correct	n/a	0.57422	no	n/a	n/a
504.9179688	n/a	129259	largeTSmallH	correct	incongruent	0.63672	no	T	H
505.5546875	n/a	129422	responseSmallH	correct	n/a	0.63672	no	n/a	n/a
506.625	n/a	129696	largeTSmallT	correct	congruent	1.0117	no	T	T
507.6367188	n/a	129955	responseSmallT	correct	n/a	1.0117	no	n/a	n/a
508.71875	n/a	130232	largeHSmallH	correct	congruent	0.52734	no	H	H
509.2460938	n/a	130367	responseSmallH	correct	n/a	0.52734	no	n/a	n/a
510.3164062	n/a	130641	largeHSmallT	correct	incongruent	0.43359	no	H	T
510.75	n/a	130752	responseSmallT	correct	n/a	0.43359	no	n/a	n/a
511.8085938	n/a	131023	largeHSmallH	correct	congruent	0.46094	no	H	H
512.2695312	n/a	131141	responseSmallH	correct	n/a	0.46094	no	n/a	n/a
513.34375	n/a	131416	largeHSmallH	correct	congruent	0.60938	no	H	H
513.953125	n/a	131572	responseSmallH	correct	n/a	0.60938	no	n/a	n/a
515.0234375	n/a	131846	largeHSmallH	correct	congruent	0.50391	no	H	H
515.5273438	n/a	131975	responseSmallH	correct	n/a	0.50391	no	n/a	n/a
516.609375	n/a	132252	largeTSmallT	correct	congruent	0.69531	no	T	T
517.3046875	n/a	132430	responseSmallT	correct	n/a	0.69531	no	n/a	n/a
518.3710938	n/a	132703	largeHSmallH	correct	congruent	0.45703	no	H	H
518.828125	n/a	132820	responseSmallH	correct	n/a	0.45703	no	n/a	n/a
519.890625	n/a	133092	largeHSmallH	correct	congruent	0.60156	no	H	H
520.4921875	n/a	133246	responseSmallH	correct	n/a	0.60156	no	n/a	n/a
521.5703125	n/a	133522	largeTSmallH	correct	incongruent	0.54297	no	T	H
522.1132812	n/a	133661	responseSmallH	correct	n/a	0.54297	no	n/a	n/a
523.1835938	n/a	133935	largeTSmallH	correct	incongruent	0.93359	no	T	H
524.1171875	n/a	134174	responseSmallH	correct	n/a	0.93359	no	n/a	n/a
525.1835938	n/a	134447	largeTSmallH	correct	incongruent	0.48047	no	T	H
525.6640625	n/a	134570	responseSmallH	correct	n/a	0.48047	no	n/a	n/a
526.7304688	n/a	134843	largeTSmallT	correct	congruent	0.58984	no	T	T
527.3203125	n/a	134994	responseSmallT	correct	n/a	0.58984	no	n/a	n/a
528.3828125	n/a	135266	largeHSmallH	correct	congruent	0.54297	no	H	H
528.9257812	n/a	135405	responseSmallH	correct	n/a	0.54297	no	n/a	n/a
529.9960938	n/a	135679	largeTSmallT	correct	congruent	0.61328	no	T	T
530.609375	n/a	135836	responseSmallT	correct	n/a	0.61328	no	n/a	n/a
531.6757812	n/a	136109	largeTSmallT	correct	congruent	0.56641	no	T	T
532.2421875	n/a	136254	responseSmallT	correct	n/a	0.56641	no	n/a	n/a
533.3164062	n/a	136529	largeTSmallT	correct	congruent	0.66797	no	T	T
533.984375	n/a	136700	responseSmallT	correct	n/a	0.66797	no	n/a	n/a
535.0625	n/a	136976	largeTSmallT	correct	congruent	0.56641	no	T	T
535.6289062	n/a	137121	responseSmallT	correct	n/a	0.56641	no	n/a	n/a
536.703125	n/a	137396	largeTSmallT	correct	congruent	0.49609	no	T	T
537.1992188	n/a	137523	responseSmallT	correct	n/a	0.49609	no	n/a	n/a
538.2773438	n/a	137799	largeHSmallH	correct	congruent	0.67188	no	H	H
538.9492188	n/a	137971	responseSmallH	correct	n/a	0.67188	no	n/a	n/a
540.0234375	n/a	138246	largeHSmallT	correct	incongruent	0.58594	no	H	T
540.609375	n/a	138396	responseSmallT	correct	n/a	0.58594	no	n/a	n/a
541.6757812	n/a	138669	largeTSmallH	correct	incongruent	0.53906	no	T	H
542.2148438	n/a	138807	responseSmallH	correct	n/a	0.53906	no	n/a	n/a
543.2773438	n/a	139079	largeTSmallT	correct	congruent	0.55078	no	T	T
543.828125	n/a	139220	responseSmallT	correct	n/a	0.55078	no	n/a	n/a
544.9023438	n/a	139495	largeHSmallH	correct	congruent	0.41016	no	H	H
545.3125	n/a	139600	responseSmallH	correct	n/a	0.41016	no	n/a	n/a
546.3828125	n/a	139874	largeTSmallT	correct	congruent	0.42188	no	T	T
546.8046875	n/a	139982	responseSmallT	correct	n/a	0.42188	no	n/a	n/a
547.890625	n/a	140260	largeTSmallH	correct	incongruent	0.44141	no	T	H
548.3320312	n/a	140373	responseSmallH	correct	n/a	0.44141	no	n/a	n/a
549.4101562	n/a	140649	largeHSmallT	correct	incongruent	0.99609	no	H	T
550.40625	n/a	140904	responseSmallT	correct	n/a	0.99609	no	n/a	n/a
551.4765625	n/a	141178	largeHSmallH	correct	congruent	0.51953	no	H	H
551.9960938	n/a	141311	responseSmallH	correct	n/a	0.51953	no	n/a	n/a
553.0625	n/a	141584	largeHSmallH	correct	congruent	0.58984	no	H	H
553.6523438	n/a	141735	responseSmallH	correct	n/a	0.58984	no	n/a	n/a
554.7304688	n/a	142011	largeTSmallH	correct	incongruent	1.0391	no	T	H
555.7695312	n/a	142277	responseSmallH	correct	n/a	1.0391	no	n/a	n/a
556.8359375	n/a	142550	largeHSmallT	correct	incongruent	0.55469	no	H	T
557.390625	n/a	142692	responseSmallT	correct	n/a	0.55469	no	n/a	n/a
558.4609375	n/a	142966	largeTSmallH	correct	incongruent	0.36328	no	T	H
558.8242188	n/a	143059	responseSmallH	correct	n/a	0.36328	no	n/a	n/a
559.890625	n/a	143332	largeHSmallH	correct	congruent	0.71875	no	H	H
560.609375	n/a	143516	responseSmallH	correct	n/a	0.71875	no	n/a	n/a
561.6875	n/a	143792	largeHSmallT	correct	incongruent	0.58984	no	H	T
562.2773438	n/a	143943	responseSmallT	correct	n/a	0.58984	no	n/a	n/a
563.34375	n/a	144216	largeHSmallT	correct	incongruent	0.40234	no	H	T
563.7460938	n/a	144319	responseSmallT	correct	n/a	0.40234	no	n/a	n/a
564.8203125	n/a	144594	largeHSmallT	correct	incongruent	0.80078	no	H	T
565.6210938	n/a	144799	responseSmallT	correct	n/a	0.80078	no	n/a	n/a
566.703125	n/a	145076	largeHSmallT	correct	incongruent	0.55469	no	H	T
567.2578125	n/a	145218	responseSmallT	correct	n/a	0.55469	no	n/a	n/a
568.328125	n/a	145492	largeTSmallT	correct	congruent	0.52734	no	T	T
568.8554688	n/a	145627	responseSmallT	correct	n/a	0.52734	no	n/a	n/a
569.9296875	n/a	145902	largeHSmallH	correct	congruent	0.41797	no	H	H
570.3476562	n/a	146009	responseSmallH	correct	n/a	0.41797	no	n/a	n/a
571.421875	n/a	146284	largeHSmallH	correct	congruent	0.59766	no	H	H
572.0195312	n/a	146437	responseSmallH	correct	n/a	0.59766	no	n/a	n/a
573.0898438	n/a	146711	largeHSmallT	correct	incongruent	0.58984	no	H	T
573.6796875	n/a	146862	responseSmallT	correct	n/a	0.58984	no	n/a	n/a
574.7421875	n/a	147134	largeTSmallH	correct	incongruent	0.49609	no	T	H
575.2382812	n/a	147261	responseSmallH	correct	n/a	0.49609	no	n/a	n/a
576.3007812	n/a	147533	largeHSmallT	correct	incongruent	0.52344	no	H	T
576.8242188	n/a	147667	responseSmallT	correct	n/a	0.52344	no	n/a	n/a
577.9023438	n/a	147943	largeTSmallH	correct	incongruent	0.52344	no	T	H
578.4257812	n/a	148077	responseSmallH	correct	n/a	0.52344	no	n/a	n/a
579.5	n/a	148352	largeHSmallH	correct	congruent	0.58203	no	H	H
580.0820312	n/a	148501	responseSmallH	correct	n/a	0.58203	no	n/a	n/a
581.15625	n/a	148776	largeTSmallH	correct	incongruent	0.53125	no	T	H
581.6875	n/a	148912	responseSmallH	correct	n/a	0.53125	no	n/a	n/a
582.7695312	n/a	149189	largeHSmallT	correct	incongruent	0.50781	no	H	T
583.2773438	n/a	149319	responseSmallT	correct	n/a	0.50781	no	n/a	n/a
584.3398438	n/a	149591	largeTSmallT	correct	congruent	0.74219	no	T	T
585.0820312	n/a	149781	responseSmallT	correct	n/a	0.74219	no	n/a	n/a
586.15625	n/a	150056	largeHSmallT	correct	incongruent	0.74219	no	H	T
586.8984375	n/a	150246	responseSmallT	correct	n/a	0.74219	no	n/a	n/a
587.9804688	n/a	150523	largeHSmallT	correct	incongruent	0.61719	no	H	T
588.5976562	n/a	150681	responseSmallT	correct	n/a	0.61719	no	n/a	n/a
589.6601562	n/a	150953	largeTSmallH	correct	incongruent	0.54688	no	T	H
590.2070312	n/a	151093	responseSmallH	correct	n/a	0.54688	no	n/a	n/a
591.2890625	n/a	151370	largeTSmallT	correct	congruent	0.58984	no	T	T
591.8789062	n/a	151521	responseSmallT	correct	n/a	0.58984	no	n/a	n/a
592.953125	n/a	151796	largeTSmallH	correct	incongruent	0.46094	no	T	H
593.4140625	n/a	151914	responseSmallH	correct	n/a	0.46094	no	n/a	n/a
594.4765625	n/a	152186	largeTSmallT	correct	congruent	0.5	no	T	T
594.9765625	n/a	152314	responseSmallT	correct	n/a	0.5	no	n/a	n/a
596.0625	n/a	152592	largeHSmallT	correct	incongruent	0.88672	no	H	T
596.9492188	n/a	152819	responseSmallT	correct	n/a	0.88672	no	n/a	n/a
598.0195312	n/a	153093	largeTSmallH	correct	incongruent	0.55078	no	T	H
598.5703125	n/a	153234	responseSmallH	correct	n/a	0.55078	no	n/a	n/a
599.6484375	n/a	153510	largeTSmallH	correct	incongruent	0.54688	no	T	H
600.1953125	n/a	153650	responseSmallH	correct	n/a	0.54688	no	n/a	n/a
601.2617188	n/a	153923	largeHSmallH	correct	congruent	1.5977	yes	H	H
602.859375	n/a	154332	responseSmallH	correct	n/a	1.5977	yes	n/a	n/a
603.9296875	n/a	154606	largeTSmallH	correct	incongruent	0.5625	no	T	H
604.4921875	n/a	154750	responseSmallH	correct	n/a	0.5625	no	n/a	n/a
605.5664062	n/a	155025	largeHSmallH	correct	congruent	0.4375	no	H	H
606.0039062	n/a	155137	responseSmallH	correct	n/a	0.4375	no	n/a	n/a
607.0742188	n/a	155411	largeHSmallT	correct	incongruent	0.90234	no	H	T
607.9765625	n/a	155642	responseSmallT	correct	n/a	0.90234	no	n/a	n/a
609.046875	n/a	155916	largeHSmallH	correct	congruent	0.55078	no	H	H
609.5976562	n/a	156057	responseSmallH	correct	n/a	0.55078	no	n/a	n/a
610.6757812	n/a	156333	largeHSmallH	correct	congruent	0.53125	no	H	H
611.2070312	n/a	156469	responseSmallH	correct	n/a	0.53125	no	n/a	n/a
612.2734375	n/a	156742	largeHSmallT	correct	incongruent	0.42188	no	H	T
612.6953125	n/a	156850	responseSmallT	correct	n/a	0.42188	no	n/a	n/a
613.765625	n/a	157124	largeHSmallH	correct	congruent	0.53125	no	H	H
614.296875	n/a	157260	responseSmallH	correct	n/a	0.53125	no	n/a	n/a
615.3671875	n/a	157534	largeHSmallT	correct	incongruent	0.46094	no	H	T
615.828125	n/a	157652	responseSmallT	correct	n/a	0.46094	no	n/a	n/a
616.9023438	n/a	157927	largeHSmallT	error	incongruent	0.375	no	H	T
617.2773438	n/a	158023	responseSmallH	error	n/a	0.375	no	n/a	n/a
618.3554688	n/a	158299	largeTSmallH	correct	incongruent	0.60547	no	T	H
618.9609375	n/a	158454	responseSmallH	correct	n/a	0.60547	no	n/a	n/a
620.0351562	n/a	158729	largeHSmallH	correct	congruent	0.58203	no	H	H
620.6171875	n/a	158878	responseSmallH	correct	n/a	0.58203	no	n/a	n/a
621.6875	n/a	159152	largeHSmallH	correct	congruent	0.58203	no	H	H
622.2695312	n/a	159301	responseSmallH	correct	n/a	0.58203	no	n/a	n/a
623.3398438	n/a	159575	largeHSmallH	correct	congruent	0.64062	no	H	H
623.9804688	n/a	159739	responseSmallH	correct	n/a	0.64062	no	n/a	n/a
625.0585938	n/a	160015	largeTSmallH	correct	incongruent	0.57422	no	T	H
625.6328125	n/a	160162	responseSmallH	correct	n/a	0.57422	no	n/a	n/a
626.7148438	n/a	160439	largeHSmallT	correct	incongruent	0.57031	no	H	T
627.2851562	n/a	160585	responseSmallT	correct	n/a	0.57031	no	n/a	n/a
628.3554688	n/a	160859	largeHSmallH	correct	congruent	0.44531	no	H	H
628.8007812	n/a	160973	responseSmallH	correct	n/a	0.44531	no	n/a	n/a
629.875	n/a	161248	largeTSmallT	correct	congruent	0.36328	no	T	T
630.2382812	n/a	161341	responseSmallT	correct	n/a	0.36328	no	n/a	n/a
631.3125	n/a	161616	largeTSmallT	correct	congruent	1.0156	no	T	T
632.328125	n/a	161876	responseSmallT	correct	n/a	1.0156	no	n/a	n/a
633.40625	n/a	162152	largeHSmallT	error	incongruent	0.46094	no	H	T
633.8671875	n/a	162270	responseSmallH	error	n/a	0.46094	no	n/a	n/a
634.953125	n/a	162548	largeHSmallH	correct	congruent	1.5234	yes	H	H
636.4765625	n/a	162938	responseSmallH	correct	n/a	1.5234	yes	n/a	n/a
637.5546875	n/a	163214	largeTSmallH	correct	incongruent	0.625	no	T	H
638.1796875	n/a	163374	responseSmallH	correct	n/a	0.625	no	n/a	n/a
639.2460938	n/a	163647	largeHSmallH	correct	congruent	0.62891	no	H	H
639.875	n/a	163808	responseSmallH	correct	n/a	0.62891	no	n/a	n/a
640.953125	n/a	164084	largeTSmallT	correct	congruent	0.46875	no	T	T
641.421875	n/a	164204	responseSmallT	correct	n/a	0.46875	no	n/a	n/a
642.5	n/a	164480	largeHSmallT	correct	incongruent	0.60547	no	H	T
643.1054688	n/a	164635	responseSmallT	correct	n/a	0.60547	no	n/a	n/a
644.1796875	n/a	164910	largeTSmallH	correct	incongruent	0.61719	no	T	H
644.796875	n/a	165068	responseSmallH	correct	n/a	0.61719	no	n/a	n/a
645.875	n/a	165344	largeTSmallH	correct	incongruent	0.57812	no	T	H
646.453125	n/a	165492	responseSmallH	correct	n/a	0.57812	no	n/a	n/a
647.5117188	n/a	165763	largeHSmallH	correct	congruent	0.81641	no	H	H
648.328125	n/a	165972	responseSmallH	correct	n/a	0.81641	no	n/a	n/a
649.3945312	n/a	166245	largeTSmallH	correct	incongruent	0.46094	no	T	H
649.8554688	n/a	166363	responseSmallH	correct	n/a	0.46094	no	n/a	n/a
650.9257812	n/a	166637	largeHSmallH	correct	congruent	0.58984	no	H	H
651.515625	n/a	166788	responseSmallH	correct	n/a	0.58984	no	n/a	n/a
652.59375	n/a	167064	largeHSmallH	correct	congruent	0.41016	no	H	H
653.0039062	n/a	167169	responseSmallH	correct	n/a	0.41016	no	n/a	n/a
654.0742188	n/a	167443	largeTSmallH	correct	incongruent	0.36719	no	T	H
654.4414062	n/a	167537	responseSmallH	correct	n/a	0.36719	no	n/a	n/a
655.5117188	n/a	167811	largeTSmallT	correct	congruent	0.38281	no	T	T
655.8945312	n/a	167909	responseSmallT	correct	n/a	0.38281	no	n/a	n/a
656.9648438	n/a	168183	largeHSmallH	correct	congruent	0.4375	no	H	H
657.4023438	n/a	168295	responseSmallH	correct	n/a	0.4375	no	n/a	n/a
658.4726562	n/a	168569	largeTSmallT	correct	congruent	0.4375	no	T	T
658.9101562	n/a	168681	responseSmallT	correct	n/a	0.4375	no	n/a	n/a
659.9804688	n/a	168955	largeTSmallT	correct	congruent	0.58984	no	T	T
660.5703125	n/a	169106	responseSmallT	correct	n/a	0.58984	no	n/a	n/a
661.6328125	n/a	169378	largeTSmallT	correct	congruent	0.51172	no	T	T
662.1445312	n/a	169509	responseSmallT	correct	n/a	0.51172	no	n/a	n/a
663.21875	n/a	169784	largeTSmallT	correct	congruent	0.51172	no	T	T
663.7304688	n/a	169915	responseSmallT	correct	n/a	0.51172	no	n/a	n/a
664.8046875	n/a	170190	largeHSmallH	correct	congruent	0.64453	no	H	H
665.4492188	n/a	170355	responseSmallH	correct	n/a	0.64453	no	n/a	n/a
666.5273438	n/a	170631	largeHSmallT	correct	incongruent	0.55078	no	H	T
667.078125	n/a	170772	responseSmallT	correct	n/a	0.55078	no	n/a	n/a
668.140625	n/a	171044	largeTSmallH	correct	incongruent	0.60547	no	T	H
668.7460938	n/a	171199	responseSmallH	correct	n/a	0.60547	no	n/a	n/a
669.8203125	n/a	171474	largeTSmallH	correct	incongruent	0.60938	no	T	H
670.4296875	n/a	171630	responseSmallH	correct	n/a	0.60938	no	n/a	n/a
671.5	n/a	171904	largeHSmallT	correct	incongruent	0.57031	no	H	T
672.0703125	n/a	172050	responseSmallT	correct	n/a	0.57031	no	n/a	n/a
673.140625	n/a	172324	largeTSmallT	error	congruent	0.46875	no	T	T
673.609375	n/a	172444	responseSmallH	error	n/a	0.46875	no	n/a	n/a
674.6875	n/a	172720	largeTSmallT	correct	congruent	0.61328	no	T	T
675.3007812	n/a	172877	responseSmallT	correct	n/a	0.61328	no	n/a	n/a
676.3671875	n/a	173150	largeHSmallT	correct	incongruent	0.71094	no	H	T
677.078125	n/a	173332	responseSmallT	correct	n/a	0.71094	no	n/a	n/a
678.140625	n/a	173604	largeTSmallH	correct	incongruent	0.55469	no	T	H
678.6953125	n/a	173746	responseSmallH	correct	n/a	0.55469	no	n/a	n/a
679.765625	n/a	174020	largeHSmallT	correct	incongruent	0.59375	no	H	T
680.359375	n/a	174172	responseSmallT	correct	n/a	0.59375	no	n/a	n/a
681.4335938	n/a	174447	largeHSmallH	correct	congruent	0.57031	no	H	H
682.0039062	n/a	174593	responseSmallH	correct	n/a	0.57031	no	n/a	n/a
683.0742188	n/a	174867	largeTSmallT	correct	congruent	0.5625	no	T	T
683.6367188	n/a	175011	responseSmallT	correct	n/a	0.5625	no	n/a	n/a
684.7109375	n/a	175286	largeHSmallH	correct	congruent	0.40234	no	H	H
685.1132812	n/a	175389	responseSmallH	correct	n/a	0.40234	no	n/a	n/a
686.1796875	n/a	175662	largeTSmallT	correct	congruent	0.50781	no	T	T
686.6875	n/a	175792	responseSmallT	correct	n/a	0.50781	no	n/a	n/a
687.7539062	n/a	176065	largeTSmallH	correct	incongruent	0.39844	no	T	H
688.1523438	n/a	176167	responseSmallH	correct	n/a	0.39844	no	n/a	n/a
689.21875	n/a	176440	largeTSmallH	correct	incongruent	0.66797	no	T	H
689.8867188	n/a	176611	responseSmallH	correct	n/a	0.66797	no	n/a	n/a
690.953125	n/a	176884	largeHSmallT	correct	incongruent	0.58984	no	H	T
691.5429688	n/a	177035	responseSmallT	correct	n/a	0.58984	no	n/a	n/a
692.6171875	n/a	177310	largeHSmallT	correct	incongruent	0.52734	no	H	T
693.1445312	n/a	177445	responseSmallT	correct	n/a	0.52734	no	n/a	n/a
694.2070312	n/a	177717	largeTSmallH	correct	incongruent	0.62109	no	T	H
694.828125	n/a	177876	responseSmallH	correct	n/a	0.62109	no	n/a	n/a
695.8984375	n/a	178150	largeHSmallH	error	congruent	0.4375	no	H	H
696.3359375	n/a	178262	responseSmallT	error	n/a	0.4375	no	n/a	n/a
697.40625	n/a	178536	largeTSmallH	correct	incongruent	0.81641	no	T	H
698.2226562	n/a	178745	responseSmallH	correct	n/a	0.81641	no	n/a	n/a
699.296875	n/a	179020	largeTSmallH	correct	incongruent	0.63281	no	T	H
699.9296875	n/a	179182	responseSmallH	correct	n/a	0.63281	no	n/a	n/a
700.9921875	n/a	179454	largeTSmallT	correct	congruent	0.50781	no	T	T
701.5	n/a	179584	responseSmallT	correct	n/a	0.50781	no	n/a	n/a
702.578125	n/a	179860	largeTSmallH	correct	incongruent	0.57812	no	T	H
703.15625	n/a	180008	responseSmallH	correct	n/a	0.57812	no	n/a	n/a
704.2304688	n/a	180283	largeHSmallT	error	incongruent	0.62891	no	H	T
704.859375	n/a	180444	responseSmallH	error	n/a	0.62891	no	n/a	n/a
705.9257812	n/a	180717	largeTSmallH	correct	incongruent	0.94922	no	T	H
706.875	n/a	180960	responseSmallH	correct	n/a	0.94922	no	n/a	n/a
707.9375	n/a	181232	largeHSmallH	correct	congruent	0.60156	no	H	H
708.5390625	n/a	181386	responseSmallH	correct	n/a	0.60156	no	n/a	n/a
709.6054688	n/a	181659	largeHSmallT	correct	incongruent	0.48828	no	H	T
710.09375	n/a	181784	responseSmallT	correct	n/a	0.48828	no	n/a	n/a
711.1640625	n/a	182058	largeHSmallH	error	congruent	0.43359	no	H	H
711.5976562	n/a	182169	responseSmallT	error	n/a	0.43359	no	n/a	n/a
719.6992188	n/a	184243	largeHSmallH	correct	congruent	1.0547	no	H	H
720.7539062	n/a	184513	responseLargeH	correct	n/a	1.0547	no	n/a	n/a
721.8164062	n/a	184785	largeTSmallH	correct	incongruent	0.76953	no	T	H
722.5859375	n/a	184982	responseLargeT	correct	n/a	0.76953	no	n/a	n/a
723.671875	n/a	185260	largeTSmallH	correct	incongruent	0.64453	no	T	H
724.3164062	n/a	185425	responseLargeT	correct	n/a	0.64453	no	n/a	n/a
725.3789062	n/a	185697	largeTSmallH	correct	incongruent	0.6875	no	T	H
726.0664062	n/a	185873	responseLargeT	correct	n/a	0.6875	no	n/a	n/a
727.1367188	n/a	186147	largeHSmallH	correct	congruent	0.55078	no	H	H
727.6875	n/a	186288	responseLargeH	correct	n/a	0.55078	no	n/a	n/a
728.765625	n/a	186564	largeHSmallT	correct	incongruent	0.64844	no	H	T
729.4140625	n/a	186730	responseLargeH	correct	n/a	0.64844	no	n/a	n/a
730.484375	n/a	187004	largeHSmallT	correct	incongruent	0.55859	no	H	T
731.0429688	n/a	187147	responseLargeH	correct	n/a	0.55859	no	n/a	n/a
732.125	n/a	187424	largeHSmallH	correct	congruent	0.44531	no	H	H
732.5703125	n/a	187538	responseLargeH	correct	n/a	0.44531	no	n/a	n/a
733.6328125	n/a	187810	largeTSmallT	correct	congruent	0.45703	no	T	T
734.0898438	n/a	187927	responseLargeT	correct	n/a	0.45703	no	n/a	n/a
735.1640625	n/a	188202	largeTSmallT	correct	congruent	0.46484	no	T	T
735.6289062	n/a	188321	responseLargeT	correct	n/a	0.46484	no	n/a	n/a
736.7109375	n/a	188598	largeHSmallT	correct	incongruent	0.5625	no	H	T
737.2734375	n/a	188742	responseLargeH	correct	n/a	0.5625	no	n/a	n/a
738.3359375	n/a	189014	largeHSmallT	correct	incongruent	0.56641	no	H	T
738.9023438	n/a	189159	responseLargeH	correct	n/a	0.56641	no	n/a	n/a
739.9648438	n/a	189431	largeTSmallT	correct	congruent	0.60938	no	T	T
740.5742188	n/a	189587	responseLargeT	correct	n/a	0.60938	no	n/a	n/a
741.6445312	n/a	189861	largeHSmallH	correct	congruent	0.48047	no	H	H
742.125	n/a	189984	responseLargeH	correct	n/a	0.48047	no	n/a	n/a
743.1914062	n/a	190257	largeHSmallT	correct	incongruent	0.66016	no	H	T
743.8515625	n/a	190426	responseLargeH	correct	n/a	0.66016	no	n/a	n/a
744.9257812	n/a	190701	largeTSmallT	correct	congruent	0.49609	no	T	T
745.421875	n/a	190828	responseLargeT	correct	n/a	0.49609	no	n/a	n/a
746.484375	n/a	191100	largeHSmallT	correct	incongruent	0.41016	no	H	T
746.8945312	n/a	191205	responseLargeH	correct	n/a	0.41016	no	n/a	n/a
747.9648438	n/a	191479	largeTSmallH	correct	incongruent	0.48828	no	T	H
748.453125	n/a	191604	responseLargeT	correct	n/a	0.48828	no	n/a	n/a
749.5234375	n/a	191878	largeTSmallT	correct	congruent	0.55859	no	T	T
750.0820312	n/a	192021	responseLargeT	correct	n/a	0.55859	no	n/a	n/a
751.1523438	n/a	192295	largeHSmallT	correct	incongruent	0.49609	no	H	T
751.6484375	n/a	192422	responseLargeH	correct	n/a	0.49609	no	n/a	n/a
752.7226562	n/a	192697	largeHSmallH	correct	congruent	0.54297	no	H	H
753.265625	n/a	192836	responseLargeH	correct	n/a	0.54297	no	n/a	n/a
754.3359375	n/a	193110	largeHSmallT	correct	incongruent	0.42188	no	H	T
754.7578125	n/a	193218	responseLargeH	correct	n/a	0.42188	no	n/a	n/a
755.8320312	n/a	193493	largeHSmallH	correct	congruent	0.5	no	H	H
756.3320312	n/a	193621	responseLargeH	correct	n/a	0.5	no	n/a	n/a
757.4023438	n/a	193895	largeTSmallT	correct	congruent	0.41016	no	T	T
757.8125	n/a	194000	responseLargeT	correct	n/a	0.41016	no	n/a	n/a
758.8828125	n/a	194274	largeTSmallH	correct	incongruent	0.63281	no	T	H
759.515625	n/a	194436	responseLargeT	correct	n/a	0.63281	no	n/a	n/a
760.5898438	n/a	194711	largeTSmallH	correct	incongruent	0.52344	no	T	H
761.1132812	n/a	194845	responseLargeT	correct	n/a	0.52344	no	n/a	n/a
762.1757812	n/a	195117	largeHSmallH	correct	congruent	0.51562	no	H	H
762.6914062	n/a	195249	responseLargeH	correct	n/a	0.51562	no	n/a	n/a
763.7617188	n/a	195523	largeTSmallH	correct	incongruent	0.66406	no	T	H
764.4257812	n/a	195693	responseLargeT	correct	n/a	0.66406	no	n/a	n/a
765.484375	n/a	195964	largeHSmallT	correct	incongruent	0.66797	no	H	T
766.1523438	n/a	196135	responseLargeH	correct	n/a	0.66797	no	n/a	n/a
767.2148438	n/a	196407	largeTSmallH	correct	incongruent	0.65625	no	T	H
767.8710938	n/a	196575	responseLargeT	correct	n/a	0.65625	no	n/a	n/a
768.9375	n/a	196848	largeTSmallH	correct	incongruent	0.74609	no	T	H
769.6835938	n/a	197039	responseLargeT	correct	n/a	0.74609	no	n/a	n/a
770.7617188	n/a	197315	largeHSmallT	correct	incongruent	0.49219	no	H	T
771.2539062	n/a	197441	responseLargeH	correct	n/a	0.49219	no	n/a	n/a
772.3242188	n/a	197715	largeTSmallH	correct	incongruent	0.46484	no	T	H
772.7890625	n/a	197834	responseLargeT	correct	n/a	0.46484	no	n/a	n/a
773.8710938	n/a	198111	largeTSmallH	error	incongruent	0.59375	no	T	H
774.4648438	n/a	198263	responseLargeH	error	n/a	0.59375	no	n/a	n/a
775.5351562	n/a	198537	largeTSmallT	correct	congruent	0.59766	no	T	T
776.1328125	n/a	198690	responseLargeT	correct	n/a	0.59766	no	n/a	n/a
777.203125	n/a	198964	largeHSmallH	correct	congruent	0.50391	no	H	H
777.7070312	n/a	199093	responseLargeH	correct	n/a	0.50391	no	n/a	n/a
778.7773438	n/a	199367	largeTSmallT	correct	congruent	0.47266	no	T	T
779.25	n/a	199488	responseLargeT	correct	n/a	0.47266	no	n/a	n/a
780.3242188	n/a	199763	largeTSmallH	error	incongruent	0.39844	no	T	H
780.7226562	n/a	199865	responseLargeH	error	n/a	0.39844	no	n/a	n/a
781.7890625	n/a	200138	largeHSmallT	correct	incongruent	0.69922	no	H	T
782.4882812	n/a	200317	responseLargeH	correct	n/a	0.69922	no	n/a	n/a
783.5507812	n/a	200589	largeHSmallH	correct	congruent	0.70703	no	H	H
784.2578125	n/a	200770	responseLargeH	correct	n/a	0.70703	no	n/a	n/a
785.3359375	n/a	201046	largeTSmallT	correct	congruent	0.44531	no	T	T
785.78125	n/a	201160	responseLargeT	correct	n/a	0.44531	no	n/a	n/a
786.8554688	n/a	201435	largeHSmallH	correct	congruent	0.55859	no	H	H
787.4140625	n/a	201578	responseLargeH	correct	n/a	0.55859	no	n/a	n/a
788.484375	n/a	201852	largeTSmallH	correct	incongruent	0.52734	no	T	H
789.0117188	n/a	201987	responseLargeT	correct	n/a	0.52734	no	n/a	n/a
790.0820312	n/a	202261	largeHSmallT	correct	incongruent	0.50391	no	H	T
790.5859375	n/a	202390	responseLargeH	correct	n/a	0.50391	no	n/a	n/a
791.6679688	n/a	202667	largeHSmallH	correct	congruent	0.5625	no	H	H
792.2304688	n/a	202811	responseLargeH	correct	n/a	0.5625	no	n/a	n/a
793.3085938	n/a	203087	largeHSmallT	correct	incongruent	0.44141	no	H	T
793.75	n/a	203200	responseLargeH	correct	n/a	0.44141	no	n/a	n/a
794.8164062	n/a	203473	largeHSmallT	correct	incongruent	0.54297	no	H	T
795.359375	n/a	203612	responseLargeH	correct	n/a	0.54297	no	n/a	n/a
796.4179688	n/a	203883	largeTSmallT	correct	congruent	0.59375	no	T	T
797.0117188	n/a	204035	responseLargeT	correct	n/a	0.59375	no	n/a	n/a
798.0820312	n/a	204309	largeTSmallT	correct	congruent	0.39453	no	T	T
798.4765625	n/a	204410	responseLargeT	correct	n/a	0.39453	no	n/a	n/a
799.5351562	n/a	204681	largeHSmallH	correct	congruent	0.49609	no	H	H
800.03125	n/a	204808	responseLargeH	correct	n/a	0.49609	no	n/a	n/a
801.0976562	n/a	205081	largeTSmallT	correct	congruent	0.48047	no	T	T
801.578125	n/a	205204	responseLargeT	correct	n/a	0.48047	no	n/a	n/a
802.6445312	n/a	205477	largeTSmallT	correct	congruent	0.44922	no	T	T
803.09375	n/a	205592	responseLargeT	correct	n/a	0.44922	no	n/a	n/a
804.1640625	n/a	205866	largeTSmallH	correct	incongruent	0.54297	no	T	H
804.7070312	n/a	206005	responseLargeT	correct	n/a	0.54297	no	n/a	n/a
805.7890625	n/a	206282	largeTSmallH	correct	incongruent	0.55859	no	T	H
806.3476562	n/a	206425	responseLargeT	correct	n/a	0.55859	no	n/a	n/a
807.4140625	n/a	206698	largeTSmallH	correct	incongruent	0.37109	no	T	H
807.7851562	n/a	206793	responseLargeT	correct	n/a	0.37109	no	n/a	n/a
808.8554688	n/a	207067	largeHSmallT	error	incongruent	0.37109	no	H	T
809.2265625	n/a	207162	responseLargeT	error	n/a	0.37109	no	n/a	n/a
810.28125	n/a	207432	largeTSmallH	correct	incongruent	0.92969	no	T	H
811.2109375	n/a	207670	responseLargeT	correct	n/a	0.92969	no	n/a	n/a
812.296875	n/a	207948	largeTSmallT	correct	congruent	0.52734	no	T	T
812.8242188	n/a	208083	responseLargeT	correct	n/a	0.52734	no	n/a	n/a
813.8945312	n/a	208357	largeTSmallH	correct	incongruent	0.47266	no	T	H
814.3671875	n/a	208478	responseLargeT	correct	n/a	0.47266	no	n/a	n/a
815.4414062	n/a	208753	largeHSmallH	correct	congruent	0.42188	no	H	H
815.8632812	n/a	208861	responseLargeH	correct	n/a	0.42188	no	n/a	n/a
816.9335938	n/a	209135	largeHSmallH	correct	congruent	0.60938	no	H	H
817.5429688	n/a	209291	responseLargeH	correct	n/a	0.60938	no	n/a	n/a
818.6015625	n/a	209562	largeTSmallH	correct	incongruent	0.46875	no	T	H
819.0703125	n/a	209682	responseLargeT	correct	n/a	0.46875	no	n/a	n/a
820.1367188	n/a	209955	largeHSmallH	correct	congruent	0.4375	no	H	H
820.5742188	n/a	210067	responseLargeH	correct	n/a	0.4375	no	n/a	n/a
821.640625	n/a	210340	largeHSmallH	error	congruent	0.36719	no	H	H
822.0078125	n/a	210434	responseLargeT	error	n/a	0.36719	no	n/a	n/a
823.0820312	n/a	210709	largeHSmallH	correct	congruent	0.70312	no	H	H
823.7851562	n/a	210889	responseLargeH	correct	n/a	0.70312	no	n/a	n/a
824.8554688	n/a	211163	largeTSmallH	correct	incongruent	0.58984	no	T	H
825.4453125	n/a	211314	responseLargeT	correct	n/a	0.58984	no	n/a	n/a
826.5078125	n/a	211586	largeHSmallT	correct	incongruent	0.78516	no	H	T
827.2929688	n/a	211787	responseLargeH	correct	n/a	0.78516	no	n/a	n/a
828.3632812	n/a	212061	largeHSmallT	correct	incongruent	0.65625	no	H	T
829.0195312	n/a	212229	responseLargeH	correct	n/a	0.65625	no	n/a	n/a
830.09375	n/a	212504	largeHSmallT	correct	incongruent	0.50781	no	H	T
830.6015625	n/a	212634	responseLargeH	correct	n/a	0.50781	no	n/a	n/a
831.6835938	n/a	212911	largeTSmallH	correct	incongruent	0.5	no	T	H
832.1835938	n/a	213039	responseLargeT	correct	n/a	0.5	no	n/a	n/a
833.2539062	n/a	213313	largeHSmallT	correct	incongruent	0.67188	no	H	T
833.9257812	n/a	213485	responseLargeH	correct	n/a	0.67188	no	n/a	n/a
835	n/a	213760	largeTSmallT	correct	congruent	0.58594	no	T	T
835.5859375	n/a	213910	responseLargeT	correct	n/a	0.58594	no	n/a	n/a
836.65625	n/a	214184	largeTSmallH	error	incongruent	0.52734	no	T	H
837.1835938	n/a	214319	responseLargeH	error	n/a	0.52734	no	n/a	n/a
838.2695312	n/a	214597	largeHSmallT	correct	incongruent	0.76953	no	H	T
839.0390625	n/a	214794	responseLargeH	correct	n/a	0.76953	no	n/a	n/a
840.109375	n/a	215068	largeHSmallH	correct	congruent	0.57422	no	H	H
840.6835938	n/a	215215	responseLargeH	correct	n/a	0.57422	no	n/a	n/a
841.7617188	n/a	215491	largeHSmallH	correct	congruent	0.53906	no	H	H
842.3007812	n/a	215629	responseLargeH	correct	n/a	0.53906	no	n/a	n/a
843.375	n/a	215904	largeTSmallH	correct	incongruent	0.58203	no	T	H
843.9570312	n/a	216053	responseLargeT	correct	n/a	0.58203	no	n/a	n/a
845.0273438	n/a	216327	largeTSmallH	correct	incongruent	0.375	no	T	H
845.4023438	n/a	216423	responseLargeT	correct	n/a	0.375	no	n/a	n/a
846.46875	n/a	216696	largeHSmallT	correct	incongruent	0.60938	no	H	T
847.078125	n/a	216852	responseLargeH	correct	n/a	0.60938	no	n/a	n/a
848.1484375	n/a	217126	largeTSmallH	correct	incongruent	0.70703	no	T	H
848.8554688	n/a	217307	responseLargeT	correct	n/a	0.70703	no	n/a	n/a
849.9335938	n/a	217583	largeHSmallT	correct	incongruent	0.52734	no	H	T
850.4609375	n/a	217718	responseLargeH	correct	n/a	0.52734	no	n/a	n/a
851.5351562	n/a	217993	largeTSmallT	correct	congruent	0.62109	no	T	T
852.15625	n/a	218152	responseLargeT	correct	n/a	0.62109	no	n/a	n/a
853.2148438	n/a	218423	largeHSmallH	correct	congruent	0.47656	no	H	H
853.6914062	n/a	218545	responseLargeH	correct	n/a	0.47656	no	n/a	n/a
854.7617188	n/a	218819	largeHSmallH	correct	congruent	0.57031	no	H	H
855.3320312	n/a	218965	responseLargeH	correct	n/a	0.57031	no	n/a	n/a
856.4023438	n/a	219239	largeTSmallH	correct	incongruent	0.43359	no	T	H
856.8359375	n/a	219350	responseLargeT	correct	n/a	0.43359	no	n/a	n/a
857.90625	n/a	219624	largeTSmallH	error	incongruent	0.49219	no	T	H
858.3984375	n/a	219750	responseLargeH	error	n/a	0.49219	no	n/a	n/a
859.4804688	n/a	220027	largeTSmallH	correct	incongruent	0.59766	no	T	H
860.078125	n/a	220180	responseLargeT	correct	n/a	0.59766	no	n/a	n/a
861.1484375	n/a	220454	largeTSmallT	correct	congruent	0.48828	no	T	T
861.6367188	n/a	220579	responseLargeT	correct	n/a	0.48828	no	n/a	n/a
862.7070312	n/a	220853	largeHSmallH	correct	congruent	0.5625	no	H	H
863.2695312	n/a	220997	responseLargeH	correct	n/a	0.5625	no	n/a	n/a
864.3476562	n/a	221273	largeTSmallT	correct	congruent	0.82812	no	T	T
865.1757812	n/a	221485	responseLargeT	correct	n/a	0.82812	no	n/a	n/a
866.2539062	n/a	221761	largeTSmallH	correct	incongruent	0.87891	no	T	H
867.1328125	n/a	221986	responseLargeT	correct	n/a	0.87891	no	n/a	n/a
868.1992188	n/a	222259	largeHSmallT	correct	incongruent	0.47266	no	H	T
868.671875	n/a	222380	responseLargeH	correct	n/a	0.47266	no	n/a	n/a
869.7460938	n/a	222655	largeTSmallT	correct	congruent	0.51953	no	T	T
870.265625	n/a	222788	responseLargeT	correct	n/a	0.51953	no	n/a	n/a
871.3359375	n/a	223062	largeTSmallT	correct	congruent	0.69531	no	T	T
872.03125	n/a	223240	responseLargeT	correct	n/a	0.69531	no	n/a	n/a
873.09375	n/a	223512	largeTSmallT	correct	congruent	0.52344	no	T	T
873.6171875	n/a	223646	responseLargeT	correct	n/a	0.52344	no	n/a	n/a
874.6953125	n/a	223922	largeHSmallH	correct	congruent	0.66406	no	H	H
875.359375	n/a	224092	responseLargeH	correct	n/a	0.66406	no	n/a	n/a
876.4414062	n/a	224369	largeTSmallH	correct	incongruent	0.44531	no	T	H
876.8867188	n/a	224483	responseLargeT	correct	n/a	0.44531	no	n/a	n/a
877.9609375	n/a	224758	largeHSmallH	correct	congruent	0.35156	no	H	H
878.3125	n/a	224848	responseLargeH	correct	n/a	0.35156	no	n/a	n/a
879.3867188	n/a	225123	largeHSmallH	error	congruent	0.13281	yes	H	H
879.5195312	n/a	225157	responseLargeT	error	n/a	0.13281	yes	n/a	n/a
880.5859375	n/a	225430	largeTSmallH	correct	incongruent	0.75391	no	T	H
881.3398438	n/a	225623	responseLargeT	correct	n/a	0.75391	no	n/a	n/a
882.4140625	n/a	225898	largeHSmallT	correct	incongruent	0.67578	no	H	T
883.0898438	n/a	226071	responseLargeH	correct	n/a	0.67578	no	n/a	n/a
884.1601562	n/a	226345	largeHSmallT	correct	incongruent	0.64453	no	H	T
884.8046875	n/a	226510	responseLargeH	correct	n/a	0.64453	no	n/a	n/a
885.8671875	n/a	226782	largeTSmallT	correct	congruent	0.57812	no	T	T
886.4453125	n/a	226930	responseLargeT	correct	n/a	0.57812	no	n/a	n/a
887.5078125	n/a	227202	largeTSmallH	correct	incongruent	0.66797	no	T	H
888.1757812	n/a	227373	responseLargeT	correct	n/a	0.66797	no	n/a	n/a
889.2421875	n/a	227646	largeHSmallH	correct	congruent	0.60156	no	H	H
889.84375	n/a	227800	responseLargeH	correct	n/a	0.60156	no	n/a	n/a
890.90625	n/a	228072	largeHSmallT	error	incongruent	0.8125	no	H	T
891.71875	n/a	228280	responseLargeT	error	n/a	0.8125	no	n/a	n/a
892.7851562	n/a	228553	largeTSmallT	correct	congruent	0.80078	no	T	T
893.5859375	n/a	228758	responseLargeT	correct	n/a	0.80078	no	n/a	n/a
894.6523438	n/a	229031	largeHSmallH	correct	congruent	0.50781	no	H	H
895.1601562	n/a	229161	responseLargeH	correct	n/a	0.50781	no	n/a	n/a
896.2265625	n/a	229434	largeHSmallT	correct	incongruent	0.66797	no	H	T
896.8945312	n/a	229605	responseLargeH	correct	n/a	0.66797	no	n/a	n/a
897.9609375	n/a	229878	largeHSmallH	correct	congruent	0.76953	no	H	H
898.7304688	n/a	230075	responseLargeH	correct	n/a	0.76953	no	n/a	n/a
899.8007812	n/a	230349	largeHSmallT	correct	incongruent	0.48828	no	H	T
900.2890625	n/a	230474	responseLargeH	correct	n/a	0.48828	no	n/a	n/a
901.359375	n/a	230748	largeHSmallH	correct	congruent	0.47266	no	H	H
901.8320312	n/a	230869	responseLargeH	correct	n/a	0.47266	no	n/a	n/a
902.90625	n/a	231144	largeTSmallT	correct	congruent	0.59375	no	T	T
903.5	n/a	231296	responseLargeT	correct	n/a	0.59375	no	n/a	n/a
904.5742188	n/a	231571	largeTSmallT	correct	congruent	0.42578	no	T	T
905	n/a	231680	responseLargeT	correct	n/a	0.42578	no	n/a	n/a
906.0664062	n/a	231953	largeHSmallT	correct	incongruent	0.53906	no	H	T
906.6054688	n/a	232091	responseLargeH	correct	n/a	0.53906	no	n/a	n/a
907.6796875	n/a	232366	largeHSmallT	correct	incongruent	0.55469	no	H	T
908.234375	n/a	232508	responseLargeH	correct	n/a	0.55469	no	n/a	n/a
909.3046875	n/a	232782	largeHSmallT	correct	incongruent	0.46094	no	H	T
909.765625	n/a	232900	responseLargeH	correct	n/a	0.46094	no	n/a	n/a
910.8398438	n/a	233175	largeHSmallT	correct	incongruent	0.46484	no	H	T
911.3046875	n/a	233294	responseLargeH	correct	n/a	0.46484	no	n/a	n/a
912.3710938	n/a	233567	largeHSmallH	correct	congruent	0.4375	no	H	H
912.8085938	n/a	233679	responseLargeH	correct	n/a	0.4375	no	n/a	n/a
913.8789062	n/a	233953	largeHSmallT	correct	incongruent	0.40625	no	H	T
914.2851562	n/a	234057	responseLargeH	correct	n/a	0.40625	no	n/a	n/a
915.359375	n/a	234332	largeHSmallH	correct	congruent	0.46094	no	H	H
915.8203125	n/a	234450	responseLargeH	correct	n/a	0.46094	no	n/a	n/a
916.8789062	n/a	234721	largeHSmallH	correct	congruent	0.36719	no	H	H
917.2460938	n/a	234815	responseLargeH	correct	n/a	0.36719	no	n/a	n/a
918.3203125	n/a	235090	largeTSmallH	error	incongruent	0.35938	no	T	H
918.6796875	n/a	235182	responseLargeH	error	n/a	0.35938	no	n/a	n/a
919.7578125	n/a	235458	largeTSmallH	correct	incongruent	0.58203	no	T	H
920.3398438	n/a	235607	responseLargeT	correct	n/a	0.58203	no	n/a	n/a
921.4140625	n/a	235882	largeHSmallH	correct	congruent	0.55859	no	H	H
921.9726562	n/a	236025	responseLargeH	correct	n/a	0.55859	no	n/a	n/a
923.0546875	n/a	236302	largeHSmallH	correct	congruent	0.53125	no	H	H
923.5859375	n/a	236438	responseLargeH	correct	n/a	0.53125	no	n/a	n/a
924.6523438	n/a	236711	largeTSmallH	correct	incongruent	0.78516	no	T	H
925.4375	n/a	236912	responseLargeT	correct	n/a	0.78516	no	n/a	n/a
926.5078125	n/a	237186	largeHSmallH	correct	congruent	0.53125	no	H	H
927.0390625	n/a	237322	responseLargeH	correct	n/a	0.53125	no	n/a	n/a
928.1054688	n/a	237595	largeTSmallH	error	incongruent	0.40625	no	T	H
928.5117188	n/a	237699	responseLargeH	error	n/a	0.40625	no	n/a	n/a
929.5859375	n/a	237974	largeTSmallH	correct	incongruent	0.56641	no	T	H
930.1523438	n/a	238119	responseLargeT	correct	n/a	0.56641	no	n/a	n/a
931.2265625	n/a	238394	largeTSmallT	correct	congruent	0.46094	no	T	T
931.6875	n/a	238512	responseLargeT	correct	n/a	0.46094	no	n/a	n/a
932.7460938	n/a	238783	largeHSmallH	correct	congruent	0.58594	no	H	H
933.3320312	n/a	238933	responseLargeH	correct	n/a	0.58594	no	n/a	n/a
934.3984375	n/a	239206	largeTSmallT	correct	congruent	0.50391	no	T	T
934.9023438	n/a	239335	responseLargeT	correct	n/a	0.50391	no	n/a	n/a
935.984375	n/a	239612	largeTSmallT	correct	congruent	0.54688	no	T	T
936.53125	n/a	239752	responseLargeT	correct	n/a	0.54688	no	n/a	n/a
937.5976562	n/a	240025	largeTSmallT	correct	congruent	0.52734	no	T	T
938.125	n/a	240160	responseLargeT	correct	n/a	0.52734	no	n/a	n/a
939.1992188	n/a	240435	largeHSmallH	correct	congruent	0.55078	no	H	H
939.75	n/a	240576	responseLargeH	correct	n/a	0.55078	no	n/a	n/a
940.8125	n/a	240848	largeTSmallT	correct	congruent	0.54688	no	T	T
941.359375	n/a	240988	responseLargeT	correct	n/a	0.54688	no	n/a	n/a
942.4375	n/a	241264	largeTSmallH	correct	incongruent	0.63672	no	T	H
943.0742188	n/a	241427	responseLargeT	correct	n/a	0.63672	no	n/a	n/a
944.1445312	n/a	241701	largeHSmallT	correct	incongruent	0.48828	no	H	T
944.6328125	n/a	241826	responseLargeH	correct	n/a	0.48828	no	n/a	n/a
945.7070312	n/a	242101	largeTSmallT	correct	congruent	0.43359	no	T	T
946.140625	n/a	242212	responseLargeT	correct	n/a	0.43359	no	n/a	n/a
947.2109375	n/a	242486	largeTSmallT	correct	congruent	0.53906	no	T	T
947.75	n/a	242624	responseLargeT	correct	n/a	0.53906	no	n/a	n/a
948.8242188	n/a	242899	largeTSmallT	correct	congruent	0.46484	no	T	T
949.2890625	n/a	243018	responseLargeT	correct	n/a	0.46484	no	n/a	n/a
950.359375	n/a	243292	largeHSmallH	error	congruent	0.40625	no	H	H
950.765625	n/a	243396	responseLargeT	error	n/a	0.40625	no	n/a	n/a
951.8242188	n/a	243667	largeHSmallH	correct	congruent	0.59375	no	H	H
952.4179688	n/a	243819	responseLargeH	correct	n/a	0.59375	no	n/a	n/a
953.4804688	n/a	244091	largeTSmallT	correct	congruent	0.60938	no	T	T
954.0898438	n/a	244247	responseLargeT	correct	n/a	0.60938	no	n/a	n/a
955.1601562	n/a	244521	largeTSmallH	correct	incongruent	0.54297	no	T	H
955.703125	n/a	244660	responseLargeT	correct	n/a	0.54297	no	n/a	n/a
956.7734375	n/a	244934	largeHSmallH	correct	congruent	0.60156	no	H	H
957.375	n/a	245088	responseLargeH	correct	n/a	0.60156	no	n/a	n/a
958.4375	n/a	245360	largeHSmallH	correct	congruent	1.2305	no	H	H
959.6679688	n/a	245675	responseLargeH	correct	n/a	1.2305	no	n/a	n/a
960.7460938	n/a	245951	largeTSmallT	correct	congruent	0.58594	no	T	T
961.3320312	n/a	246101	responseLargeT	correct	n/a	0.58594	no	n/a	n/a
962.4101562	n/a	246377	largeHSmallT	correct	incongruent	0.87109	no	H	T
963.28125	n/a	246600	responseLargeH	correct	n/a	0.87109	no	n/a	n/a
964.359375	n/a	246876	largeTSmallT	correct	congruent	0.625	no	T	T
964.984375	n/a	247036	responseLargeT	correct	n/a	0.625	no	n/a	n/a
966.0664062	n/a	247313	largeHSmallH	correct	congruent	0.60547	no	H	H
966.671875	n/a	247468	responseLargeH	correct	n/a	0.60547	no	n/a	n/a
967.7460938	n/a	247743	largeTSmallT	correct	congruent	0.57031	no	T	T
968.3164062	n/a	247889	responseLargeT	correct	n/a	0.57031	no	n/a	n/a
969.3867188	n/a	248163	largeHSmallT	correct	incongruent	0.6875	no	H	T
970.0742188	n/a	248339	responseLargeH	correct	n/a	0.6875	no	n/a	n/a
971.1445312	n/a	248613	largeHSmallH	correct	congruent	0.57031	no	H	H
971.7148438	n/a	248759	responseLargeH	correct	n/a	0.57031	no	n/a	n/a
972.7851562	n/a	249033	largeTSmallT	correct	congruent	0.63672	no	T	T
973.421875	n/a	249196	responseLargeT	correct	n/a	0.63672	no	n/a	n/a
974.5039062	n/a	249473	largeTSmallT	correct	congruent	0.65625	no	T	T
975.1601562	n/a	249641	responseLargeT	correct	n/a	0.65625	no	n/a	n/a
976.2265625	n/a	249914	largeHSmallT	correct	incongruent	0.57031	no	H	T
976.796875	n/a	250060	responseLargeH	correct	n/a	0.57031	no	n/a	n/a
977.8632812	n/a	250333	largeTSmallT	correct	congruent	0.51172	no	T	T
978.375	n/a	250464	responseLargeT	correct	n/a	0.51172	no	n/a	n/a
979.4375	n/a	250736	largeHSmallT	correct	incongruent	0.64453	no	H	T
980.0820312	n/a	250901	responseLargeH	correct	n/a	0.64453	no	n/a	n/a
981.15625	n/a	251176	largeHSmallT	correct	incongruent	0.65234	no	H	T
981.8085938	n/a	251343	responseLargeH	correct	n/a	0.65234	no	n/a	n/a
982.8789062	n/a	251617	largeHSmallH	correct	congruent	0.60547	no	H	H
983.484375	n/a	251772	responseLargeH	correct	n/a	0.60547	no	n/a	n/a
984.5585938	n/a	252047	largeHSmallT	correct	incongruent	0.53516	no	H	T
985.09375	n/a	252184	responseLargeH	correct	n/a	0.53516	no	n/a	n/a
986.171875	n/a	252460	largeHSmallH	correct	congruent	0.8125	no	H	H
986.984375	n/a	252668	responseLargeH	correct	n/a	0.8125	no	n/a	n/a
988.0507812	n/a	252941	largeTSmallT	correct	congruent	0.75781	no	T	T
988.8085938	n/a	253135	responseLargeT	correct	n/a	0.75781	no	n/a	n/a
989.8789062	n/a	253409	largeTSmallH	correct	incongruent	0.54297	no	T	H
990.421875	n/a	253548	responseLargeT	correct	n/a	0.54297	no	n/a	n/a
991.4921875	n/a	253822	largeTSmallT	correct	congruent	0.44922	no	T	T
991.9414062	n/a	253937	responseLargeT	correct	n/a	0.44922	no	n/a	n/a
993.0117188	n/a	254211	largeTSmallH	correct	incongruent	0.36328	no	T	H
993.375	n/a	254304	responseLargeT	correct	n/a	0.36328	no	n/a	n/a
994.4492188	n/a	254579	largeHSmallT	correct	incongruent	0.59375	no	H	T
995.0429688	n/a	254731	responseLargeH	correct	n/a	0.59375	no	n/a	n/a
996.1171875	n/a	255006	largeTSmallH	correct	incongruent	0.46875	no	T	H
996.5859375	n/a	255126	responseLargeT	correct	n/a	0.46875	no	n/a	n/a
997.6640625	n/a	255402	largeHSmallT	correct	incongruent	0.44922	no	H	T
998.1132812	n/a	255517	responseLargeH	correct	n/a	0.44922	no	n/a	n/a
999.171875	n/a	255788	largeHSmallT	error	incongruent	0.29688	no	H	T
999.46875	n/a	255864	responseLargeT	error	n/a	0.29688	no	n/a	n/a
1000.53125	n/a	256136	largeHSmallT	correct	incongruent	0.46875	no	H	T
1001	n/a	256256	responseLargeH	correct	n/a	0.46875	no	n/a	n/a
1002.078125	n/a	256532	largeHSmallT	correct	incongruent	0.50781	no	H	T
1002.585938	n/a	256662	responseLargeH	correct	n/a	0.50781	no	n/a	n/a
1003.652344	n/a	256935	largeHSmallH	correct	congruent	0.76172	no	H	H
1004.414062	n/a	257130	responseLargeH	correct	n/a	0.76172	no	n/a	n/a
1005.476562	n/a	257402	largeTSmallT	correct	congruent	0.51562	no	T	T
1005.992188	n/a	257534	responseLargeT	correct	n/a	0.51562	no	n/a	n/a
1007.078125	n/a	257812	largeHSmallT	correct	incongruent	0.54297	no	H	T
1007.621094	n/a	257951	responseLargeH	correct	n/a	0.54297	no	n/a	n/a
1008.691406	n/a	258225	largeTSmallH	correct	incongruent	0.5	no	T	H
1009.191406	n/a	258353	responseLargeT	correct	n/a	0.5	no	n/a	n/a
1010.265625	n/a	258628	largeTSmallT	correct	congruent	0.54688	no	T	T
1010.8125	n/a	258768	responseLargeT	correct	n/a	0.54688	no	n/a	n/a
1011.890625	n/a	259044	largeTSmallT	correct	congruent	0.45312	no	T	T
1012.34375	n/a	259160	responseLargeT	correct	n/a	0.45312	no	n/a	n/a
1013.421875	n/a	259436	largeHSmallT	correct	incongruent	0.54688	no	H	T
1013.96875	n/a	259576	responseLargeH	correct	n/a	0.54688	no	n/a	n/a
1015.039062	n/a	259850	largeHSmallH	correct	congruent	0.48047	no	H	H
1015.519531	n/a	259973	responseLargeH	correct	n/a	0.48047	no	n/a	n/a
1016.582031	n/a	260245	largeHSmallT	correct	incongruent	0.66797	no	H	T
1017.25	n/a	260416	responseLargeH	correct	n/a	0.66797	no	n/a	n/a
1018.316406	n/a	260689	largeTSmallT	correct	congruent	0.66016	no	T	T
1018.976562	n/a	260858	responseLargeT	correct	n/a	0.66016	no	n/a	n/a
1020.050781	n/a	261133	largeHSmallH	correct	congruent	0.74609	no	H	H
1020.796875	n/a	261324	responseLargeH	correct	n/a	0.74609	no	n/a	n/a
1021.875	n/a	261600	largeTSmallT	correct	congruent	0.51953	no	T	T
1022.394531	n/a	261733	responseLargeT	correct	n/a	0.51953	no	n/a	n/a
1023.464844	n/a	262007	largeHSmallH	correct	congruent	0.55859	no	H	H
1024.023438	n/a	262150	responseLargeH	correct	n/a	0.55859	no	n/a	n/a
1025.101562	n/a	262426	largeTSmallT	correct	congruent	0.42188	no	T	T
1025.523438	n/a	262534	responseLargeT	correct	n/a	0.42188	no	n/a	n/a
1026.597656	n/a	262809	largeTSmallH	error	incongruent	0.36328	no	T	H
1026.960938	n/a	262902	responseLargeH	error	n/a	0.36328	no	n/a	n/a
1028.035156	n/a	263177	largeTSmallH	correct	incongruent	0.54297	no	T	H
1028.578125	n/a	263316	responseLargeT	correct	n/a	0.54297	no	n/a	n/a
1029.648438	n/a	263590	largeTSmallH	correct	incongruent	0.58203	no	T	H
1030.230469	n/a	263739	responseLargeT	correct	n/a	0.58203	no	n/a	n/a
1031.304688	n/a	264014	largeTSmallT	correct	congruent	0.41797	no	T	T
1031.722656	n/a	264121	responseLargeT	correct	n/a	0.41797	no	n/a	n/a
1032.796875	n/a	264396	largeTSmallH	correct	incongruent	0.47266	no	T	H
1033.269531	n/a	264517	responseLargeT	correct	n/a	0.47266	no	n/a	n/a
1034.34375	n/a	264792	largeTSmallH	correct	incongruent	0.4375	no	T	H
1034.78125	n/a	264904	responseLargeT	correct	n/a	0.4375	no	n/a	n/a
1035.851562	n/a	265178	largeHSmallT	correct	incongruent	0.51172	no	H	T
1036.363281	n/a	265309	responseLargeH	correct	n/a	0.51172	no	n/a	n/a
1037.421875	n/a	265580	largeTSmallH	correct	incongruent	0.46094	no	T	H
1037.882812	n/a	265698	responseLargeT	correct	n/a	0.46094	no	n/a	n/a
1038.957031	n/a	265973	largeTSmallH	correct	incongruent	0.60938	no	T	H
1039.566406	n/a	266129	responseLargeT	correct	n/a	0.60938	no	n/a	n/a
1040.636719	n/a	266403	largeTSmallT	correct	congruent	0.47266	no	T	T
1041.109375	n/a	266524	responseLargeT	correct	n/a	0.47266	no	n/a	n/a
1042.183594	n/a	266799	largeHSmallH	correct	congruent	0.52344	no	H	H
1042.707031	n/a	266933	responseLargeH	correct	n/a	0.52344	no	n/a	n/a
1043.78125	n/a	267208	largeHSmallT	correct	incongruent	0.625	no	H	T
1044.40625	n/a	267368	responseLargeH	correct	n/a	0.625	no	n/a	n/a
1054.957031	n/a	270069	largeTSmallT	correct	congruent	0.58203	no	T	T
1055.539062	n/a	270218	responseSmallT	correct	n/a	0.58203	no	n/a	n/a
1056.621094	n/a	270495	largeTSmallH	correct	incongruent	0.58203	no	T	H
1057.203125	n/a	270644	responseSmallH	correct	n/a	0.58203	no	n/a	n/a
1058.277344	n/a	270919	largeHSmallH	correct	congruent	0.55469	no	H	H
1058.832031	n/a	271061	responseSmallH	correct	n/a	0.55469	no	n/a	n/a
1059.902344	n/a	271335	largeHSmallH	correct	congruent	0.49609	no	H	H
1060.398438	n/a	271462	responseSmallH	correct	n/a	0.49609	no	n/a	n/a
1061.460938	n/a	271734	largeTSmallH	correct	incongruent	0.53125	no	T	H
1061.992188	n/a	271870	responseSmallH	correct	n/a	0.53125	no	n/a	n/a
1063.0625	n/a	272144	largeHSmallH	correct	congruent	0.44141	no	H	H
1063.503906	n/a	272257	responseSmallH	correct	n/a	0.44141	no	n/a	n/a
1064.570312	n/a	272530	largeHSmallH	correct	congruent	0.49219	no	H	H
1065.0625	n/a	272656	responseSmallH	correct	n/a	0.49219	no	n/a	n/a
1066.128906	n/a	272929	largeTSmallT	correct	congruent	0.46094	no	T	T
1066.589844	n/a	273047	responseSmallT	correct	n/a	0.46094	no	n/a	n/a
1067.664062	n/a	273322	largeTSmallH	correct	incongruent	0.47656	no	T	H
1068.140625	n/a	273444	responseSmallH	correct	n/a	0.47656	no	n/a	n/a
1069.207031	n/a	273717	largeTSmallT	correct	congruent	0.51562	no	T	T
1069.722656	n/a	273849	responseSmallT	correct	n/a	0.51562	no	n/a	n/a
1070.796875	n/a	274124	largeHSmallH	correct	congruent	0.48828	no	H	H
1071.285156	n/a	274249	responseSmallH	correct	n/a	0.48828	no	n/a	n/a
1072.355469	n/a	274523	largeHSmallT	correct	incongruent	0.46484	no	H	T
1072.820312	n/a	274642	responseSmallT	correct	n/a	0.46484	no	n/a	n/a
1073.890625	n/a	274916	largeHSmallT	correct	incongruent	0.58203	no	H	T
1074.472656	n/a	275065	responseSmallT	correct	n/a	0.58203	no	n/a	n/a
1075.542969	n/a	275339	largeHSmallH	correct	congruent	0.49219	no	H	H
1076.035156	n/a	275465	responseSmallH	correct	n/a	0.49219	no	n/a	n/a
1077.101562	n/a	275738	largeHSmallH	correct	congruent	0.56641	no	H	H
1077.667969	n/a	275883	responseSmallH	correct	n/a	0.56641	no	n/a	n/a
1078.742188	n/a	276158	largeHSmallH	correct	congruent	0.55078	no	H	H
1079.292969	n/a	276299	responseSmallH	correct	n/a	0.55078	no	n/a	n/a
1080.355469	n/a	276571	largeHSmallT	correct	incongruent	0.61719	no	H	T
1080.972656	n/a	276729	responseSmallT	correct	n/a	0.61719	no	n/a	n/a
1082.046875	n/a	277004	largeHSmallT	correct	incongruent	0.65625	no	H	T
1082.703125	n/a	277172	responseSmallT	correct	n/a	0.65625	no	n/a	n/a
1083.78125	n/a	277448	largeTSmallH	correct	incongruent	1.3398	no	T	H
1085.121094	n/a	277791	responseSmallH	correct	n/a	1.3398	no	n/a	n/a
1086.195312	n/a	278066	largeTSmallT	correct	congruent	0.67578	no	T	T
1086.871094	n/a	278239	responseSmallT	correct	n/a	0.67578	no	n/a	n/a
1087.941406	n/a	278513	largeTSmallT	correct	congruent	0.70703	no	T	T
1088.648438	n/a	278694	responseSmallT	correct	n/a	0.70703	no	n/a	n/a
1089.714844	n/a	278967	largeHSmallT	correct	incongruent	0.75391	no	H	T
1090.46875	n/a	279160	responseSmallT	correct	n/a	0.75391	no	n/a	n/a
1091.542969	n/a	279435	largeTSmallH	correct	incongruent	0.50781	no	T	H
1092.050781	n/a	279565	responseSmallH	correct	n/a	0.50781	no	n/a	n/a
1093.128906	n/a	279841	largeHSmallT	correct	incongruent	0.5	no	H	T
1093.628906	n/a	279969	responseSmallT	correct	n/a	0.5	no	n/a	n/a
1094.703125	n/a	280244	largeTSmallT	correct	congruent	0.62891	no	T	T
1095.332031	n/a	280405	responseSmallT	correct	n/a	0.62891	no	n/a	n/a
1096.394531	n/a	280677	largeTSmallT	correct	congruent	0.70703	no	T	T
1097.101562	n/a	280858	responseSmallT	correct	n/a	0.70703	no	n/a	n/a
1098.167969	n/a	281131	largeHSmallH	correct	congruent	0.66016	no	H	H
1098.828125	n/a	281300	responseSmallH	correct	n/a	0.66016	no	n/a	n/a
1099.902344	n/a	281575	largeTSmallH	correct	incongruent	1.1094	no	T	H
1101.011719	n/a	281859	responseSmallH	correct	n/a	1.1094	no	n/a	n/a
1102.074219	n/a	282131	largeTSmallH	correct	incongruent	0.59375	no	T	H
1102.667969	n/a	282283	responseSmallH	correct	n/a	0.59375	no	n/a	n/a
1103.742188	n/a	282558	largeHSmallT	correct	incongruent	0.43359	no	H	T
1104.175781	n/a	282669	responseSmallT	correct	n/a	0.43359	no	n/a	n/a
1105.246094	n/a	282943	largeTSmallT	correct	congruent	0.57812	no	T	T
1105.824219	n/a	283091	responseSmallT	correct	n/a	0.57812	no	n/a	n/a
1106.902344	n/a	283367	largeTSmallH	correct	incongruent	0.51562	no	T	H
1107.417969	n/a	283499	responseSmallH	correct	n/a	0.51562	no	n/a	n/a
1108.488281	n/a	283773	largeTSmallT	correct	congruent	0.625	no	T	T
1109.113281	n/a	283933	responseSmallT	correct	n/a	0.625	no	n/a	n/a
1110.179688	n/a	284206	largeHSmallH	correct	congruent	0.60938	no	H	H
1110.789062	n/a	284362	responseSmallH	correct	n/a	0.60938	no	n/a	n/a
1111.847656	n/a	284633	largeTSmallH	correct	incongruent	0.60156	no	T	H
1112.449219	n/a	284787	responseSmallH	correct	n/a	0.60156	no	n/a	n/a
1113.527344	n/a	285063	largeTSmallH	correct	incongruent	0.56641	no	T	H
1114.09375	n/a	285208	responseSmallH	correct	n/a	0.56641	no	n/a	n/a
1115.167969	n/a	285483	largeTSmallT	correct	congruent	0.66406	no	T	T
1115.832031	n/a	285653	responseSmallT	correct	n/a	0.66406	no	n/a	n/a
1116.914062	n/a	285930	largeTSmallT	correct	congruent	0.56641	no	T	T
1117.480469	n/a	286075	responseSmallT	correct	n/a	0.56641	no	n/a	n/a
1118.542969	n/a	286347	largeTSmallT	correct	congruent	0.5625	no	T	T
1119.105469	n/a	286491	responseSmallT	correct	n/a	0.5625	no	n/a	n/a
1120.167969	n/a	286763	largeHSmallT	correct	incongruent	0.84766	no	H	T
1121.015625	n/a	286980	responseSmallT	correct	n/a	0.84766	no	n/a	n/a
1122.085938	n/a	287254	largeTSmallH	correct	incongruent	0.55469	no	T	H
1122.640625	n/a	287396	responseSmallH	correct	n/a	0.55469	no	n/a	n/a
1123.714844	n/a	287671	largeTSmallH	correct	incongruent	0.625	no	T	H
1124.339844	n/a	287831	responseSmallH	correct	n/a	0.625	no	n/a	n/a
1125.40625	n/a	288104	largeHSmallH	correct	congruent	0.50781	no	H	H
1125.914062	n/a	288234	responseSmallH	correct	n/a	0.50781	no	n/a	n/a
1126.992188	n/a	288510	largeTSmallT	correct	congruent	0.59766	no	T	T
1127.589844	n/a	288663	responseSmallT	correct	n/a	0.59766	no	n/a	n/a
1128.660156	n/a	288937	largeTSmallH	correct	incongruent	0.51953	no	T	H
1129.179688	n/a	289070	responseSmallH	correct	n/a	0.51953	no	n/a	n/a
1130.246094	n/a	289343	largeHSmallH	correct	congruent	0.59766	no	H	H
1130.84375	n/a	289496	responseSmallH	correct	n/a	0.59766	no	n/a	n/a
1131.914062	n/a	289770	largeHSmallT	correct	incongruent	0.71875	no	H	T
1132.632812	n/a	289954	responseSmallT	correct	n/a	0.71875	no	n/a	n/a
1133.699219	n/a	290227	largeTSmallT	error	congruent	0.42188	no	T	T
1134.121094	n/a	290335	responseSmallH	error	n/a	0.42188	no	n/a	n/a
1135.195312	n/a	290610	largeHSmallH	correct	congruent	0.92578	no	H	H
1136.121094	n/a	290847	responseSmallH	correct	n/a	0.92578	no	n/a	n/a
1137.195312	n/a	291122	largeTSmallH	correct	incongruent	0.82422	no	T	H
1138.019531	n/a	291333	responseSmallH	correct	n/a	0.82422	no	n/a	n/a
1139.101562	n/a	291610	largeHSmallH	correct	congruent	0.58594	no	H	H
1139.6875	n/a	291760	responseSmallH	correct	n/a	0.58594	no	n/a	n/a
1140.765625	n/a	292036	largeTSmallH	correct	incongruent	0.66797	no	T	H
1141.433594	n/a	292207	responseSmallH	correct	n/a	0.66797	no	n/a	n/a
1142.515625	n/a	292484	largeTSmallH	correct	incongruent	0.97656	no	T	H
1143.492188	n/a	292734	responseSmallH	correct	n/a	0.97656	no	n/a	n/a
1144.566406	n/a	293009	largeTSmallT	correct	congruent	0.58984	no	T	T
1145.15625	n/a	293160	responseSmallT	correct	n/a	0.58984	no	n/a	n/a
1146.21875	n/a	293432	largeTSmallH	correct	incongruent	0.56641	no	T	H
1146.785156	n/a	293577	responseSmallH	correct	n/a	0.56641	no	n/a	n/a
1147.859375	n/a	293852	largeHSmallH	correct	congruent	0.56641	no	H	H
1148.425781	n/a	293997	responseSmallH	correct	n/a	0.56641	no	n/a	n/a
1149.5	n/a	294272	largeHSmallT	correct	incongruent	0.52734	no	H	T
1150.027344	n/a	294407	responseSmallT	correct	n/a	0.52734	no	n/a	n/a
1151.101562	n/a	294682	largeHSmallH	correct	congruent	0.58203	no	H	H
1151.683594	n/a	294831	responseSmallH	correct	n/a	0.58203	no	n/a	n/a
1152.753906	n/a	295105	largeTSmallH	error	incongruent	0.53516	no	T	H
1153.289062	n/a	295242	responseSmallT	error	n/a	0.53516	no	n/a	n/a
1154.367188	n/a	295518	largeHSmallT	correct	incongruent	0.85547	no	H	T
1155.222656	n/a	295737	responseSmallT	correct	n/a	0.85547	no	n/a	n/a
1156.300781	n/a	296013	largeHSmallH	correct	congruent	0.49609	no	H	H
1156.796875	n/a	296140	responseSmallH	correct	n/a	0.49609	no	n/a	n/a
1157.859375	n/a	296412	largeHSmallH	correct	congruent	0.46484	no	H	H
1158.324219	n/a	296531	responseSmallH	correct	n/a	0.46484	no	n/a	n/a
1159.394531	n/a	296805	largeHSmallH	correct	congruent	0.50781	no	H	H
1159.902344	n/a	296935	responseSmallH	correct	n/a	0.50781	no	n/a	n/a
1160.980469	n/a	297211	largeTSmallH	correct	incongruent	0.48828	no	T	H
1161.46875	n/a	297336	responseSmallH	correct	n/a	0.48828	no	n/a	n/a
1162.539062	n/a	297610	largeHSmallH	correct	congruent	4.7266	yes	H	H
1167.265625	n/a	298820	responseSmallH	correct	n/a	4.7266	yes	n/a	n/a
1168.328125	n/a	299092	largeHSmallT	correct	incongruent	0.68359	no	H	T
1169.011719	n/a	299267	responseSmallT	correct	n/a	0.68359	no	n/a	n/a
1170.074219	n/a	299539	largeHSmallH	correct	congruent	0.60156	no	H	H
1170.675781	n/a	299693	responseSmallH	correct	n/a	0.60156	no	n/a	n/a
1171.738281	n/a	299965	largeTSmallT	correct	congruent	0.55469	no	T	T
1172.292969	n/a	300107	responseSmallT	correct	n/a	0.55469	no	n/a	n/a
1173.367188	n/a	300382	largeHSmallT	correct	incongruent	0.67188	no	H	T
1174.039062	n/a	300554	responseSmallT	correct	n/a	0.67188	no	n/a	n/a
1175.113281	n/a	300829	largeHSmallT	correct	incongruent	0.55469	no	H	T
1175.667969	n/a	300971	responseSmallT	correct	n/a	0.55469	no	n/a	n/a
1176.738281	n/a	301245	largeTSmallT	correct	congruent	0.47266	no	T	T
1177.210938	n/a	301366	responseSmallT	correct	n/a	0.47266	no	n/a	n/a
1178.285156	n/a	301641	largeTSmallH	correct	incongruent	0.69141	no	T	H
1178.976562	n/a	301818	responseSmallH	correct	n/a	0.69141	no	n/a	n/a
1180.046875	n/a	302092	largeTSmallH	correct	incongruent	0.62109	no	T	H
1180.667969	n/a	302251	responseSmallH	correct	n/a	0.62109	no	n/a	n/a
1181.738281	n/a	302525	largeTSmallT	correct	congruent	0.41797	no	T	T
1182.15625	n/a	302632	responseSmallT	correct	n/a	0.41797	no	n/a	n/a
1183.21875	n/a	302904	largeHSmallH	correct	congruent	0.5625	no	H	H
1183.78125	n/a	303048	responseSmallH	correct	n/a	0.5625	no	n/a	n/a
1184.847656	n/a	303321	largeHSmallH	correct	congruent	0.54297	no	H	H
1185.390625	n/a	303460	responseSmallH	correct	n/a	0.54297	no	n/a	n/a
1186.460938	n/a	303734	largeHSmallT	correct	incongruent	0.48828	no	H	T
1186.949219	n/a	303859	responseSmallT	correct	n/a	0.48828	no	n/a	n/a
1188.019531	n/a	304133	largeTSmallT	correct	congruent	0.66016	no	T	T
1188.679688	n/a	304302	responseSmallT	correct	n/a	0.66016	no	n/a	n/a
1189.753906	n/a	304577	largeTSmallH	correct	incongruent	0.52734	no	T	H
1190.28125	n/a	304712	responseSmallH	correct	n/a	0.52734	no	n/a	n/a
1191.351562	n/a	304986	largeHSmallH	correct	congruent	0.58203	no	H	H
1191.933594	n/a	305135	responseSmallH	correct	n/a	0.58203	no	n/a	n/a
1193.003906	n/a	305409	largeHSmallH	correct	congruent	0.51953	no	H	H
1193.523438	n/a	305542	responseSmallH	correct	n/a	0.51953	no	n/a	n/a
1194.59375	n/a	305816	largeTSmallH	correct	incongruent	0.50781	no	T	H
1195.101562	n/a	305946	responseSmallH	correct	n/a	0.50781	no	n/a	n/a
1196.179688	n/a	306222	largeHSmallT	correct	incongruent	0.5625	no	H	T
1196.742188	n/a	306366	responseSmallT	correct	n/a	0.5625	no	n/a	n/a
1197.804688	n/a	306638	largeTSmallT	correct	congruent	0.60547	no	T	T
1198.410156	n/a	306793	responseSmallT	correct	n/a	0.60547	no	n/a	n/a
1199.484375	n/a	307068	largeTSmallT	correct	congruent	0.63281	no	T	T
1200.117188	n/a	307230	responseSmallT	correct	n/a	0.63281	no	n/a	n/a
1201.179688	n/a	307502	largeTSmallH	correct	incongruent	0.50391	no	T	H
1201.683594	n/a	307631	responseSmallH	correct	n/a	0.50391	no	n/a	n/a
1202.753906	n/a	307905	largeTSmallH	correct	incongruent	0.55078	no	T	H
1203.304688	n/a	308046	responseSmallH	correct	n/a	0.55078	no	n/a	n/a
1204.378906	n/a	308321	largeTSmallH	correct	incongruent	0.64062	no	T	H
1205.019531	n/a	308485	responseSmallH	correct	n/a	0.64062	no	n/a	n/a
1206.097656	n/a	308761	largeHSmallH	correct	congruent	0.55078	no	H	H
1206.648438	n/a	308902	responseSmallH	correct	n/a	0.55078	no	n/a	n/a
1207.726562	n/a	309178	largeTSmallH	correct	incongruent	0.51172	no	T	H
1208.238281	n/a	309309	responseSmallH	correct	n/a	0.51172	no	n/a	n/a
1209.3125	n/a	309584	largeHSmallT	correct	incongruent	0.57812	no	H	T
1209.890625	n/a	309732	responseSmallT	correct	n/a	0.57812	no	n/a	n/a
1210.964844	n/a	310007	largeHSmallT	correct	incongruent	0.66406	no	H	T
1211.628906	n/a	310177	responseSmallT	correct	n/a	0.66406	no	n/a	n/a
1212.699219	n/a	310451	largeHSmallH	correct	congruent	0.51953	no	H	H
1213.21875	n/a	310584	responseSmallH	correct	n/a	0.51953	no	n/a	n/a
1214.285156	n/a	310857	largeTSmallT	correct	congruent	0.51953	no	T	T
1214.804688	n/a	310990	responseSmallT	correct	n/a	0.51953	no	n/a	n/a
1215.871094	n/a	311263	largeHSmallT	error	incongruent	0.43359	no	H	T
1216.304688	n/a	311374	responseSmallH	error	n/a	0.43359	no	n/a	n/a
1217.378906	n/a	311649	largeHSmallT	correct	incongruent	0.92578	no	H	T
1218.304688	n/a	311886	responseSmallT	correct	n/a	0.92578	no	n/a	n/a
1219.363281	n/a	312157	largeTSmallH	correct	incongruent	0.53125	no	T	H
1219.894531	n/a	312293	responseSmallH	correct	n/a	0.53125	no	n/a	n/a
1220.964844	n/a	312567	largeTSmallT	correct	congruent	0.51172	no	T	T
1221.476562	n/a	312698	responseSmallT	correct	n/a	0.51172	no	n/a	n/a
1222.550781	n/a	312973	largeTSmallT	correct	congruent	0.55078	no	T	T
1223.101562	n/a	313114	responseSmallT	correct	n/a	0.55078	no	n/a	n/a
1224.179688	n/a	313390	largeTSmallH	correct	incongruent	0.50391	no	T	H
1224.683594	n/a	313519	responseSmallH	correct	n/a	0.50391	no	n/a	n/a
1225.75	n/a	313792	largeHSmallH	correct	congruent	0.84766	no	H	H
1226.597656	n/a	314009	responseSmallH	correct	n/a	0.84766	no	n/a	n/a
1227.671875	n/a	314284	largeHSmallT	correct	incongruent	0.44531	no	H	T
1228.117188	n/a	314398	responseSmallT	correct	n/a	0.44531	no	n/a	n/a
1229.179688	n/a	314670	largeTSmallT	error	congruent	0.45703	no	T	T
1229.636719	n/a	314787	responseSmallH	error	n/a	0.45703	no	n/a	n/a
1230.710938	n/a	315062	largeHSmallT	correct	incongruent	0.69141	no	H	T
1231.402344	n/a	315239	responseSmallT	correct	n/a	0.69141	no	n/a	n/a
1232.472656	n/a	315513	largeTSmallH	correct	incongruent	0.64453	no	T	H
1233.117188	n/a	315678	responseSmallH	correct	n/a	0.64453	no	n/a	n/a
1234.203125	n/a	315956	largeTSmallT	correct	congruent	0.48047	no	T	T
1234.683594	n/a	316079	responseSmallT	correct	n/a	0.48047	no	n/a	n/a
1235.75	n/a	316352	largeHSmallT	correct	incongruent	0.57812	no	H	T
1236.328125	n/a	316500	responseSmallT	correct	n/a	0.57812	no	n/a	n/a
1237.40625	n/a	316776	largeHSmallT	correct	incongruent	0.53516	no	H	T
1237.941406	n/a	316913	responseSmallT	correct	n/a	0.53516	no	n/a	n/a
1239.019531	n/a	317189	largeHSmallT	correct	incongruent	0.42969	no	H	T
1239.449219	n/a	317299	responseSmallT	correct	n/a	0.42969	no	n/a	n/a
1240.523438	n/a	317574	largeTSmallH	correct	incongruent	0.54688	no	T	H
1241.070312	n/a	317714	responseSmallH	correct	n/a	0.54688	no	n/a	n/a
1242.152344	n/a	317991	largeHSmallT	correct	incongruent	0.87891	no	H	T
1243.03125	n/a	318216	responseSmallT	correct	n/a	0.87891	no	n/a	n/a
1244.097656	n/a	318489	largeHSmallT	correct	incongruent	0.56641	no	H	T
1244.664062	n/a	318634	responseSmallT	correct	n/a	0.56641	no	n/a	n/a
1245.738281	n/a	318909	largeHSmallH	correct	congruent	0.62109	no	H	H
1246.359375	n/a	319068	responseSmallH	correct	n/a	0.62109	no	n/a	n/a
1247.429688	n/a	319342	largeHSmallT	correct	incongruent	0.60938	no	H	T
1248.039062	n/a	319498	responseSmallT	correct	n/a	0.60938	no	n/a	n/a
1249.109375	n/a	319772	largeTSmallT	correct	congruent	0.58594	no	T	T
1249.695312	n/a	319922	responseSmallT	correct	n/a	0.58594	no	n/a	n/a
1250.777344	n/a	320199	largeHSmallT	correct	incongruent	0.59375	no	H	T
1251.371094	n/a	320351	responseSmallT	correct	n/a	0.59375	no	n/a	n/a
1252.445312	n/a	320626	largeHSmallT	correct	incongruent	0.59766	no	H	T
1253.042969	n/a	320779	responseSmallT	correct	n/a	0.59766	no	n/a	n/a
1254.109375	n/a	321052	largeHSmallT	correct	incongruent	0.52344	no	H	T
1254.632812	n/a	321186	responseSmallT	correct	n/a	0.52344	no	n/a	n/a
1255.699219	n/a	321459	largeTSmallH	correct	incongruent	0.53125	no	T	H
1256.230469	n/a	321595	responseSmallH	correct	n/a	0.53125	no	n/a	n/a
1257.3125	n/a	321872	largeHSmallH	correct	congruent	0.80078	no	H	H
1258.113281	n/a	322077	responseSmallH	correct	n/a	0.80078	no	n/a	n/a
1259.175781	n/a	322349	largeTSmallT	correct	congruent	0.94922	no	T	T
1260.125	n/a	322592	responseSmallT	correct	n/a	0.94922	no	n/a	n/a
1261.191406	n/a	322865	largeHSmallT	correct	incongruent	0.83984	no	H	T
1262.03125	n/a	323080	responseSmallT	correct	n/a	0.83984	no	n/a	n/a
1263.097656	n/a	323353	largeTSmallH	correct	incongruent	0.44922	no	T	H
1263.546875	n/a	323468	responseSmallH	correct	n/a	0.44922	no	n/a	n/a
1264.617188	n/a	323742	largeHSmallT	correct	incongruent	0.57031	no	H	T
1265.1875	n/a	323888	responseSmallT	correct	n/a	0.57031	no	n/a	n/a
1266.242188	n/a	324158	largeTSmallH	correct	incongruent	0.96875	no	T	H
1267.210938	n/a	324406	responseSmallH	correct	n/a	0.96875	no	n/a	n/a
1268.285156	n/a	324681	largeHSmallT	correct	incongruent	0.48438	no	H	T
1268.769531	n/a	324805	responseSmallT	correct	n/a	0.48438	no	n/a	n/a
1269.84375	n/a	325080	largeHSmallT	error	incongruent	0.46094	no	H	T
1270.304688	n/a	325198	responseSmallH	error	n/a	0.46094	no	n/a	n/a
1271.375	n/a	325472	largeTSmallT	correct	congruent	0.76172	no	T	T
1272.136719	n/a	325667	responseSmallT	correct	n/a	0.76172	no	n/a	n/a
1273.203125	n/a	325940	largeHSmallH	correct	congruent	0.60547	no	H	H
1273.808594	n/a	326095	responseSmallH	correct	n/a	0.60547	no	n/a	n/a
