onset	duration	sample	value	response_type	congruence	response_time	response_out_of_range	largeletter	smallletter
38.2109375	n/a	9782	largeHSmallT	correct	incongruent	2.2422	yes	H	T
40.453125	n/a	10356	responseLargeH	correct	n/a	2.2422	yes	n/a	n/a
41.52734375	n/a	10631	largeHSmallT	correct	incongruent	0.82422	no	H	T
42.3515625	n/a	10842	responseLargeH	correct	n/a	0.82422	no	n/a	n/a
43.40625	n/a	11112	largeTSmallT	correct	congruent	0.72266	no	T	T
44.12890625	n/a	11297	responseLargeT	correct	n/a	0.72266	no	n/a	n/a
45.20703125	n/a	11573	largeTSmallT	correct	congruent	0.50391	no	T	T
45.7109375	n/a	11702	responseLargeT	correct	n/a	0.50391	no	n/a	n/a
46.78125	n/a	11976	largeHSmallT	error	incongruent	0.47266	no	H	T
47.25390625	n/a	12097	responseLargeT	error	n/a	0.47266	no	n/a	n/a
48.328125	n/a	12372	largeHSmallH	correct	congruent	0.60547	no	H	H
48.93359375	n/a	12527	responseLargeH	correct	n/a	0.60547	no	n/a	n/a
49.9921875	n/a	12798	largeTSmallH	correct	incongruent	0.61328	no	T	H
50.60546875	n/a	12955	responseLargeT	correct	n/a	0.61328	no	n/a	n/a
51.671875	n/a	13228	largeHSmallT	correct	incongruent	0.56641	no	H	T
52.23828125	n/a	13373	responseLargeH	correct	n/a	0.56641	no	n/a	n/a
53.30078125	n/a	13645	largeHSmallH	correct	congruent	0.51953	no	H	H
53.8203125	n/a	13778	responseLargeH	correct	n/a	0.51953	no	n/a	n/a
54.88671875	n/a	14051	largeHSmallH	correct	congruent	0.44531	no	H	H
55.33203125	n/a	14165	responseLargeH	correct	n/a	0.44531	no	n/a	n/a
56.40625	n/a	14440	largeTSmallH	correct	incongruent	0.48438	no	T	H
56.890625	n/a	14564	responseLargeT	correct	n/a	0.48438	no	n/a	n/a
57.953125	n/a	14836	largeHSmallH	correct	congruent	0.36719	no	H	H
58.3203125	n/a	14930	responseLargeH	correct	n/a	0.36719	no	n/a	n/a
59.37890625	n/a	15201	largeTSmallH	correct	incongruent	0.35938	no	T	H
59.73828125	n/a	15293	responseLargeT	correct	n/a	0.35938	no	n/a	n/a
60.80859375	n/a	15567	largeTSmallH	correct	incongruent	0.44922	no	T	H
61.2578125	n/a	15682	responseLargeT	correct	n/a	0.44922	no	n/a	n/a
62.3125	n/a	15952	largeTSmallH	correct	incongruent	0.42188	no	T	H
62.734375	n/a	16060	responseLargeT	correct	n/a	0.42188	no	n/a	n/a
63.8046875	n/a	16334	largeHSmallT	correct	incongruent	0.4375	no	H	T
64.2421875	n/a	16446	responseLargeH	correct	n/a	0.4375	no	n/a	n/a
65.3125	n/a	16720	largeHSmallH	correct	congruent	0.35156	no	H	H
65.6640625	n/a	16810	responseLargeH	correct	n/a	0.35156	no	n/a	n/a
66.73828125	n/a	17085	largeHSmallT	correct	incongruent	0.44141	no	H	T
67.1796875	n/a	17198	responseLargeH	correct	n/a	0.44141	no	n/a	n/a
68.24609375	n/a	17471	largeTSmallH	correct	incongruent	0.56641	no	T	H
68.8125	n/a	17616	responseLargeT	correct	n/a	0.56641	no	n/a	n/a
69.88671875	n/a	17891	largeHSmallT	correct	incongruent	0.36328	no	H	T
70.25	n/a	17984	responseLargeH	correct	n/a	0.36328	no	n/a	n/a
71.328125	n/a	18260	largeTSmallH	correct	incongruent	0.53125	no	T	H
71.859375	n/a	18396	responseLargeT	correct	n/a	0.53125	no	n/a	n/a
72.92578125	n/a	18669	largeHSmallH	correct	congruent	0.29688	no	H	H
73.22265625	n/a	18745	responseLargeH	correct	n/a	0.29688	no	n/a	n/a
74.28515625	n/a	19017	largeTSmallH	correct	incongruent	0.52344	no	T	H
74.80859375	n/a	19151	responseLargeT	correct	n/a	0.52344	no	n/a	n/a
75.87109375	n/a	19423	largeTSmallT	correct	congruent	0.52734	no	T	T
76.3984375	n/a	19558	responseLargeT	correct	n/a	0.52734	no	n/a	n/a
77.47265625	n/a	19833	largeTSmallH	error	incongruent	0.46484	no	T	H
77.9375	n/a	19952	responseLargeH	error	n/a	0.46484	no	n/a	n/a
79.0078125	n/a	20226	largeHSmallT	correct	incongruent	0.62891	no	H	T
79.63671875	n/a	20387	responseLargeH	correct	n/a	0.62891	no	n/a	n/a
80.69921875	n/a	20659	largeHSmallT	correct	incongruent	0.51953	no	H	T
81.21875	n/a	20792	responseLargeH	correct	n/a	0.51953	no	n/a	n/a
82.28515625	n/a	21065	largeTSmallT	correct	congruent	0.41406	no	T	T
82.69921875	n/a	21171	responseLargeT	correct	n/a	0.41406	no	n/a	n/a
83.765625	n/a	21444	largeHSmallH	correct	congruent	0.37891	no	H	H
84.14453125	n/a	21541	responseLargeH	correct	n/a	0.37891	no	n/a	n/a
85.21875	n/a	21816	largeTSmallT	correct	congruent	0.45703	no	T	T
85.67578125	n/a	21933	responseLargeT	correct	n/a	0.45703	no	n/a	n/a
86.75390625	n/a	22209	largeTSmallT	correct	congruent	0.41797	no	T	T
87.171875	n/a	22316	responseLargeT	correct	n/a	0.41797	no	n/a	n/a
88.24609375	n/a	22591	largeTSmallT	correct	congruent	0.53906	no	T	T
88.78515625	n/a	22729	responseLargeT	correct	n/a	0.53906	no	n/a	n/a
89.84765625	n/a	23001	largeHSmallH	correct	congruent	0.41016	no	H	H
90.2578125	n/a	23106	responseLargeH	correct	n/a	0.41016	no	n/a	n/a
91.32421875	n/a	23379	largeHSmallH	correct	congruent	0.47266	no	H	H
91.796875	n/a	23500	responseLargeH	correct	n/a	0.47266	no	n/a	n/a
92.859375	n/a	23772	largeTSmallH	correct	incongruent	0.72266	no	T	H
93.58203125	n/a	23957	responseLargeT	correct	n/a	0.72266	no	n/a	n/a
94.64453125	n/a	24229	largeHSmallH	correct	congruent	0.41016	no	H	H
95.0546875	n/a	24334	responseLargeH	correct	n/a	0.41016	no	n/a	n/a
96.125	n/a	24608	largeHSmallT	correct	incongruent	0.51172	no	H	T
96.63671875	n/a	24739	responseLargeH	correct	n/a	0.51172	no	n/a	n/a
97.69921875	n/a	25011	largeTSmallT	correct	congruent	0.39453	no	T	T
98.09375	n/a	25112	responseLargeT	correct	n/a	0.39453	no	n/a	n/a
99.1640625	n/a	25386	largeHSmallT	correct	incongruent	0.44141	no	H	T
99.60546875	n/a	25499	responseLargeH	correct	n/a	0.44141	no	n/a	n/a
100.6875	n/a	25776	largeHSmallT	correct	incongruent	0.47656	no	H	T
101.1640625	n/a	25898	responseLargeH	correct	n/a	0.47656	no	n/a	n/a
102.21875	n/a	26168	largeTSmallT	correct	congruent	0.47266	no	T	T
102.6914062	n/a	26289	responseLargeT	correct	n/a	0.47266	no	n/a	n/a
103.7539062	n/a	26561	largeTSmallT	correct	congruent	0.47656	no	T	T
104.2304688	n/a	26683	responseLargeT	correct	n/a	0.47656	no	n/a	n/a
105.3007812	n/a	26957	largeHSmallT	correct	incongruent	0.53906	no	H	T
105.8398438	n/a	27095	responseLargeH	correct	n/a	0.53906	no	n/a	n/a
106.8984375	n/a	27366	largeHSmallT	correct	incongruent	0.37891	no	H	T
107.2773438	n/a	27463	responseLargeH	correct	n/a	0.37891	no	n/a	n/a
108.3398438	n/a	27735	largeTSmallT	correct	congruent	0.43359	no	T	T
108.7734375	n/a	27846	responseLargeT	correct	n/a	0.43359	no	n/a	n/a
109.8320312	n/a	28117	largeHSmallH	correct	congruent	0.42969	no	H	H
110.2617188	n/a	28227	responseLargeH	correct	n/a	0.42969	no	n/a	n/a
111.3398438	n/a	28503	largeHSmallT	correct	incongruent	0.41016	no	H	T
111.75	n/a	28608	responseLargeH	correct	n/a	0.41016	no	n/a	n/a
112.8203125	n/a	28882	largeHSmallH	correct	congruent	0.40625	no	H	H
113.2265625	n/a	28986	responseLargeH	correct	n/a	0.40625	no	n/a	n/a
114.3007812	n/a	29261	largeHSmallH	correct	congruent	0.37891	no	H	H
114.6796875	n/a	29358	responseLargeH	correct	n/a	0.37891	no	n/a	n/a
115.7539062	n/a	29633	largeTSmallT	correct	congruent	0.48438	no	T	T
116.2382812	n/a	29757	responseLargeT	correct	n/a	0.48438	no	n/a	n/a
117.3125	n/a	30032	largeTSmallH	correct	incongruent	0.58203	no	T	H
117.8945312	n/a	30181	responseLargeT	correct	n/a	0.58203	no	n/a	n/a
118.9648438	n/a	30455	largeHSmallT	correct	incongruent	0.35547	no	H	T
119.3203125	n/a	30546	responseLargeH	correct	n/a	0.35547	no	n/a	n/a
120.3789062	n/a	30817	largeHSmallH	correct	congruent	0.41797	no	H	H
120.796875	n/a	30924	responseLargeH	correct	n/a	0.41797	no	n/a	n/a
121.859375	n/a	31196	largeTSmallH	correct	incongruent	0.46094	no	T	H
122.3203125	n/a	31314	responseLargeT	correct	n/a	0.46094	no	n/a	n/a
123.390625	n/a	31588	largeTSmallH	correct	incongruent	0.45703	no	T	H
123.8476562	n/a	31705	responseLargeT	correct	n/a	0.45703	no	n/a	n/a
124.9257812	n/a	31981	largeHSmallT	correct	incongruent	0.56641	no	H	T
125.4921875	n/a	32126	responseLargeH	correct	n/a	0.56641	no	n/a	n/a
126.5664062	n/a	32401	largeHSmallH	correct	congruent	0.47266	no	H	H
127.0390625	n/a	32522	responseLargeH	correct	n/a	0.47266	no	n/a	n/a
128.1132812	n/a	32797	largeHSmallH	correct	congruent	0.53906	no	H	H
128.6523438	n/a	32935	responseLargeH	correct	n/a	0.53906	no	n/a	n/a
129.7265625	n/a	33210	largeTSmallH	correct	incongruent	0.40625	no	T	H
130.1328125	n/a	33314	responseLargeT	correct	n/a	0.40625	no	n/a	n/a
131.1914062	n/a	33585	largeTSmallH	correct	incongruent	0.53516	no	T	H
131.7265625	n/a	33722	responseLargeT	correct	n/a	0.53516	no	n/a	n/a
132.8046875	n/a	33998	largeHSmallH	correct	congruent	0.375	no	H	H
133.1796875	n/a	34094	responseLargeH	correct	n/a	0.375	no	n/a	n/a
134.2578125	n/a	34370	largeTSmallH	correct	incongruent	0.49219	no	T	H
134.75	n/a	34496	responseLargeT	correct	n/a	0.49219	no	n/a	n/a
135.8203125	n/a	34770	largeHSmallT	correct	incongruent	0.39062	no	H	T
136.2109375	n/a	34870	responseLargeH	correct	n/a	0.39062	no	n/a	n/a
137.2734375	n/a	35142	largeTSmallH	correct	incongruent	0.60547	no	T	H
137.8789062	n/a	35297	responseLargeT	correct	n/a	0.60547	no	n/a	n/a
138.953125	n/a	35572	largeHSmallT	correct	incongruent	0.37891	no	H	T
139.3320312	n/a	35669	responseLargeH	correct	n/a	0.37891	no	n/a	n/a
140.390625	n/a	35940	largeTSmallH	correct	incongruent	0.39844	no	T	H
140.7890625	n/a	36042	responseLargeT	correct	n/a	0.39844	no	n/a	n/a
141.8710938	n/a	36319	largeHSmallT	correct	incongruent	0.37891	no	H	T
142.25	n/a	36416	responseLargeH	correct	n/a	0.37891	no	n/a	n/a
143.3125	n/a	36688	largeHSmallH	correct	congruent	0.42188	no	H	H
143.734375	n/a	36796	responseLargeH	correct	n/a	0.42188	no	n/a	n/a
144.7929688	n/a	37067	largeTSmallH	correct	incongruent	0.40234	no	T	H
145.1953125	n/a	37170	responseLargeT	correct	n/a	0.40234	no	n/a	n/a
146.2578125	n/a	37442	largeTSmallT	correct	congruent	0.39453	no	T	T
146.6523438	n/a	37543	responseLargeT	correct	n/a	0.39453	no	n/a	n/a
147.7109375	n/a	37814	largeHSmallH	correct	congruent	0.37109	no	H	H
148.0820312	n/a	37909	responseLargeH	correct	n/a	0.37109	no	n/a	n/a
149.1523438	n/a	38183	largeTSmallT	correct	congruent	0.46875	no	T	T
149.6210938	n/a	38303	responseLargeT	correct	n/a	0.46875	no	n/a	n/a
150.6992188	n/a	38579	largeTSmallT	correct	congruent	0.53125	no	T	T
151.2304688	n/a	38715	responseLargeT	correct	n/a	0.53125	no	n/a	n/a
152.296875	n/a	38988	largeTSmallT	correct	congruent	0.48438	no	T	T
152.78125	n/a	39112	responseLargeT	correct	n/a	0.48438	no	n/a	n/a
153.84375	n/a	39384	largeHSmallT	correct	incongruent	0.32812	no	H	T
154.171875	n/a	39468	responseLargeH	correct	n/a	0.32812	no	n/a	n/a
155.2304688	n/a	39739	largeTSmallT	correct	congruent	0.41797	no	T	T
155.6484375	n/a	39846	responseLargeT	correct	n/a	0.41797	no	n/a	n/a
156.7109375	n/a	40118	largeHSmallT	correct	incongruent	0.46094	no	H	T
157.171875	n/a	40236	responseLargeH	correct	n/a	0.46094	no	n/a	n/a
158.2460938	n/a	40511	largeHSmallH	error	congruent	0.375	no	H	H
158.6210938	n/a	40607	responseLargeT	error	n/a	0.375	no	n/a	n/a
159.6992188	n/a	40883	largeHSmallH	correct	congruent	0.41797	no	H	H
160.1171875	n/a	40990	responseLargeH	correct	n/a	0.41797	no	n/a	n/a
161.1914062	n/a	41265	largeTSmallT	correct	congruent	0.46875	no	T	T
161.6601562	n/a	41385	responseLargeT	correct	n/a	0.46875	no	n/a	n/a
162.7226562	n/a	41657	largeHSmallH	correct	congruent	0.35156	no	H	H
163.0742188	n/a	41747	responseLargeH	correct	n/a	0.35156	no	n/a	n/a
164.1367188	n/a	42019	largeHSmallH	correct	congruent	0.42578	no	H	H
164.5625	n/a	42128	responseLargeH	correct	n/a	0.42578	no	n/a	n/a
165.6171875	n/a	42398	largeTSmallH	correct	incongruent	0.43359	no	T	H
166.0507812	n/a	42509	responseLargeT	correct	n/a	0.43359	no	n/a	n/a
167.125	n/a	42784	largeTSmallT	correct	congruent	0.49219	no	T	T
167.6171875	n/a	42910	responseLargeT	correct	n/a	0.49219	no	n/a	n/a
168.6835938	n/a	43183	largeTSmallT	correct	congruent	0.50781	no	T	T
169.1914062	n/a	43313	responseLargeT	correct	n/a	0.50781	no	n/a	n/a
170.2578125	n/a	43586	largeTSmallH	error	incongruent	0.45703	no	T	H
170.7148438	n/a	43703	responseLargeH	error	n/a	0.45703	no	n/a	n/a
171.7773438	n/a	43975	largeTSmallH	correct	incongruent	0.75781	no	T	H
172.5351562	n/a	44169	responseLargeT	correct	n/a	0.75781	no	n/a	n/a
173.6054688	n/a	44443	largeHSmallH	correct	congruent	0.52344	no	H	H
174.1289062	n/a	44577	responseLargeH	correct	n/a	0.52344	no	n/a	n/a
175.203125	n/a	44852	largeHSmallT	correct	incongruent	0.49219	no	H	T
175.6953125	n/a	44978	responseLargeH	correct	n/a	0.49219	no	n/a	n/a
176.765625	n/a	45252	largeTSmallH	correct	incongruent	0.56641	no	T	H
177.3320312	n/a	45397	responseLargeT	correct	n/a	0.56641	no	n/a	n/a
178.4023438	n/a	45671	largeTSmallH	correct	incongruent	0.47266	no	T	H
178.875	n/a	45792	responseLargeT	correct	n/a	0.47266	no	n/a	n/a
179.9492188	n/a	46067	largeTSmallH	correct	incongruent	0.48047	no	T	H
180.4296875	n/a	46190	responseLargeT	correct	n/a	0.48047	no	n/a	n/a
181.4960938	n/a	46463	largeHSmallH	correct	congruent	0.5	no	H	H
181.9960938	n/a	46591	responseLargeH	correct	n/a	0.5	no	n/a	n/a
183.0585938	n/a	46863	largeTSmallT	correct	congruent	0.50781	no	T	T
183.5664062	n/a	46993	responseLargeT	correct	n/a	0.50781	no	n/a	n/a
184.6445312	n/a	47269	largeHSmallH	correct	congruent	0.55078	no	H	H
185.1953125	n/a	47410	responseLargeH	correct	n/a	0.55078	no	n/a	n/a
186.2578125	n/a	47682	largeTSmallH	correct	incongruent	0.50781	no	T	H
186.765625	n/a	47812	responseLargeT	correct	n/a	0.50781	no	n/a	n/a
187.8320312	n/a	48085	largeHSmallH	correct	congruent	0.50781	no	H	H
188.3398438	n/a	48215	responseLargeH	correct	n/a	0.50781	no	n/a	n/a
189.4179688	n/a	48491	largeTSmallT	correct	congruent	0.39062	no	T	T
189.8085938	n/a	48591	responseLargeT	correct	n/a	0.39062	no	n/a	n/a
190.8828125	n/a	48866	largeHSmallH	correct	congruent	0.4375	no	H	H
191.3203125	n/a	48978	responseLargeH	correct	n/a	0.4375	no	n/a	n/a
192.390625	n/a	49252	largeTSmallH	correct	incongruent	0.39844	no	T	H
192.7890625	n/a	49354	responseLargeT	correct	n/a	0.39844	no	n/a	n/a
193.8554688	n/a	49627	largeTSmallH	correct	incongruent	0.44922	no	T	H
194.3046875	n/a	49742	responseLargeT	correct	n/a	0.44922	no	n/a	n/a
195.3632812	n/a	50013	largeHSmallT	correct	incongruent	0.42578	no	H	T
195.7890625	n/a	50122	responseLargeH	correct	n/a	0.42578	no	n/a	n/a
196.8554688	n/a	50395	largeHSmallT	correct	incongruent	0.46484	no	H	T
197.3203125	n/a	50514	responseLargeH	correct	n/a	0.46484	no	n/a	n/a
198.375	n/a	50784	largeTSmallT	correct	congruent	0.4375	no	T	T
198.8125	n/a	50896	responseLargeT	correct	n/a	0.4375	no	n/a	n/a
199.8828125	n/a	51170	largeTSmallT	correct	congruent	0.47266	no	T	T
200.3554688	n/a	51291	responseLargeT	correct	n/a	0.47266	no	n/a	n/a
201.4296875	n/a	51566	largeHSmallT	correct	incongruent	0.51562	no	H	T
201.9453125	n/a	51698	responseLargeH	correct	n/a	0.51562	no	n/a	n/a
203.015625	n/a	51972	largeTSmallH	correct	incongruent	0.47656	no	T	H
203.4921875	n/a	52094	responseLargeT	correct	n/a	0.47656	no	n/a	n/a
204.5625	n/a	52368	largeTSmallT	correct	congruent	0.45703	no	T	T
205.0195312	n/a	52485	responseLargeT	correct	n/a	0.45703	no	n/a	n/a
206.0820312	n/a	52757	largeTSmallH	correct	incongruent	0.40234	no	T	H
206.484375	n/a	52860	responseLargeT	correct	n/a	0.40234	no	n/a	n/a
207.5507812	n/a	53133	largeHSmallH	correct	congruent	0.46094	no	H	H
208.0117188	n/a	53251	responseLargeH	correct	n/a	0.46094	no	n/a	n/a
209.0820312	n/a	53525	largeHSmallT	correct	incongruent	0.42188	no	H	T
209.5039062	n/a	53633	responseLargeH	correct	n/a	0.42188	no	n/a	n/a
210.5625	n/a	53904	largeTSmallT	correct	congruent	1.0117	no	T	T
211.5742188	n/a	54163	responseLargeT	correct	n/a	1.0117	no	n/a	n/a
212.6445312	n/a	54437	largeTSmallH	correct	incongruent	0.75	no	T	H
213.3945312	n/a	54629	responseLargeT	correct	n/a	0.75	no	n/a	n/a
214.46875	n/a	54904	largeHSmallH	correct	congruent	0.46484	no	H	H
214.9335938	n/a	55023	responseLargeH	correct	n/a	0.46484	no	n/a	n/a
215.9882812	n/a	55293	largeTSmallH	correct	incongruent	0.53516	no	T	H
216.5234375	n/a	55430	responseLargeT	correct	n/a	0.53516	no	n/a	n/a
217.5898438	n/a	55703	largeTSmallH	correct	incongruent	0.37109	no	T	H
217.9609375	n/a	55798	responseLargeT	correct	n/a	0.37109	no	n/a	n/a
219.03125	n/a	56072	largeHSmallT	correct	incongruent	0.40625	no	H	T
219.4375	n/a	56176	responseLargeH	correct	n/a	0.40625	no	n/a	n/a
220.4960938	n/a	56447	largeHSmallT	correct	incongruent	0.39453	no	H	T
220.890625	n/a	56548	responseLargeH	correct	n/a	0.39453	no	n/a	n/a
221.9492188	n/a	56819	largeHSmallT	correct	incongruent	0.39062	no	H	T
222.3398438	n/a	56919	responseLargeH	correct	n/a	0.39062	no	n/a	n/a
223.4023438	n/a	57191	largeTSmallH	correct	incongruent	0.49219	no	T	H
223.8945312	n/a	57317	responseLargeT	correct	n/a	0.49219	no	n/a	n/a
224.9648438	n/a	57591	largeHSmallH	correct	congruent	0.35547	no	H	H
225.3203125	n/a	57682	responseLargeH	correct	n/a	0.35547	no	n/a	n/a
226.390625	n/a	57956	largeTSmallT	correct	congruent	0.34766	no	T	T
226.7382812	n/a	58045	responseLargeT	correct	n/a	0.34766	no	n/a	n/a
227.8046875	n/a	58318	largeTSmallH	correct	incongruent	0.43359	no	T	H
228.2382812	n/a	58429	responseLargeT	correct	n/a	0.43359	no	n/a	n/a
229.296875	n/a	58700	largeTSmallH	correct	incongruent	0.41797	no	T	H
229.7148438	n/a	58807	responseLargeT	correct	n/a	0.41797	no	n/a	n/a
230.7890625	n/a	59082	largeTSmallT	correct	congruent	0.33594	no	T	T
231.125	n/a	59168	responseLargeT	correct	n/a	0.33594	no	n/a	n/a
232.1914062	n/a	59441	largeHSmallT	correct	incongruent	0.41797	no	H	T
232.609375	n/a	59548	responseLargeH	correct	n/a	0.41797	no	n/a	n/a
233.6679688	n/a	59819	largeHSmallH	correct	congruent	0.375	no	H	H
234.0429688	n/a	59915	responseLargeH	correct	n/a	0.375	no	n/a	n/a
235.109375	n/a	60188	largeHSmallT	correct	incongruent	0.42188	no	H	T
235.53125	n/a	60296	responseLargeH	correct	n/a	0.42188	no	n/a	n/a
236.6015625	n/a	60570	largeTSmallT	correct	congruent	0.39453	no	T	T
236.9960938	n/a	60671	responseLargeT	correct	n/a	0.39453	no	n/a	n/a
238.0703125	n/a	60946	largeHSmallT	correct	incongruent	0.37891	no	H	T
238.4492188	n/a	61043	responseLargeH	correct	n/a	0.37891	no	n/a	n/a
239.5234375	n/a	61318	largeTSmallT	correct	congruent	0.45312	no	T	T
239.9765625	n/a	61434	responseLargeT	correct	n/a	0.45312	no	n/a	n/a
241.0429688	n/a	61707	largeTSmallT	correct	congruent	0.42578	no	T	T
241.46875	n/a	61816	responseLargeT	correct	n/a	0.42578	no	n/a	n/a
242.5351562	n/a	62089	largeTSmallT	correct	congruent	0.39844	no	T	T
242.9335938	n/a	62191	responseLargeT	correct	n/a	0.39844	no	n/a	n/a
243.9882812	n/a	62461	largeTSmallT	correct	congruent	0.41406	no	T	T
244.4023438	n/a	62567	responseLargeT	correct	n/a	0.41406	no	n/a	n/a
245.46875	n/a	62840	largeHSmallT	correct	incongruent	0.45703	no	H	T
245.9257812	n/a	62957	responseLargeH	correct	n/a	0.45703	no	n/a	n/a
246.9882812	n/a	63229	largeTSmallT	correct	congruent	0.41016	no	T	T
247.3984375	n/a	63334	responseLargeT	correct	n/a	0.41016	no	n/a	n/a
248.46875	n/a	63608	largeTSmallH	correct	incongruent	0.47266	no	T	H
248.9414062	n/a	63729	responseLargeT	correct	n/a	0.47266	no	n/a	n/a
250.0039062	n/a	64001	largeTSmallT	correct	congruent	0.44531	no	T	T
250.4492188	n/a	64115	responseLargeT	correct	n/a	0.44531	no	n/a	n/a
251.5234375	n/a	64390	largeTSmallT	correct	congruent	0.40234	no	T	T
251.9257812	n/a	64493	responseLargeT	correct	n/a	0.40234	no	n/a	n/a
253.0039062	n/a	64769	largeTSmallT	correct	congruent	0.49219	no	T	T
253.4960938	n/a	64895	responseLargeT	correct	n/a	0.49219	no	n/a	n/a
254.5625	n/a	65168	largeHSmallT	correct	incongruent	0.54297	no	H	T
255.1054688	n/a	65307	responseLargeH	correct	n/a	0.54297	no	n/a	n/a
256.1640625	n/a	65578	largeTSmallH	correct	incongruent	0.58594	no	T	H
256.75	n/a	65728	responseLargeT	correct	n/a	0.58594	no	n/a	n/a
257.8164062	n/a	66001	largeTSmallH	correct	incongruent	0.51953	no	T	H
258.3359375	n/a	66134	responseLargeT	correct	n/a	0.51953	no	n/a	n/a
259.390625	n/a	66404	largeTSmallT	correct	congruent	0.66797	no	T	T
260.0585938	n/a	66575	responseLargeT	correct	n/a	0.66797	no	n/a	n/a
261.1210938	n/a	66847	largeHSmallH	correct	congruent	0.64062	no	H	H
261.7617188	n/a	67011	responseLargeH	correct	n/a	0.64062	no	n/a	n/a
262.828125	n/a	67284	largeHSmallT	correct	incongruent	0.41406	no	H	T
263.2421875	n/a	67390	responseLargeH	correct	n/a	0.41406	no	n/a	n/a
264.3085938	n/a	67663	largeTSmallH	correct	incongruent	0.48828	no	T	H
264.796875	n/a	67788	responseLargeT	correct	n/a	0.48828	no	n/a	n/a
265.8671875	n/a	68062	largeHSmallT	correct	incongruent	0.37109	no	H	T
266.2382812	n/a	68157	responseLargeH	correct	n/a	0.37109	no	n/a	n/a
267.296875	n/a	68428	largeHSmallH	correct	congruent	0.46094	no	H	H
267.7578125	n/a	68546	responseLargeH	correct	n/a	0.46094	no	n/a	n/a
268.8164062	n/a	68817	largeHSmallH	correct	congruent	0.70703	no	H	H
269.5234375	n/a	68998	responseLargeH	correct	n/a	0.70703	no	n/a	n/a
270.5898438	n/a	69271	largeTSmallT	correct	congruent	0.59375	no	T	T
271.1835938	n/a	69423	responseLargeT	correct	n/a	0.59375	no	n/a	n/a
272.2421875	n/a	69694	largeTSmallT	correct	congruent	0.42188	no	T	T
272.6640625	n/a	69802	responseLargeT	correct	n/a	0.42188	no	n/a	n/a
273.734375	n/a	70076	largeTSmallH	correct	incongruent	0.42578	no	T	H
274.1601562	n/a	70185	responseLargeT	correct	n/a	0.42578	no	n/a	n/a
275.2304688	n/a	70459	largeTSmallT	correct	congruent	0.45312	no	T	T
275.6835938	n/a	70575	responseLargeT	correct	n/a	0.45312	no	n/a	n/a
276.7617188	n/a	70851	largeHSmallH	correct	congruent	0.53516	no	H	H
277.296875	n/a	70988	responseLargeH	correct	n/a	0.53516	no	n/a	n/a
278.3632812	n/a	71261	largeTSmallH	correct	incongruent	0.57422	no	T	H
278.9375	n/a	71408	responseLargeT	correct	n/a	0.57422	no	n/a	n/a
280	n/a	71680	largeTSmallT	correct	congruent	0.44531	no	T	T
280.4453125	n/a	71794	responseLargeT	correct	n/a	0.44531	no	n/a	n/a
281.5078125	n/a	72066	largeTSmallH	correct	incongruent	0.51172	no	T	H
282.0195312	n/a	72197	responseLargeT	correct	n/a	0.51172	no	n/a	n/a
283.09375	n/a	72472	largeTSmallT	correct	congruent	0.93359	no	T	T
284.0273438	n/a	72711	responseLargeT	correct	n/a	0.93359	no	n/a	n/a
285.09375	n/a	72984	largeHSmallT	correct	incongruent	0.47656	no	H	T
285.5703125	n/a	73106	responseLargeH	correct	n/a	0.47656	no	n/a	n/a
286.6289062	n/a	73377	largeHSmallH	correct	congruent	0.44922	no	H	H
287.078125	n/a	73492	responseLargeH	correct	n/a	0.44922	no	n/a	n/a
288.1484375	n/a	73766	largeHSmallT	correct	incongruent	0.60156	no	H	T
288.75	n/a	73920	responseLargeH	correct	n/a	0.60156	no	n/a	n/a
289.8164062	n/a	74193	largeHSmallH	correct	congruent	0.42188	no	H	H
290.2382812	n/a	74301	responseLargeH	correct	n/a	0.42188	no	n/a	n/a
291.3085938	n/a	74575	largeHSmallH	correct	congruent	0.43359	no	H	H
291.7421875	n/a	74686	responseLargeH	correct	n/a	0.43359	no	n/a	n/a
292.8164062	n/a	74961	largeTSmallT	correct	congruent	0.75781	no	T	T
293.5742188	n/a	75155	responseLargeT	correct	n/a	0.75781	no	n/a	n/a
294.6289062	n/a	75425	largeTSmallT	correct	congruent	0.47656	no	T	T
295.1054688	n/a	75547	responseLargeT	correct	n/a	0.47656	no	n/a	n/a
296.1757812	n/a	75821	largeHSmallH	correct	congruent	0.38672	no	H	H
296.5625	n/a	75920	responseLargeH	correct	n/a	0.38672	no	n/a	n/a
297.6289062	n/a	76193	largeHSmallH	correct	congruent	0.50391	no	H	H
298.1328125	n/a	76322	responseLargeH	correct	n/a	0.50391	no	n/a	n/a
299.203125	n/a	76596	largeHSmallH	correct	congruent	0.5	no	H	H
299.703125	n/a	76724	responseLargeH	correct	n/a	0.5	no	n/a	n/a
300.7617188	n/a	76995	largeHSmallT	correct	incongruent	0.51562	no	H	T
301.2773438	n/a	77127	responseLargeH	correct	n/a	0.51562	no	n/a	n/a
302.3359375	n/a	77398	largeHSmallT	correct	incongruent	0.55078	no	H	T
302.8867188	n/a	77539	responseLargeH	correct	n/a	0.55078	no	n/a	n/a
303.9609375	n/a	77814	largeHSmallH	correct	congruent	0.39062	no	H	H
304.3515625	n/a	77914	responseLargeH	correct	n/a	0.39062	no	n/a	n/a
305.4140625	n/a	78186	largeHSmallT	correct	incongruent	0.40625	no	H	T
305.8203125	n/a	78290	responseLargeH	correct	n/a	0.40625	no	n/a	n/a
306.8828125	n/a	78562	largeTSmallH	correct	incongruent	0.58203	no	T	H
307.4648438	n/a	78711	responseLargeT	correct	n/a	0.58203	no	n/a	n/a
308.5351562	n/a	78985	largeHSmallH	correct	congruent	0.40234	no	H	H
308.9375	n/a	79088	responseLargeH	correct	n/a	0.40234	no	n/a	n/a
310	n/a	79360	largeHSmallH	correct	congruent	0.46484	no	H	H
310.4648438	n/a	79479	responseLargeH	correct	n/a	0.46484	no	n/a	n/a
311.5351562	n/a	79753	largeTSmallT	correct	congruent	0.61328	no	T	T
312.1484375	n/a	79910	responseLargeT	correct	n/a	0.61328	no	n/a	n/a
313.2148438	n/a	80183	largeHSmallH	correct	congruent	0.375	no	H	H
313.5898438	n/a	80279	responseLargeH	correct	n/a	0.375	no	n/a	n/a
314.6523438	n/a	80551	largeHSmallH	correct	congruent	0.42188	no	H	H
315.0742188	n/a	80659	responseLargeH	correct	n/a	0.42188	no	n/a	n/a
316.1484375	n/a	80934	largeHSmallH	correct	congruent	0.39453	no	H	H
316.5429688	n/a	81035	responseLargeH	correct	n/a	0.39453	no	n/a	n/a
317.6132812	n/a	81309	largeHSmallT	correct	incongruent	0.53906	no	H	T
318.1523438	n/a	81447	responseLargeH	correct	n/a	0.53906	no	n/a	n/a
319.2148438	n/a	81719	largeTSmallH	correct	incongruent	0.46875	no	T	H
319.6835938	n/a	81839	responseLargeT	correct	n/a	0.46875	no	n/a	n/a
320.7460938	n/a	82111	largeHSmallT	correct	incongruent	0.35938	no	H	T
321.1054688	n/a	82203	responseLargeH	correct	n/a	0.35938	no	n/a	n/a
322.1757812	n/a	82477	largeHSmallT	correct	incongruent	0.39844	no	H	T
322.5742188	n/a	82579	responseLargeH	correct	n/a	0.39844	no	n/a	n/a
323.640625	n/a	82852	largeTSmallH	correct	incongruent	0.41016	no	T	H
324.0507812	n/a	82957	responseLargeT	correct	n/a	0.41016	no	n/a	n/a
325.1210938	n/a	83231	largeTSmallH	correct	incongruent	0.48438	no	T	H
325.6054688	n/a	83355	responseLargeT	correct	n/a	0.48438	no	n/a	n/a
326.6796875	n/a	83630	largeHSmallT	correct	incongruent	0.50781	no	H	T
327.1875	n/a	83760	responseLargeH	correct	n/a	0.50781	no	n/a	n/a
328.2539062	n/a	84033	largeHSmallH	correct	congruent	0.47656	no	H	H
328.7304688	n/a	84155	responseLargeH	correct	n/a	0.47656	no	n/a	n/a
329.8007812	n/a	84429	largeTSmallH	correct	incongruent	0.56641	no	T	H
330.3671875	n/a	84574	responseLargeT	correct	n/a	0.56641	no	n/a	n/a
331.4414062	n/a	84849	largeTSmallT	correct	congruent	0.47266	no	T	T
331.9140625	n/a	84970	responseLargeT	correct	n/a	0.47266	no	n/a	n/a
332.9882812	n/a	85245	largeTSmallT	correct	congruent	0.46094	no	T	T
333.4492188	n/a	85363	responseLargeT	correct	n/a	0.46094	no	n/a	n/a
334.5078125	n/a	85634	largeTSmallT	correct	congruent	0.375	no	T	T
334.8828125	n/a	85730	responseLargeT	correct	n/a	0.375	no	n/a	n/a
335.9492188	n/a	86003	largeHSmallT	error	incongruent	0.39844	no	H	T
336.3476562	n/a	86105	responseLargeT	error	n/a	0.39844	no	n/a	n/a
337.4140625	n/a	86378	largeHSmallT	correct	incongruent	0.62109	no	H	T
338.0351562	n/a	86537	responseLargeH	correct	n/a	0.62109	no	n/a	n/a
339.09375	n/a	86808	largeHSmallH	correct	congruent	0.42188	no	H	H
339.515625	n/a	86916	responseLargeH	correct	n/a	0.42188	no	n/a	n/a
340.5742188	n/a	87187	largeHSmallT	correct	incongruent	0.46484	no	H	T
341.0390625	n/a	87306	responseLargeH	correct	n/a	0.46484	no	n/a	n/a
342.1054688	n/a	87579	largeTSmallH	correct	incongruent	0.46094	no	T	H
342.5664062	n/a	87697	responseLargeT	correct	n/a	0.46094	no	n/a	n/a
343.640625	n/a	87972	largeHSmallT	correct	incongruent	0.4375	no	H	T
344.078125	n/a	88084	responseLargeH	correct	n/a	0.4375	no	n/a	n/a
345.1484375	n/a	88358	largeTSmallH	correct	incongruent	0.38672	no	T	H
345.5351562	n/a	88457	responseLargeT	correct	n/a	0.38672	no	n/a	n/a
346.6015625	n/a	88730	largeTSmallT	correct	congruent	0.46484	no	T	T
347.0664062	n/a	88849	responseLargeT	correct	n/a	0.46484	no	n/a	n/a
351.3984375	n/a	89958	largeTSmallH	correct	incongruent	0.56641	no	T	H
351.9648438	n/a	90103	responseSmallH	correct	n/a	0.56641	no	n/a	n/a
353.0273438	n/a	90375	largeHSmallH	correct	congruent	0.53906	no	H	H
353.5664062	n/a	90513	responseSmallH	correct	n/a	0.53906	no	n/a	n/a
354.625	n/a	90784	largeHSmallT	correct	incongruent	0.40234	no	H	T
355.0273438	n/a	90887	responseSmallT	correct	n/a	0.40234	no	n/a	n/a
356.09375	n/a	91160	largeTSmallT	correct	congruent	0.42578	no	T	T
356.5195312	n/a	91269	responseSmallT	correct	n/a	0.42578	no	n/a	n/a
357.5859375	n/a	91542	largeTSmallH	correct	incongruent	0.59766	no	T	H
358.1835938	n/a	91695	responseSmallH	correct	n/a	0.59766	no	n/a	n/a
359.2539062	n/a	91969	largeTSmallH	correct	incongruent	0.73047	no	T	H
359.984375	n/a	92156	responseSmallH	correct	n/a	0.73047	no	n/a	n/a
361.0390625	n/a	92426	largeHSmallT	correct	incongruent	0.55859	no	H	T
361.5976562	n/a	92569	responseSmallT	correct	n/a	0.55859	no	n/a	n/a
362.6679688	n/a	92843	largeTSmallT	correct	congruent	0.48828	no	T	T
363.15625	n/a	92968	responseSmallT	correct	n/a	0.48828	no	n/a	n/a
364.2265625	n/a	93242	largeHSmallT	error	incongruent	0.48438	no	H	T
364.7109375	n/a	93366	responseSmallH	error	n/a	0.48438	no	n/a	n/a
365.7734375	n/a	93638	largeTSmallT	correct	congruent	0.50781	no	T	T
366.28125	n/a	93768	responseSmallT	correct	n/a	0.50781	no	n/a	n/a
367.3476562	n/a	94041	largeHSmallH	correct	congruent	0.53906	no	H	H
367.8867188	n/a	94179	responseSmallH	correct	n/a	0.53906	no	n/a	n/a
368.9609375	n/a	94454	largeTSmallH	correct	incongruent	0.49609	no	T	H
369.4570312	n/a	94581	responseSmallH	correct	n/a	0.49609	no	n/a	n/a
370.5351562	n/a	94857	largeTSmallH	correct	incongruent	0.48828	no	T	H
371.0234375	n/a	94982	responseSmallH	correct	n/a	0.48828	no	n/a	n/a
372.09375	n/a	95256	largeTSmallT	correct	congruent	0.5	no	T	T
372.59375	n/a	95384	responseSmallT	correct	n/a	0.5	no	n/a	n/a
373.6679688	n/a	95659	largeHSmallH	correct	congruent	0.47266	no	H	H
374.140625	n/a	95780	responseSmallH	correct	n/a	0.47266	no	n/a	n/a
375.2148438	n/a	96055	largeHSmallH	correct	congruent	0.63672	no	H	H
375.8515625	n/a	96218	responseSmallH	correct	n/a	0.63672	no	n/a	n/a
376.90625	n/a	96488	largeHSmallH	correct	congruent	0.5625	no	H	H
377.46875	n/a	96632	responseSmallH	correct	n/a	0.5625	no	n/a	n/a
378.53125	n/a	96904	largeTSmallT	correct	congruent	0.58594	no	T	T
379.1171875	n/a	97054	responseSmallT	correct	n/a	0.58594	no	n/a	n/a
380.1875	n/a	97328	largeHSmallT	correct	incongruent	1.0039	no	H	T
381.1914062	n/a	97585	responseSmallT	correct	n/a	1.0039	no	n/a	n/a
382.265625	n/a	97860	largeTSmallH	correct	incongruent	0.46094	no	T	H
382.7265625	n/a	97978	responseSmallH	correct	n/a	0.46094	no	n/a	n/a
383.7851562	n/a	98249	largeHSmallH	correct	congruent	0.5	no	H	H
384.2851562	n/a	98377	responseSmallH	correct	n/a	0.5	no	n/a	n/a
385.3476562	n/a	98649	largeTSmallT	correct	congruent	0.48047	no	T	T
385.828125	n/a	98772	responseSmallT	correct	n/a	0.48047	no	n/a	n/a
386.8945312	n/a	99045	largeHSmallH	correct	congruent	0.58594	no	H	H
387.4804688	n/a	99195	responseSmallH	correct	n/a	0.58594	no	n/a	n/a
388.5546875	n/a	99470	largeTSmallH	correct	incongruent	0.45312	no	T	H
389.0078125	n/a	99586	responseSmallH	correct	n/a	0.45312	no	n/a	n/a
390.078125	n/a	99860	largeTSmallH	correct	incongruent	0.43359	no	T	H
390.5117188	n/a	99971	responseSmallH	correct	n/a	0.43359	no	n/a	n/a
391.5742188	n/a	100243	largeHSmallT	error	incongruent	0.44141	no	H	T
392.015625	n/a	100356	responseSmallH	error	n/a	0.44141	no	n/a	n/a
393.09375	n/a	100632	largeHSmallT	correct	incongruent	0.47266	no	H	T
393.5664062	n/a	100753	responseSmallT	correct	n/a	0.47266	no	n/a	n/a
394.625	n/a	101024	largeTSmallT	correct	congruent	0.42578	no	T	T
395.0507812	n/a	101133	responseSmallT	correct	n/a	0.42578	no	n/a	n/a
396.1054688	n/a	101403	largeTSmallT	correct	congruent	0.45703	no	T	T
396.5625	n/a	101520	responseSmallT	correct	n/a	0.45703	no	n/a	n/a
397.625	n/a	101792	largeHSmallT	correct	incongruent	0.53125	no	H	T
398.15625	n/a	101928	responseSmallT	correct	n/a	0.53125	no	n/a	n/a
399.2109375	n/a	102198	largeTSmallH	correct	incongruent	0.46094	no	T	H
399.671875	n/a	102316	responseSmallH	correct	n/a	0.46094	no	n/a	n/a
400.734375	n/a	102588	largeTSmallH	correct	incongruent	0.64844	no	T	H
401.3828125	n/a	102754	responseSmallH	correct	n/a	0.64844	no	n/a	n/a
402.453125	n/a	103028	largeTSmallH	correct	incongruent	0.54297	no	T	H
402.9960938	n/a	103167	responseSmallH	correct	n/a	0.54297	no	n/a	n/a
404.0664062	n/a	103441	largeHSmallT	correct	incongruent	0.58203	no	H	T
404.6484375	n/a	103590	responseSmallT	correct	n/a	0.58203	no	n/a	n/a
405.71875	n/a	103864	largeHSmallT	correct	incongruent	0.53125	no	H	T
406.25	n/a	104000	responseSmallT	correct	n/a	0.53125	no	n/a	n/a
407.3203125	n/a	104274	largeHSmallT	correct	incongruent	0.49219	no	H	T
407.8125	n/a	104400	responseSmallT	correct	n/a	0.49219	no	n/a	n/a
408.8789062	n/a	104673	largeHSmallT	correct	incongruent	0.5	no	H	T
409.3789062	n/a	104801	responseSmallT	correct	n/a	0.5	no	n/a	n/a
410.453125	n/a	105076	largeHSmallT	correct	incongruent	0.57422	no	H	T
411.0273438	n/a	105223	responseSmallT	correct	n/a	0.57422	no	n/a	n/a
412.09375	n/a	105496	largeHSmallH	correct	congruent	0.50391	no	H	H
412.5976562	n/a	105625	responseSmallH	correct	n/a	0.50391	no	n/a	n/a
413.6640625	n/a	105898	largeTSmallH	correct	incongruent	0.58594	no	T	H
414.25	n/a	106048	responseSmallH	correct	n/a	0.58594	no	n/a	n/a
415.3203125	n/a	106322	largeHSmallT	correct	incongruent	0.45312	no	H	T
415.7734375	n/a	106438	responseSmallT	correct	n/a	0.45312	no	n/a	n/a
416.8515625	n/a	106714	largeHSmallT	correct	incongruent	0.48438	no	H	T
417.3359375	n/a	106838	responseSmallT	correct	n/a	0.48438	no	n/a	n/a
418.3984375	n/a	107110	largeTSmallH	correct	incongruent	0.45312	no	T	H
418.8515625	n/a	107226	responseSmallH	correct	n/a	0.45312	no	n/a	n/a
419.9179688	n/a	107499	largeHSmallH	correct	congruent	0.48047	no	H	H
420.3984375	n/a	107622	responseSmallH	correct	n/a	0.48047	no	n/a	n/a
421.4648438	n/a	107895	largeHSmallT	correct	incongruent	0.45312	no	H	T
421.9179688	n/a	108011	responseSmallT	correct	n/a	0.45312	no	n/a	n/a
422.984375	n/a	108284	largeHSmallT	correct	incongruent	0.48047	no	H	T
423.4648438	n/a	108407	responseSmallT	correct	n/a	0.48047	no	n/a	n/a
424.53125	n/a	108680	largeTSmallT	correct	congruent	0.4375	no	T	T
424.96875	n/a	108792	responseSmallT	correct	n/a	0.4375	no	n/a	n/a
426.0390625	n/a	109066	largeHSmallH	correct	congruent	0.46484	no	H	H
426.5039062	n/a	109185	responseSmallH	correct	n/a	0.46484	no	n/a	n/a
427.5859375	n/a	109462	largeHSmallT	correct	incongruent	0.55469	no	H	T
428.140625	n/a	109604	responseSmallT	correct	n/a	0.55469	no	n/a	n/a
429.1992188	n/a	109875	largeTSmallH	correct	incongruent	0.43359	no	T	H
429.6328125	n/a	109986	responseSmallH	correct	n/a	0.43359	no	n/a	n/a
430.7070312	n/a	110261	largeTSmallT	correct	congruent	0.59766	no	T	T
431.3046875	n/a	110414	responseSmallT	correct	n/a	0.59766	no	n/a	n/a
432.3710938	n/a	110687	largeTSmallH	correct	incongruent	0.48438	no	T	H
432.8554688	n/a	110811	responseSmallH	correct	n/a	0.48438	no	n/a	n/a
433.9335938	n/a	111087	largeHSmallH	correct	congruent	0.64453	no	H	H
434.578125	n/a	111252	responseSmallH	correct	n/a	0.64453	no	n/a	n/a
435.6367188	n/a	111523	largeTSmallH	correct	incongruent	0.64062	no	T	H
436.2773438	n/a	111687	responseSmallH	correct	n/a	0.64062	no	n/a	n/a
437.34375	n/a	111960	largeHSmallH	correct	congruent	0.44141	no	H	H
437.7851562	n/a	112073	responseSmallH	correct	n/a	0.44141	no	n/a	n/a
438.8515625	n/a	112346	largeHSmallT	correct	incongruent	0.54688	no	H	T
439.3984375	n/a	112486	responseSmallT	correct	n/a	0.54688	no	n/a	n/a
440.4648438	n/a	112759	largeTSmallT	correct	congruent	0.49609	no	T	T
440.9609375	n/a	112886	responseSmallT	correct	n/a	0.49609	no	n/a	n/a
442.0234375	n/a	113158	largeHSmallT	correct	incongruent	0.58594	no	H	T
442.609375	n/a	113308	responseSmallT	correct	n/a	0.58594	no	n/a	n/a
443.6796875	n/a	113582	largeTSmallT	correct	congruent	0.48438	no	T	T
444.1640625	n/a	113706	responseSmallT	correct	n/a	0.48438	no	n/a	n/a
445.2382812	n/a	113981	largeTSmallT	error	congruent	0.41406	no	T	T
445.6523438	n/a	114087	responseSmallH	error	n/a	0.41406	no	n/a	n/a
446.71875	n/a	114360	largeHSmallH	correct	congruent	0.61719	no	H	H
447.3359375	n/a	114518	responseSmallH	correct	n/a	0.61719	no	n/a	n/a
448.4101562	n/a	114793	largeTSmallH	correct	incongruent	0.54688	no	T	H
448.9570312	n/a	114933	responseSmallH	correct	n/a	0.54688	no	n/a	n/a
450.0234375	n/a	115206	largeTSmallH	correct	incongruent	0.53516	no	T	H
450.5585938	n/a	115343	responseSmallH	correct	n/a	0.53516	no	n/a	n/a
451.6367188	n/a	115619	largeHSmallT	correct	incongruent	0.50391	no	H	T
452.140625	n/a	115748	responseSmallT	correct	n/a	0.50391	no	n/a	n/a
453.2109375	n/a	116022	largeHSmallH	correct	congruent	0.42578	no	H	H
453.6367188	n/a	116131	responseSmallH	correct	n/a	0.42578	no	n/a	n/a
454.703125	n/a	116404	largeTSmallT	correct	congruent	0.49609	no	T	T
455.1992188	n/a	116531	responseSmallT	correct	n/a	0.49609	no	n/a	n/a
456.265625	n/a	116804	largeHSmallT	correct	incongruent	0.46875	no	H	T
456.734375	n/a	116924	responseSmallT	correct	n/a	0.46875	no	n/a	n/a
457.796875	n/a	117196	largeTSmallT	correct	congruent	0.60547	no	T	T
458.4023438	n/a	117351	responseSmallT	correct	n/a	0.60547	no	n/a	n/a
459.4648438	n/a	117623	largeTSmallT	correct	congruent	0.40234	no	T	T
459.8671875	n/a	117726	responseSmallT	correct	n/a	0.40234	no	n/a	n/a
460.9296875	n/a	117998	largeHSmallH	correct	congruent	0.51172	no	H	H
461.4414062	n/a	118129	responseSmallH	correct	n/a	0.51172	no	n/a	n/a
462.5039062	n/a	118401	largeTSmallH	correct	incongruent	0.61719	no	T	H
463.1210938	n/a	118559	responseSmallH	correct	n/a	0.61719	no	n/a	n/a
464.1835938	n/a	118831	largeHSmallT	correct	incongruent	0.58984	no	H	T
464.7734375	n/a	118982	responseSmallT	correct	n/a	0.58984	no	n/a	n/a
465.8515625	n/a	119258	largeTSmallT	correct	congruent	0.44531	no	T	T
466.296875	n/a	119372	responseSmallT	correct	n/a	0.44531	no	n/a	n/a
467.359375	n/a	119644	largeHSmallT	correct	incongruent	0.53125	no	H	T
467.890625	n/a	119780	responseSmallT	correct	n/a	0.53125	no	n/a	n/a
468.9570312	n/a	120053	largeTSmallT	correct	congruent	0.34375	no	T	T
469.3007812	n/a	120141	responseSmallT	correct	n/a	0.34375	no	n/a	n/a
470.3710938	n/a	120415	largeTSmallH	correct	incongruent	0.47266	no	T	H
470.84375	n/a	120536	responseSmallH	correct	n/a	0.47266	no	n/a	n/a
471.9179688	n/a	120811	largeHSmallH	correct	congruent	0.45703	no	H	H
472.375	n/a	120928	responseSmallH	correct	n/a	0.45703	no	n/a	n/a
473.4375	n/a	121200	largeTSmallH	error	incongruent	0.49609	no	T	H
473.9335938	n/a	121327	responseSmallT	error	n/a	0.49609	no	n/a	n/a
474.9960938	n/a	121599	largeHSmallH	correct	congruent	0.37891	no	H	H
475.375	n/a	121696	responseSmallH	correct	n/a	0.37891	no	n/a	n/a
476.4375	n/a	121968	largeHSmallH	correct	congruent	0.40625	no	H	H
476.84375	n/a	122072	responseSmallH	correct	n/a	0.40625	no	n/a	n/a
477.9023438	n/a	122343	largeTSmallT	correct	congruent	0.5	no	T	T
478.4023438	n/a	122471	responseSmallT	correct	n/a	0.5	no	n/a	n/a
479.4648438	n/a	122743	largeHSmallT	correct	incongruent	0.51953	no	H	T
479.984375	n/a	122876	responseSmallT	correct	n/a	0.51953	no	n/a	n/a
481.0507812	n/a	123149	largeTSmallT	correct	congruent	0.49609	no	T	T
481.546875	n/a	123276	responseSmallT	correct	n/a	0.49609	no	n/a	n/a
482.609375	n/a	123548	largeHSmallT	correct	incongruent	0.48047	no	H	T
483.0898438	n/a	123671	responseSmallT	correct	n/a	0.48047	no	n/a	n/a
484.15625	n/a	123944	largeTSmallH	correct	incongruent	0.51953	no	T	H
484.6757812	n/a	124077	responseSmallH	correct	n/a	0.51953	no	n/a	n/a
485.7421875	n/a	124350	largeHSmallH	correct	congruent	0.44922	no	H	H
486.1914062	n/a	124465	responseSmallH	correct	n/a	0.44922	no	n/a	n/a
487.265625	n/a	124740	largeTSmallH	correct	incongruent	0.47656	no	T	H
487.7421875	n/a	124862	responseSmallH	correct	n/a	0.47656	no	n/a	n/a
488.8085938	n/a	125135	largeTSmallT	correct	congruent	1.2148	no	T	T
490.0234375	n/a	125446	responseSmallT	correct	n/a	1.2148	no	n/a	n/a
491.0898438	n/a	125719	largeTSmallH	correct	incongruent	0.41797	no	T	H
491.5078125	n/a	125826	responseSmallH	correct	n/a	0.41797	no	n/a	n/a
492.5703125	n/a	126098	largeHSmallT	correct	incongruent	0.6875	no	H	T
493.2578125	n/a	126274	responseSmallT	correct	n/a	0.6875	no	n/a	n/a
494.3320312	n/a	126549	largeTSmallT	correct	congruent	0.48438	no	T	T
494.8164062	n/a	126673	responseSmallT	correct	n/a	0.48438	no	n/a	n/a
495.890625	n/a	126948	largeHSmallH	correct	congruent	0.39844	no	H	H
496.2890625	n/a	127050	responseSmallH	correct	n/a	0.39844	no	n/a	n/a
497.3554688	n/a	127323	largeTSmallH	correct	incongruent	0.57422	no	T	H
497.9296875	n/a	127470	responseSmallH	correct	n/a	0.57422	no	n/a	n/a
498.9960938	n/a	127743	largeTSmallH	correct	incongruent	0.48047	no	T	H
499.4765625	n/a	127866	responseSmallH	correct	n/a	0.48047	no	n/a	n/a
500.5429688	n/a	128139	largeHSmallH	correct	congruent	0.42188	no	H	H
500.9648438	n/a	128247	responseSmallH	correct	n/a	0.42188	no	n/a	n/a
502.0351562	n/a	128521	largeHSmallT	correct	incongruent	0.48438	no	H	T
502.5195312	n/a	128645	responseSmallT	correct	n/a	0.48438	no	n/a	n/a
503.5820312	n/a	128917	largeTSmallH	correct	incongruent	0.56641	no	T	H
504.1484375	n/a	129062	responseSmallH	correct	n/a	0.56641	no	n/a	n/a
505.2226562	n/a	129337	largeHSmallH	correct	congruent	0.60938	no	H	H
505.8320312	n/a	129493	responseSmallH	correct	n/a	0.60938	no	n/a	n/a
506.9023438	n/a	129767	largeTSmallT	correct	congruent	0.62891	no	T	T
507.53125	n/a	129928	responseSmallT	correct	n/a	0.62891	no	n/a	n/a
508.609375	n/a	130204	largeHSmallT	correct	incongruent	0.57812	no	H	T
509.1875	n/a	130352	responseSmallT	correct	n/a	0.57812	no	n/a	n/a
510.2617188	n/a	130627	largeTSmallH	correct	incongruent	0.47266	no	T	H
510.734375	n/a	130748	responseSmallH	correct	n/a	0.47266	no	n/a	n/a
511.8085938	n/a	131023	largeHSmallH	correct	congruent	0.46875	no	H	H
512.2773438	n/a	131143	responseSmallH	correct	n/a	0.46875	no	n/a	n/a
513.34375	n/a	131416	largeTSmallT	correct	congruent	0.45312	no	T	T
513.796875	n/a	131532	responseSmallT	correct	n/a	0.45312	no	n/a	n/a
514.8632812	n/a	131805	largeTSmallT	correct	congruent	0.48047	no	T	T
515.34375	n/a	131928	responseSmallT	correct	n/a	0.48047	no	n/a	n/a
516.4101562	n/a	132201	largeHSmallH	correct	congruent	0.42578	no	H	H
516.8359375	n/a	132310	responseSmallH	correct	n/a	0.42578	no	n/a	n/a
517.9023438	n/a	132583	largeHSmallH	correct	congruent	0.47656	no	H	H
518.3789062	n/a	132705	responseSmallH	correct	n/a	0.47656	no	n/a	n/a
519.4492188	n/a	132979	largeHSmallT	correct	incongruent	0.5	no	H	T
519.9492188	n/a	133107	responseSmallT	correct	n/a	0.5	no	n/a	n/a
521.0117188	n/a	133379	largeTSmallT	correct	congruent	0.60547	no	T	T
521.6171875	n/a	133534	responseSmallT	correct	n/a	0.60547	no	n/a	n/a
522.6757812	n/a	133805	largeHSmallH	correct	congruent	0.42578	no	H	H
523.1015625	n/a	133914	responseSmallH	correct	n/a	0.42578	no	n/a	n/a
524.1679688	n/a	134187	largeHSmallT	correct	incongruent	0.52734	no	H	T
524.6953125	n/a	134322	responseSmallT	correct	n/a	0.52734	no	n/a	n/a
525.7695312	n/a	134597	largeTSmallH	correct	incongruent	0.69922	no	T	H
526.46875	n/a	134776	responseSmallH	correct	n/a	0.69922	no	n/a	n/a
527.53125	n/a	135048	largeTSmallH	correct	incongruent	0.87109	no	T	H
528.4023438	n/a	135271	responseSmallH	correct	n/a	0.87109	no	n/a	n/a
529.4648438	n/a	135543	largeTSmallH	correct	incongruent	0.48438	no	T	H
529.9492188	n/a	135667	responseSmallH	correct	n/a	0.48438	no	n/a	n/a
531.0234375	n/a	135942	largeTSmallH	correct	incongruent	0.50391	no	T	H
531.5273438	n/a	136071	responseSmallH	correct	n/a	0.50391	no	n/a	n/a
532.5976562	n/a	136345	largeHSmallT	correct	incongruent	0.51172	no	H	T
533.109375	n/a	136476	responseSmallT	correct	n/a	0.51172	no	n/a	n/a
534.1679688	n/a	136747	largeHSmallH	correct	congruent	0.46875	no	H	H
534.6367188	n/a	136867	responseSmallH	correct	n/a	0.46875	no	n/a	n/a
535.703125	n/a	137140	largeHSmallT	correct	incongruent	0.53125	no	H	T
536.234375	n/a	137276	responseSmallT	correct	n/a	0.53125	no	n/a	n/a
537.2890625	n/a	137546	largeHSmallH	correct	congruent	0.50391	no	H	H
537.7929688	n/a	137675	responseSmallH	correct	n/a	0.50391	no	n/a	n/a
538.8476562	n/a	137945	largeHSmallH	correct	congruent	0.67969	no	H	H
539.5273438	n/a	138119	responseSmallH	correct	n/a	0.67969	no	n/a	n/a
540.5976562	n/a	138393	largeTSmallH	correct	incongruent	0.51172	no	T	H
541.109375	n/a	138524	responseSmallH	correct	n/a	0.51172	no	n/a	n/a
542.1679688	n/a	138795	largeTSmallH	correct	incongruent	0.64453	no	T	H
542.8125	n/a	138960	responseSmallH	correct	n/a	0.64453	no	n/a	n/a
543.875	n/a	139232	largeTSmallH	correct	incongruent	0.39453	no	T	H
544.2695312	n/a	139333	responseSmallH	correct	n/a	0.39453	no	n/a	n/a
545.34375	n/a	139608	largeHSmallT	correct	incongruent	0.45312	no	H	T
545.796875	n/a	139724	responseSmallT	correct	n/a	0.45312	no	n/a	n/a
546.875	n/a	140000	largeHSmallH	correct	congruent	0.53125	no	H	H
547.40625	n/a	140136	responseSmallH	correct	n/a	0.53125	no	n/a	n/a
548.4765625	n/a	140410	largeHSmallH	correct	congruent	0.44141	no	H	H
548.9179688	n/a	140523	responseSmallH	correct	n/a	0.44141	no	n/a	n/a
549.9960938	n/a	140799	largeHSmallH	correct	congruent	0.44141	no	H	H
550.4375	n/a	140912	responseSmallH	correct	n/a	0.44141	no	n/a	n/a
551.5039062	n/a	141185	largeTSmallT	correct	congruent	0.46875	no	T	T
551.9726562	n/a	141305	responseSmallT	correct	n/a	0.46875	no	n/a	n/a
553.0351562	n/a	141577	largeTSmallH	correct	incongruent	0.4375	no	T	H
553.4726562	n/a	141689	responseSmallH	correct	n/a	0.4375	no	n/a	n/a
554.5273438	n/a	141959	largeTSmallT	correct	congruent	0.50781	no	T	T
555.0351562	n/a	142089	responseSmallT	correct	n/a	0.50781	no	n/a	n/a
556.1015625	n/a	142362	largeHSmallT	correct	incongruent	0.51172	no	H	T
556.6132812	n/a	142493	responseSmallT	correct	n/a	0.51172	no	n/a	n/a
557.6875	n/a	142768	largeTSmallT	correct	congruent	0.49609	no	T	T
558.1835938	n/a	142895	responseSmallT	correct	n/a	0.49609	no	n/a	n/a
559.2617188	n/a	143171	largeHSmallH	correct	congruent	0.44141	no	H	H
559.703125	n/a	143284	responseSmallH	correct	n/a	0.44141	no	n/a	n/a
560.7695312	n/a	143557	largeTSmallH	correct	incongruent	0.39062	no	T	H
561.1601562	n/a	143657	responseSmallH	correct	n/a	0.39062	no	n/a	n/a
562.2226562	n/a	143929	largeHSmallT	correct	incongruent	0.51953	no	H	T
562.7421875	n/a	144062	responseSmallT	correct	n/a	0.51953	no	n/a	n/a
563.8085938	n/a	144335	largeTSmallT	correct	congruent	0.61328	no	T	T
564.421875	n/a	144492	responseSmallT	correct	n/a	0.61328	no	n/a	n/a
565.4882812	n/a	144765	largeTSmallH	correct	incongruent	0.44531	no	T	H
565.9335938	n/a	144879	responseSmallH	correct	n/a	0.44531	no	n/a	n/a
566.9960938	n/a	145151	largeHSmallT	correct	incongruent	0.72266	no	H	T
567.71875	n/a	145336	responseSmallT	correct	n/a	0.72266	no	n/a	n/a
568.796875	n/a	145612	largeTSmallT	correct	congruent	0.49609	no	T	T
569.2929688	n/a	145739	responseSmallT	correct	n/a	0.49609	no	n/a	n/a
570.3671875	n/a	146014	largeHSmallH	correct	congruent	0.44922	no	H	H
570.8164062	n/a	146129	responseSmallH	correct	n/a	0.44922	no	n/a	n/a
571.875	n/a	146400	largeHSmallH	correct	congruent	0.51172	no	H	H
572.3867188	n/a	146531	responseSmallH	correct	n/a	0.51172	no	n/a	n/a
573.4609375	n/a	146806	largeTSmallH	correct	incongruent	0.50391	no	T	H
573.9648438	n/a	146935	responseSmallH	correct	n/a	0.50391	no	n/a	n/a
575.0351562	n/a	147209	largeTSmallT	correct	congruent	0.44922	no	T	T
575.484375	n/a	147324	responseSmallT	correct	n/a	0.44922	no	n/a	n/a
576.5429688	n/a	147595	largeHSmallH	correct	congruent	0.41406	no	H	H
576.9570312	n/a	147701	responseSmallH	correct	n/a	0.41406	no	n/a	n/a
578.0234375	n/a	147974	largeHSmallT	correct	incongruent	0.48438	no	H	T
578.5078125	n/a	148098	responseSmallT	correct	n/a	0.48438	no	n/a	n/a
579.5703125	n/a	148370	largeTSmallH	correct	incongruent	0.41797	no	T	H
579.9882812	n/a	148477	responseSmallH	correct	n/a	0.41797	no	n/a	n/a
581.046875	n/a	148748	largeHSmallT	correct	incongruent	0.49609	no	H	T
581.5429688	n/a	148875	responseSmallT	correct	n/a	0.49609	no	n/a	n/a
582.609375	n/a	149148	largeHSmallH	correct	congruent	0.64062	no	H	H
583.25	n/a	149312	responseSmallH	correct	n/a	0.64062	no	n/a	n/a
584.3164062	n/a	149585	largeTSmallH	correct	incongruent	0.69141	no	T	H
585.0078125	n/a	149762	responseSmallH	correct	n/a	0.69141	no	n/a	n/a
586.0742188	n/a	150035	largeTSmallT	correct	congruent	0.5625	no	T	T
586.6367188	n/a	150179	responseSmallT	correct	n/a	0.5625	no	n/a	n/a
587.703125	n/a	150452	largeTSmallT	correct	congruent	0.48438	no	T	T
588.1875	n/a	150576	responseSmallT	correct	n/a	0.48438	no	n/a	n/a
589.2617188	n/a	150851	largeHSmallH	correct	congruent	0.43359	no	H	H
589.6953125	n/a	150962	responseSmallH	correct	n/a	0.43359	no	n/a	n/a
590.7539062	n/a	151233	largeHSmallH	correct	congruent	0.47656	no	H	H
591.2304688	n/a	151355	responseSmallH	correct	n/a	0.47656	no	n/a	n/a
592.3007812	n/a	151629	largeHSmallT	correct	incongruent	0.51562	no	H	T
592.8164062	n/a	151761	responseSmallT	correct	n/a	0.51562	no	n/a	n/a
593.8867188	n/a	152035	largeTSmallT	correct	congruent	0.47266	no	T	T
594.359375	n/a	152156	responseSmallT	correct	n/a	0.47266	no	n/a	n/a
595.421875	n/a	152428	largeHSmallT	error	incongruent	0.51172	no	H	T
595.9335938	n/a	152559	responseSmallH	error	n/a	0.51172	no	n/a	n/a
596.9960938	n/a	152831	largeHSmallH	correct	congruent	0.67578	no	H	H
597.671875	n/a	153004	responseSmallH	correct	n/a	0.67578	no	n/a	n/a
598.7421875	n/a	153278	largeTSmallT	correct	congruent	0.45312	no	T	T
599.1953125	n/a	153394	responseSmallT	correct	n/a	0.45312	no	n/a	n/a
600.2734375	n/a	153670	largeHSmallT	correct	incongruent	0.58984	no	H	T
600.8632812	n/a	153821	responseSmallT	correct	n/a	0.58984	no	n/a	n/a
601.9296875	n/a	154094	largeTSmallT	correct	congruent	0.51562	no	T	T
602.4453125	n/a	154226	responseSmallT	correct	n/a	0.51562	no	n/a	n/a
603.515625	n/a	154500	largeHSmallT	correct	incongruent	0.44531	no	H	T
603.9609375	n/a	154614	responseSmallT	correct	n/a	0.44531	no	n/a	n/a
605.0351562	n/a	154889	largeHSmallT	correct	incongruent	0.50391	no	H	T
605.5390625	n/a	155018	responseSmallT	correct	n/a	0.50391	no	n/a	n/a
606.609375	n/a	155292	largeTSmallT	correct	congruent	0.44141	no	T	T
607.0507812	n/a	155405	responseSmallT	correct	n/a	0.44141	no	n/a	n/a
608.1132812	n/a	155677	largeHSmallT	correct	incongruent	0.52734	no	H	T
608.640625	n/a	155812	responseSmallT	correct	n/a	0.52734	no	n/a	n/a
609.7148438	n/a	156087	largeTSmallT	correct	congruent	0.41797	no	T	T
610.1328125	n/a	156194	responseSmallT	correct	n/a	0.41797	no	n/a	n/a
611.2070312	n/a	156469	largeTSmallT	correct	congruent	0.38672	no	T	T
611.59375	n/a	156568	responseSmallT	correct	n/a	0.38672	no	n/a	n/a
612.6601562	n/a	156841	largeTSmallT	correct	congruent	0.42188	no	T	T
613.0820312	n/a	156949	responseSmallT	correct	n/a	0.42188	no	n/a	n/a
614.15625	n/a	157224	largeHSmallH	correct	congruent	0.48047	no	H	H
614.6367188	n/a	157347	responseSmallH	correct	n/a	0.48047	no	n/a	n/a
615.6992188	n/a	157619	largeTSmallH	correct	incongruent	0.41406	no	T	H
616.1132812	n/a	157725	responseSmallH	correct	n/a	0.41406	no	n/a	n/a
617.1796875	n/a	157998	largeHSmallH	correct	congruent	0.44922	no	H	H
617.6289062	n/a	158113	responseSmallH	correct	n/a	0.44922	no	n/a	n/a
618.6992188	n/a	158387	largeTSmallT	correct	congruent	0.48438	no	T	T
619.1835938	n/a	158511	responseSmallT	correct	n/a	0.48438	no	n/a	n/a
620.2617188	n/a	158787	largeTSmallT	correct	congruent	0.53906	no	T	T
620.8007812	n/a	158925	responseSmallT	correct	n/a	0.53906	no	n/a	n/a
621.859375	n/a	159196	largeTSmallH	correct	incongruent	0.45312	no	T	H
622.3125	n/a	159312	responseSmallH	correct	n/a	0.45312	no	n/a	n/a
623.3671875	n/a	159582	largeHSmallH	correct	congruent	0.5	no	H	H
623.8671875	n/a	159710	responseSmallH	correct	n/a	0.5	no	n/a	n/a
624.9414062	n/a	159985	largeTSmallH	correct	incongruent	0.42969	no	T	H
625.3710938	n/a	160095	responseSmallH	correct	n/a	0.42969	no	n/a	n/a
626.4335938	n/a	160367	largeTSmallT	correct	congruent	0.46875	no	T	T
626.9023438	n/a	160487	responseSmallT	correct	n/a	0.46875	no	n/a	n/a
627.96875	n/a	160760	largeHSmallH	correct	congruent	0.44141	no	H	H
628.4101562	n/a	160873	responseSmallH	correct	n/a	0.44141	no	n/a	n/a
629.4726562	n/a	161145	largeHSmallH	correct	congruent	0.70703	no	H	H
630.1796875	n/a	161326	responseSmallH	correct	n/a	0.70703	no	n/a	n/a
631.2460938	n/a	161599	largeTSmallH	correct	incongruent	0.47266	no	T	H
631.71875	n/a	161720	responseSmallH	correct	n/a	0.47266	no	n/a	n/a
632.78125	n/a	161992	largeTSmallH	correct	incongruent	0.41797	no	T	H
633.1992188	n/a	162099	responseSmallH	correct	n/a	0.41797	no	n/a	n/a
634.2617188	n/a	162371	largeTSmallH	correct	incongruent	0.39453	no	T	H
634.65625	n/a	162472	responseSmallH	correct	n/a	0.39453	no	n/a	n/a
635.7265625	n/a	162746	largeHSmallH	correct	congruent	0.44141	no	H	H
636.1679688	n/a	162859	responseSmallH	correct	n/a	0.44141	no	n/a	n/a
637.2226562	n/a	163129	largeHSmallT	correct	incongruent	0.44922	no	H	T
637.671875	n/a	163244	responseSmallT	correct	n/a	0.44922	no	n/a	n/a
638.7421875	n/a	163518	largeTSmallT	correct	congruent	0.36328	no	T	T
639.1054688	n/a	163611	responseSmallT	correct	n/a	0.36328	no	n/a	n/a
640.1796875	n/a	163886	largeTSmallT	correct	congruent	0.41406	no	T	T
640.59375	n/a	163992	responseSmallT	correct	n/a	0.41406	no	n/a	n/a
641.6601562	n/a	164265	largeTSmallT	correct	congruent	0.42969	no	T	T
642.0898438	n/a	164375	responseSmallT	correct	n/a	0.42969	no	n/a	n/a
643.1523438	n/a	164647	largeTSmallH	correct	incongruent	0.42188	no	T	H
643.5742188	n/a	164755	responseSmallH	correct	n/a	0.42188	no	n/a	n/a
644.6328125	n/a	165026	largeHSmallH	correct	congruent	0.41016	no	H	H
645.0429688	n/a	165131	responseSmallH	correct	n/a	0.41016	no	n/a	n/a
646.1015625	n/a	165402	largeHSmallH	correct	congruent	0.37109	no	H	H
646.4726562	n/a	165497	responseSmallH	correct	n/a	0.37109	no	n/a	n/a
647.5390625	n/a	165770	largeTSmallH	correct	incongruent	0.53125	no	T	H
648.0703125	n/a	165906	responseSmallH	correct	n/a	0.53125	no	n/a	n/a
649.125	n/a	166176	largeHSmallT	correct	incongruent	0.67969	no	H	T
649.8046875	n/a	166350	responseSmallT	correct	n/a	0.67969	no	n/a	n/a
650.875	n/a	166624	largeHSmallH	correct	congruent	0.51953	no	H	H
651.3945312	n/a	166757	responseSmallH	correct	n/a	0.51953	no	n/a	n/a
652.4726562	n/a	167033	largeTSmallT	error	congruent	0.45312	no	T	T
652.9257812	n/a	167149	responseSmallH	error	n/a	0.45312	no	n/a	n/a
653.9921875	n/a	167422	largeHSmallT	correct	incongruent	0.55469	no	H	T
654.546875	n/a	167564	responseSmallT	correct	n/a	0.55469	no	n/a	n/a
655.6210938	n/a	167839	largeHSmallT	correct	incongruent	0.48438	no	H	T
656.1054688	n/a	167963	responseSmallT	correct	n/a	0.48438	no	n/a	n/a
657.1796875	n/a	168238	largeTSmallT	correct	congruent	0.46484	no	T	T
657.6445312	n/a	168357	responseSmallT	correct	n/a	0.46484	no	n/a	n/a
658.7148438	n/a	168631	largeTSmallH	correct	incongruent	0.55859	no	T	H
659.2734375	n/a	168774	responseSmallH	correct	n/a	0.55859	no	n/a	n/a
660.3515625	n/a	169050	largeHSmallT	correct	incongruent	0.53906	no	H	T
660.890625	n/a	169188	responseSmallT	correct	n/a	0.53906	no	n/a	n/a
661.953125	n/a	169460	largeHSmallH	correct	congruent	0.48047	no	H	H
662.4335938	n/a	169583	responseSmallH	correct	n/a	0.48047	no	n/a	n/a
663.5	n/a	169856	largeTSmallT	correct	congruent	0.44922	no	T	T
663.9492188	n/a	169971	responseSmallT	correct	n/a	0.44922	no	n/a	n/a
665.0078125	n/a	170242	largeHSmallT	correct	incongruent	0.59375	no	H	T
665.6015625	n/a	170394	responseSmallT	correct	n/a	0.59375	no	n/a	n/a
673.6601562	n/a	172457	largeHSmallT	correct	incongruent	2.2617	yes	H	T
675.921875	n/a	173036	responseLargeH	correct	n/a	2.2617	yes	n/a	n/a
676.9921875	n/a	173310	largeHSmallT	correct	incongruent	0.48828	no	H	T
677.4804688	n/a	173435	responseLargeH	correct	n/a	0.48828	no	n/a	n/a
678.5546875	n/a	173710	largeTSmallT	correct	congruent	0.40625	no	T	T
678.9609375	n/a	173814	responseLargeT	correct	n/a	0.40625	no	n/a	n/a
680.03125	n/a	174088	largeTSmallH	correct	incongruent	0.5	no	T	H
680.53125	n/a	174216	responseLargeT	correct	n/a	0.5	no	n/a	n/a
681.59375	n/a	174488	largeHSmallH	correct	congruent	0.39453	no	H	H
681.9882812	n/a	174589	responseLargeH	correct	n/a	0.39453	no	n/a	n/a
683.0585938	n/a	174863	largeHSmallT	correct	incongruent	0.41797	no	H	T
683.4765625	n/a	174970	responseLargeH	correct	n/a	0.41797	no	n/a	n/a
684.5390625	n/a	175242	largeTSmallT	correct	congruent	0.53125	no	T	T
685.0703125	n/a	175378	responseLargeT	correct	n/a	0.53125	no	n/a	n/a
686.140625	n/a	175652	largeHSmallT	correct	incongruent	0.37891	no	H	T
686.5195312	n/a	175749	responseLargeH	correct	n/a	0.37891	no	n/a	n/a
687.578125	n/a	176020	largeTSmallT	correct	congruent	0.59766	no	T	T
688.1757812	n/a	176173	responseLargeT	correct	n/a	0.59766	no	n/a	n/a
689.234375	n/a	176444	largeHSmallT	correct	incongruent	0.45703	no	H	T
689.6914062	n/a	176561	responseLargeH	correct	n/a	0.45703	no	n/a	n/a
690.7539062	n/a	176833	largeHSmallT	correct	incongruent	0.39453	no	H	T
691.1484375	n/a	176934	responseLargeH	correct	n/a	0.39453	no	n/a	n/a
692.21875	n/a	177208	largeTSmallT	correct	congruent	0.49609	no	T	T
692.7148438	n/a	177335	responseLargeT	correct	n/a	0.49609	no	n/a	n/a
693.78125	n/a	177608	largeTSmallT	correct	congruent	0.47266	no	T	T
694.2539062	n/a	177729	responseLargeT	correct	n/a	0.47266	no	n/a	n/a
695.3242188	n/a	178003	largeHSmallH	correct	congruent	0.35156	no	H	H
695.6757812	n/a	178093	responseLargeH	correct	n/a	0.35156	no	n/a	n/a
696.7382812	n/a	178365	largeHSmallT	correct	incongruent	0.56641	no	H	T
697.3046875	n/a	178510	responseLargeH	correct	n/a	0.56641	no	n/a	n/a
698.3671875	n/a	178782	largeHSmallT	correct	incongruent	0.44922	no	H	T
698.8164062	n/a	178897	responseLargeH	correct	n/a	0.44922	no	n/a	n/a
699.8710938	n/a	179167	largeHSmallT	correct	incongruent	0.46484	no	H	T
700.3359375	n/a	179286	responseLargeH	correct	n/a	0.46484	no	n/a	n/a
701.40625	n/a	179560	largeHSmallH	correct	congruent	0.375	no	H	H
701.78125	n/a	179656	responseLargeH	correct	n/a	0.375	no	n/a	n/a
702.8476562	n/a	179929	largeTSmallH	correct	incongruent	0.45703	no	T	H
703.3046875	n/a	180046	responseLargeT	correct	n/a	0.45703	no	n/a	n/a
704.3671875	n/a	180318	largeHSmallH	correct	congruent	0.5	no	H	H
704.8671875	n/a	180446	responseLargeH	correct	n/a	0.5	no	n/a	n/a
705.9257812	n/a	180717	largeTSmallT	correct	congruent	0.37109	no	T	T
706.296875	n/a	180812	responseLargeT	correct	n/a	0.37109	no	n/a	n/a
707.3671875	n/a	181086	largeHSmallH	correct	congruent	0.35938	no	H	H
707.7265625	n/a	181178	responseLargeH	correct	n/a	0.35938	no	n/a	n/a
708.8046875	n/a	181454	largeHSmallH	correct	congruent	0.42969	no	H	H
709.234375	n/a	181564	responseLargeH	correct	n/a	0.42969	no	n/a	n/a
710.3007812	n/a	181837	largeTSmallH	correct	incongruent	0.41797	no	T	H
710.71875	n/a	181944	responseLargeT	correct	n/a	0.41797	no	n/a	n/a
711.7773438	n/a	182215	largeHSmallT	correct	incongruent	0.375	no	H	T
712.1523438	n/a	182311	responseLargeH	correct	n/a	0.375	no	n/a	n/a
713.21875	n/a	182584	largeTSmallH	correct	incongruent	0.37109	no	T	H
713.5898438	n/a	182679	responseLargeT	correct	n/a	0.37109	no	n/a	n/a
714.671875	n/a	182956	largeHSmallH	correct	congruent	0.42188	no	H	H
715.09375	n/a	183064	responseLargeH	correct	n/a	0.42188	no	n/a	n/a
716.1640625	n/a	183338	largeHSmallT	correct	incongruent	0.48047	no	H	T
716.6445312	n/a	183461	responseLargeH	correct	n/a	0.48047	no	n/a	n/a
717.7109375	n/a	183734	largeHSmallT	correct	incongruent	0.45312	no	H	T
718.1640625	n/a	183850	responseLargeH	correct	n/a	0.45312	no	n/a	n/a
719.2304688	n/a	184123	largeTSmallH	correct	incongruent	0.39844	no	T	H
719.6289062	n/a	184225	responseLargeT	correct	n/a	0.39844	no	n/a	n/a
720.6835938	n/a	184495	largeHSmallT	correct	incongruent	0.40625	no	H	T
721.0898438	n/a	184599	responseLargeH	correct	n/a	0.40625	no	n/a	n/a
722.1523438	n/a	184871	largeHSmallH	correct	congruent	0.46484	no	H	H
722.6171875	n/a	184990	responseLargeH	correct	n/a	0.46484	no	n/a	n/a
723.6835938	n/a	185263	largeTSmallT	correct	congruent	0.41016	no	T	T
724.09375	n/a	185368	responseLargeT	correct	n/a	0.41016	no	n/a	n/a
725.1640625	n/a	185642	largeHSmallH	correct	congruent	0.37109	no	H	H
725.5351562	n/a	185737	responseLargeH	correct	n/a	0.37109	no	n/a	n/a
726.6054688	n/a	186011	largeTSmallH	correct	incongruent	0.46484	no	T	H
727.0703125	n/a	186130	responseLargeT	correct	n/a	0.46484	no	n/a	n/a
728.1523438	n/a	186407	largeHSmallH	correct	congruent	0.36719	no	H	H
728.5195312	n/a	186501	responseLargeH	correct	n/a	0.36719	no	n/a	n/a
729.578125	n/a	186772	largeHSmallH	correct	congruent	0.5	no	H	H
730.078125	n/a	186900	responseLargeH	correct	n/a	0.5	no	n/a	n/a
731.140625	n/a	187172	largeTSmallT	correct	congruent	0.40625	no	T	T
731.546875	n/a	187276	responseLargeT	correct	n/a	0.40625	no	n/a	n/a
732.6054688	n/a	187547	largeHSmallT	correct	incongruent	0.35938	no	H	T
732.9648438	n/a	187639	responseLargeH	correct	n/a	0.35938	no	n/a	n/a
734.03125	n/a	187912	largeTSmallT	correct	congruent	0.38672	no	T	T
734.4179688	n/a	188011	responseLargeT	correct	n/a	0.38672	no	n/a	n/a
735.5	n/a	188288	largeHSmallT	correct	incongruent	0.37891	no	H	T
735.8789062	n/a	188385	responseLargeH	correct	n/a	0.37891	no	n/a	n/a
736.9375	n/a	188656	largeTSmallT	correct	congruent	0.375	no	T	T
737.3125	n/a	188752	responseLargeT	correct	n/a	0.375	no	n/a	n/a
738.3789062	n/a	189025	largeTSmallH	correct	incongruent	0.5	no	T	H
738.8789062	n/a	189153	responseLargeT	correct	n/a	0.5	no	n/a	n/a
739.9375	n/a	189424	largeHSmallH	correct	congruent	0.35938	no	H	H
740.296875	n/a	189516	responseLargeH	correct	n/a	0.35938	no	n/a	n/a
741.3515625	n/a	189786	largeHSmallH	correct	congruent	0.35938	no	H	H
741.7109375	n/a	189878	responseLargeH	correct	n/a	0.35938	no	n/a	n/a
742.7773438	n/a	190151	largeHSmallH	correct	congruent	0.33984	no	H	H
743.1171875	n/a	190238	responseLargeH	correct	n/a	0.33984	no	n/a	n/a
744.1796875	n/a	190510	largeTSmallH	correct	incongruent	0.41016	no	T	H
744.5898438	n/a	190615	responseLargeT	correct	n/a	0.41016	no	n/a	n/a
745.671875	n/a	190892	largeTSmallH	correct	incongruent	0.62891	no	T	H
746.3007812	n/a	191053	responseLargeT	correct	n/a	0.62891	no	n/a	n/a
747.3632812	n/a	191325	largeHSmallH	correct	congruent	0.36328	no	H	H
747.7265625	n/a	191418	responseLargeH	correct	n/a	0.36328	no	n/a	n/a
748.8046875	n/a	191694	largeHSmallT	correct	incongruent	0.44531	no	H	T
749.25	n/a	191808	responseLargeH	correct	n/a	0.44531	no	n/a	n/a
750.3125	n/a	192080	largeTSmallH	correct	incongruent	0.33203	no	T	H
750.6445312	n/a	192165	responseLargeT	correct	n/a	0.33203	no	n/a	n/a
751.7109375	n/a	192438	largeTSmallH	correct	incongruent	0.37891	no	T	H
752.0898438	n/a	192535	responseLargeT	correct	n/a	0.37891	no	n/a	n/a
753.1523438	n/a	192807	largeHSmallH	correct	congruent	0.39062	no	H	H
753.5429688	n/a	192907	responseLargeH	correct	n/a	0.39062	no	n/a	n/a
754.6171875	n/a	193182	largeTSmallT	correct	congruent	0.46484	no	T	T
755.0820312	n/a	193301	responseLargeT	correct	n/a	0.46484	no	n/a	n/a
756.1523438	n/a	193575	largeHSmallH	correct	congruent	0.42969	no	H	H
756.5820312	n/a	193685	responseLargeH	correct	n/a	0.42969	no	n/a	n/a
757.6445312	n/a	193957	largeHSmallT	correct	incongruent	0.33984	no	H	T
757.984375	n/a	194044	responseLargeH	correct	n/a	0.33984	no	n/a	n/a
759.0429688	n/a	194315	largeHSmallT	correct	incongruent	0.42188	no	H	T
759.4648438	n/a	194423	responseLargeH	correct	n/a	0.42188	no	n/a	n/a
760.5234375	n/a	194694	largeTSmallH	correct	incongruent	0.40625	no	T	H
760.9296875	n/a	194798	responseLargeT	correct	n/a	0.40625	no	n/a	n/a
761.9921875	n/a	195070	largeTSmallT	correct	congruent	0.40234	no	T	T
762.3945312	n/a	195173	responseLargeT	correct	n/a	0.40234	no	n/a	n/a
763.4570312	n/a	195445	largeTSmallT	correct	congruent	0.56641	no	T	T
764.0234375	n/a	195590	responseLargeT	correct	n/a	0.56641	no	n/a	n/a
765.0859375	n/a	195862	largeHSmallT	correct	incongruent	0.37109	no	H	T
765.4570312	n/a	195957	responseLargeH	correct	n/a	0.37109	no	n/a	n/a
766.5234375	n/a	196230	largeHSmallT	correct	incongruent	0.42188	no	H	T
766.9453125	n/a	196338	responseLargeH	correct	n/a	0.42188	no	n/a	n/a
768.0195312	n/a	196613	largeTSmallH	correct	incongruent	0.72266	no	T	H
768.7421875	n/a	196798	responseLargeT	correct	n/a	0.72266	no	n/a	n/a
769.8164062	n/a	197073	largeTSmallT	correct	congruent	0.71875	no	T	T
770.5351562	n/a	197257	responseLargeT	correct	n/a	0.71875	no	n/a	n/a
771.6054688	n/a	197531	largeTSmallT	correct	congruent	0.53516	no	T	T
772.140625	n/a	197668	responseLargeT	correct	n/a	0.53516	no	n/a	n/a
773.21875	n/a	197944	largeTSmallT	correct	congruent	0.70703	no	T	T
773.9257812	n/a	198125	responseLargeT	correct	n/a	0.70703	no	n/a	n/a
774.9921875	n/a	198398	largeHSmallH	correct	congruent	0.55078	no	H	H
775.5429688	n/a	198539	responseLargeH	correct	n/a	0.55078	no	n/a	n/a
776.6171875	n/a	198814	largeHSmallH	correct	congruent	0.44531	no	H	H
777.0625	n/a	198928	responseLargeH	correct	n/a	0.44531	no	n/a	n/a
778.125	n/a	199200	largeHSmallT	correct	incongruent	0.65625	no	H	T
778.78125	n/a	199368	responseLargeH	correct	n/a	0.65625	no	n/a	n/a
779.84375	n/a	199640	largeTSmallH	correct	incongruent	0.55859	no	T	H
780.4023438	n/a	199783	responseLargeT	correct	n/a	0.55859	no	n/a	n/a
781.4726562	n/a	200057	largeHSmallH	correct	congruent	1.0039	no	H	H
782.4765625	n/a	200314	responseLargeH	correct	n/a	1.0039	no	n/a	n/a
783.5390625	n/a	200586	largeTSmallH	correct	incongruent	0.46875	no	T	H
784.0078125	n/a	200706	responseLargeT	correct	n/a	0.46875	no	n/a	n/a
785.0703125	n/a	200978	largeTSmallH	correct	incongruent	0.62109	no	T	H
785.6914062	n/a	201137	responseLargeT	correct	n/a	0.62109	no	n/a	n/a
786.75	n/a	201408	largeHSmallT	correct	incongruent	0.54297	no	H	T
787.2929688	n/a	201547	responseLargeH	correct	n/a	0.54297	no	n/a	n/a
788.3632812	n/a	201821	largeTSmallH	correct	incongruent	0.52344	no	T	H
788.8867188	n/a	201955	responseLargeT	correct	n/a	0.52344	no	n/a	n/a
789.9492188	n/a	202227	largeHSmallT	correct	incongruent	0.37891	no	H	T
790.328125	n/a	202324	responseLargeH	correct	n/a	0.37891	no	n/a	n/a
791.4023438	n/a	202599	largeTSmallH	correct	incongruent	0.44922	no	T	H
791.8515625	n/a	202714	responseLargeT	correct	n/a	0.44922	no	n/a	n/a
792.9101562	n/a	202985	largeTSmallT	correct	congruent	0.47266	no	T	T
793.3828125	n/a	203106	responseLargeT	correct	n/a	0.47266	no	n/a	n/a
794.4453125	n/a	203378	largeHSmallT	correct	incongruent	0.35938	no	H	T
794.8046875	n/a	203470	responseLargeH	correct	n/a	0.35938	no	n/a	n/a
795.8710938	n/a	203743	largeTSmallH	correct	incongruent	0.51953	no	T	H
796.390625	n/a	203876	responseLargeT	correct	n/a	0.51953	no	n/a	n/a
797.4570312	n/a	204149	largeTSmallH	correct	incongruent	0.44141	no	T	H
797.8984375	n/a	204262	responseLargeT	correct	n/a	0.44141	no	n/a	n/a
798.9648438	n/a	204535	largeHSmallT	correct	incongruent	0.62891	no	H	T
799.59375	n/a	204696	responseLargeH	correct	n/a	0.62891	no	n/a	n/a
800.671875	n/a	204972	largeTSmallT	correct	congruent	0.65625	no	T	T
801.328125	n/a	205140	responseLargeT	correct	n/a	0.65625	no	n/a	n/a
802.4023438	n/a	205415	largeHSmallH	correct	congruent	0.41406	no	H	H
802.8164062	n/a	205521	responseLargeH	correct	n/a	0.41406	no	n/a	n/a
803.8828125	n/a	205794	largeHSmallT	correct	incongruent	0.51172	no	H	T
804.3945312	n/a	205925	responseLargeH	correct	n/a	0.51172	no	n/a	n/a
805.4570312	n/a	206197	largeTSmallT	correct	congruent	0.45312	no	T	T
805.9101562	n/a	206313	responseLargeT	correct	n/a	0.45312	no	n/a	n/a
806.9765625	n/a	206586	largeTSmallT	correct	congruent	0.53906	no	T	T
807.515625	n/a	206724	responseLargeT	correct	n/a	0.53906	no	n/a	n/a
808.578125	n/a	206996	largeHSmallH	correct	congruent	0.42188	no	H	H
809	n/a	207104	responseLargeH	correct	n/a	0.42188	no	n/a	n/a
810.0703125	n/a	207378	largeHSmallT	correct	incongruent	0.44141	no	H	T
810.5117188	n/a	207491	responseLargeH	correct	n/a	0.44141	no	n/a	n/a
811.578125	n/a	207764	largeHSmallH	correct	congruent	0.46484	no	H	H
812.0429688	n/a	207883	responseLargeH	correct	n/a	0.46484	no	n/a	n/a
813.109375	n/a	208156	largeHSmallH	correct	congruent	0.39453	no	H	H
813.5039062	n/a	208257	responseLargeH	correct	n/a	0.39453	no	n/a	n/a
814.578125	n/a	208532	largeHSmallH	correct	congruent	0.37891	no	H	H
814.9570312	n/a	208629	responseLargeH	correct	n/a	0.37891	no	n/a	n/a
816.015625	n/a	208900	largeHSmallH	correct	congruent	0.46484	no	H	H
816.4804688	n/a	209019	responseLargeH	correct	n/a	0.46484	no	n/a	n/a
817.5507812	n/a	209293	largeTSmallT	correct	congruent	0.67969	no	T	T
818.2304688	n/a	209467	responseLargeT	correct	n/a	0.67969	no	n/a	n/a
819.296875	n/a	209740	largeHSmallT	correct	incongruent	0.39062	no	H	T
819.6875	n/a	209840	responseLargeH	correct	n/a	0.39062	no	n/a	n/a
820.7617188	n/a	210115	largeHSmallH	correct	congruent	0.42578	no	H	H
821.1875	n/a	210224	responseLargeH	correct	n/a	0.42578	no	n/a	n/a
822.2578125	n/a	210498	largeTSmallT	correct	congruent	0.39844	no	T	T
822.65625	n/a	210600	responseLargeT	correct	n/a	0.39844	no	n/a	n/a
823.7226562	n/a	210873	largeTSmallH	correct	incongruent	0.55859	no	T	H
824.28125	n/a	211016	responseLargeT	correct	n/a	0.55859	no	n/a	n/a
825.3515625	n/a	211290	largeTSmallH	correct	incongruent	0.63281	no	T	H
825.984375	n/a	211452	responseLargeT	correct	n/a	0.63281	no	n/a	n/a
827.0429688	n/a	211723	largeTSmallT	correct	congruent	0.36719	no	T	T
827.4101562	n/a	211817	responseLargeT	correct	n/a	0.36719	no	n/a	n/a
828.484375	n/a	212092	largeHSmallH	correct	congruent	0.44531	no	H	H
828.9296875	n/a	212206	responseLargeH	correct	n/a	0.44531	no	n/a	n/a
830.0039062	n/a	212481	largeHSmallH	correct	congruent	0.39453	no	H	H
830.3984375	n/a	212582	responseLargeH	correct	n/a	0.39453	no	n/a	n/a
831.46875	n/a	212856	largeTSmallT	correct	congruent	0.44141	no	T	T
831.9101562	n/a	212969	responseLargeT	correct	n/a	0.44141	no	n/a	n/a
832.9765625	n/a	213242	largeHSmallT	correct	incongruent	0.37891	no	H	T
833.3554688	n/a	213339	responseLargeH	correct	n/a	0.37891	no	n/a	n/a
834.4296875	n/a	213614	largeTSmallT	correct	congruent	0.46094	no	T	T
834.890625	n/a	213732	responseLargeT	correct	n/a	0.46094	no	n/a	n/a
835.9609375	n/a	214006	largeHSmallH	correct	congruent	0.35938	no	H	H
836.3203125	n/a	214098	responseLargeH	correct	n/a	0.35938	no	n/a	n/a
837.390625	n/a	214372	largeTSmallT	correct	congruent	0.46484	no	T	T
837.8554688	n/a	214491	responseLargeT	correct	n/a	0.46484	no	n/a	n/a
838.921875	n/a	214764	largeHSmallH	correct	congruent	0.39062	no	H	H
839.3125	n/a	214864	responseLargeH	correct	n/a	0.39062	no	n/a	n/a
840.375	n/a	215136	largeHSmallT	error	incongruent	0.375	no	H	T
840.75	n/a	215232	responseLargeT	error	n/a	0.375	no	n/a	n/a
841.8164062	n/a	215505	largeHSmallH	correct	congruent	0.39844	no	H	H
842.2148438	n/a	215607	responseLargeH	correct	n/a	0.39844	no	n/a	n/a
843.2695312	n/a	215877	largeTSmallH	correct	incongruent	0.46094	no	T	H
843.7304688	n/a	215995	responseLargeT	correct	n/a	0.46094	no	n/a	n/a
844.8046875	n/a	216270	largeTSmallH	correct	incongruent	0.42969	no	T	H
845.234375	n/a	216380	responseLargeT	correct	n/a	0.42969	no	n/a	n/a
846.296875	n/a	216652	largeTSmallH	correct	incongruent	0.60156	no	T	H
846.8984375	n/a	216806	responseLargeT	correct	n/a	0.60156	no	n/a	n/a
847.9765625	n/a	217082	largeHSmallH	correct	congruent	0.37891	no	H	H
848.3554688	n/a	217179	responseLargeH	correct	n/a	0.37891	no	n/a	n/a
849.4140625	n/a	217450	largeTSmallT	correct	congruent	0.57812	no	T	T
849.9921875	n/a	217598	responseLargeT	correct	n/a	0.57812	no	n/a	n/a
851.0546875	n/a	217870	largeTSmallT	correct	congruent	0.52734	no	T	T
851.5820312	n/a	218005	responseLargeT	correct	n/a	0.52734	no	n/a	n/a
852.640625	n/a	218276	largeHSmallT	correct	incongruent	2.4336	yes	H	T
855.0742188	n/a	218899	responseLargeH	correct	n/a	2.4336	yes	n/a	n/a
856.1484375	n/a	219174	largeTSmallT	correct	congruent	0.37109	no	T	T
856.5195312	n/a	219269	responseLargeT	correct	n/a	0.37109	no	n/a	n/a
857.5742188	n/a	219539	largeHSmallH	correct	congruent	0.54297	no	H	H
858.1171875	n/a	219678	responseLargeH	correct	n/a	0.54297	no	n/a	n/a
859.1875	n/a	219952	largeHSmallT	correct	incongruent	0.40234	no	H	T
859.5898438	n/a	220055	responseLargeH	correct	n/a	0.40234	no	n/a	n/a
860.65625	n/a	220328	largeTSmallH	correct	incongruent	0.48438	no	T	H
861.140625	n/a	220452	responseLargeT	correct	n/a	0.48438	no	n/a	n/a
862.2148438	n/a	220727	largeHSmallH	correct	congruent	0.59375	no	H	H
862.8085938	n/a	220879	responseLargeH	correct	n/a	0.59375	no	n/a	n/a
863.8828125	n/a	221154	largeTSmallT	correct	congruent	0.57422	no	T	T
864.4570312	n/a	221301	responseLargeT	correct	n/a	0.57422	no	n/a	n/a
865.5234375	n/a	221574	largeHSmallT	correct	incongruent	0.38672	no	H	T
865.9101562	n/a	221673	responseLargeH	correct	n/a	0.38672	no	n/a	n/a
866.9765625	n/a	221946	largeHSmallT	correct	incongruent	0.46875	no	H	T
867.4453125	n/a	222066	responseLargeH	correct	n/a	0.46875	no	n/a	n/a
868.5078125	n/a	222338	largeHSmallH	correct	congruent	0.51172	no	H	H
869.0195312	n/a	222469	responseLargeH	correct	n/a	0.51172	no	n/a	n/a
870.09375	n/a	222744	largeTSmallT	correct	congruent	0.53125	no	T	T
870.625	n/a	222880	responseLargeT	correct	n/a	0.53125	no	n/a	n/a
871.6953125	n/a	223154	largeTSmallH	correct	incongruent	0.45312	no	T	H
872.1484375	n/a	223270	responseLargeT	correct	n/a	0.45312	no	n/a	n/a
873.2148438	n/a	223543	largeTSmallH	correct	incongruent	0.46484	no	T	H
873.6796875	n/a	223662	responseLargeT	correct	n/a	0.46484	no	n/a	n/a
874.734375	n/a	223932	largeHSmallH	correct	congruent	0.63672	no	H	H
875.3710938	n/a	224095	responseLargeH	correct	n/a	0.63672	no	n/a	n/a
876.4414062	n/a	224369	largeTSmallH	correct	incongruent	0.67188	no	T	H
877.1132812	n/a	224541	responseLargeT	correct	n/a	0.67188	no	n/a	n/a
878.1875	n/a	224816	largeTSmallH	correct	incongruent	0.47656	no	T	H
878.6640625	n/a	224938	responseLargeT	correct	n/a	0.47656	no	n/a	n/a
879.734375	n/a	225212	largeTSmallT	correct	congruent	0.58203	no	T	T
880.3164062	n/a	225361	responseLargeT	correct	n/a	0.58203	no	n/a	n/a
881.3867188	n/a	225635	largeTSmallT	correct	congruent	0.59375	no	T	T
881.9804688	n/a	225787	responseLargeT	correct	n/a	0.59375	no	n/a	n/a
883.0546875	n/a	226062	largeTSmallH	correct	incongruent	0.39453	no	T	H
883.4492188	n/a	226163	responseLargeT	correct	n/a	0.39453	no	n/a	n/a
884.5234375	n/a	226438	largeHSmallH	correct	congruent	0.57422	no	H	H
885.0976562	n/a	226585	responseLargeH	correct	n/a	0.57422	no	n/a	n/a
886.1601562	n/a	226857	largeHSmallT	correct	incongruent	0.41406	no	H	T
886.5742188	n/a	226963	responseLargeH	correct	n/a	0.41406	no	n/a	n/a
887.640625	n/a	227236	largeHSmallT	correct	incongruent	0.40234	no	H	T
888.0429688	n/a	227339	responseLargeH	correct	n/a	0.40234	no	n/a	n/a
889.109375	n/a	227612	largeTSmallH	correct	incongruent	0.49609	no	T	H
889.6054688	n/a	227739	responseLargeT	correct	n/a	0.49609	no	n/a	n/a
890.6679688	n/a	228011	largeHSmallH	correct	congruent	0.39062	no	H	H
891.0585938	n/a	228111	responseLargeH	correct	n/a	0.39062	no	n/a	n/a
892.1367188	n/a	228387	largeTSmallH	error	incongruent	0.35547	no	T	H
892.4921875	n/a	228478	responseLargeH	error	n/a	0.35547	no	n/a	n/a
893.5625	n/a	228752	largeHSmallH	correct	congruent	0.43359	no	H	H
893.9960938	n/a	228863	responseLargeH	correct	n/a	0.43359	no	n/a	n/a
895.0703125	n/a	229138	largeHSmallT	correct	incongruent	0.48828	no	H	T
895.5585938	n/a	229263	responseLargeH	correct	n/a	0.48828	no	n/a	n/a
896.6289062	n/a	229537	largeTSmallT	correct	congruent	0.4375	no	T	T
897.0664062	n/a	229649	responseLargeT	correct	n/a	0.4375	no	n/a	n/a
898.1367188	n/a	229923	largeHSmallH	correct	congruent	0.37109	no	H	H
898.5078125	n/a	230018	responseLargeH	correct	n/a	0.37109	no	n/a	n/a
899.5742188	n/a	230291	largeTSmallH	correct	incongruent	0.47266	no	T	H
900.046875	n/a	230412	responseLargeT	correct	n/a	0.47266	no	n/a	n/a
901.1210938	n/a	230687	largeTSmallT	correct	congruent	0.48828	no	T	T
901.609375	n/a	230812	responseLargeT	correct	n/a	0.48828	no	n/a	n/a
902.6796875	n/a	231086	largeTSmallT	correct	congruent	0.47656	no	T	T
903.15625	n/a	231208	responseLargeT	correct	n/a	0.47656	no	n/a	n/a
904.2265625	n/a	231482	largeTSmallH	correct	incongruent	0.53516	no	T	H
904.7617188	n/a	231619	responseLargeT	correct	n/a	0.53516	no	n/a	n/a
905.828125	n/a	231892	largeTSmallT	correct	congruent	0.42578	no	T	T
906.2539062	n/a	232001	responseLargeT	correct	n/a	0.42578	no	n/a	n/a
907.3203125	n/a	232274	largeHSmallT	correct	incongruent	0.5625	no	H	T
907.8828125	n/a	232418	responseLargeH	correct	n/a	0.5625	no	n/a	n/a
908.9492188	n/a	232691	largeHSmallH	correct	congruent	0.45312	no	H	H
909.4023438	n/a	232807	responseLargeH	correct	n/a	0.45312	no	n/a	n/a
910.4804688	n/a	233083	largeHSmallT	correct	incongruent	0.42188	no	H	T
910.9023438	n/a	233191	responseLargeH	correct	n/a	0.42188	no	n/a	n/a
911.9726562	n/a	233465	largeTSmallH	correct	incongruent	0.42969	no	T	H
912.4023438	n/a	233575	responseLargeT	correct	n/a	0.42969	no	n/a	n/a
913.46875	n/a	233848	largeHSmallT	correct	incongruent	0.37891	no	H	T
913.8476562	n/a	233945	responseLargeH	correct	n/a	0.37891	no	n/a	n/a
914.90625	n/a	234216	largeHSmallT	correct	incongruent	0.38281	no	H	T
915.2890625	n/a	234314	responseLargeH	correct	n/a	0.38281	no	n/a	n/a
916.359375	n/a	234588	largeHSmallT	correct	incongruent	0.34766	no	H	T
916.7070312	n/a	234677	responseLargeH	correct	n/a	0.34766	no	n/a	n/a
917.7734375	n/a	234950	largeTSmallH	correct	incongruent	0.49609	no	T	H
918.2695312	n/a	235077	responseLargeT	correct	n/a	0.49609	no	n/a	n/a
919.3359375	n/a	235350	largeTSmallT	correct	congruent	0.48047	no	T	T
919.8164062	n/a	235473	responseLargeT	correct	n/a	0.48047	no	n/a	n/a
920.8828125	n/a	235746	largeHSmallT	correct	incongruent	0.41406	no	H	T
921.296875	n/a	235852	responseLargeH	correct	n/a	0.41406	no	n/a	n/a
922.359375	n/a	236124	largeHSmallH	correct	congruent	0.37891	no	H	H
922.7382812	n/a	236221	responseLargeH	correct	n/a	0.37891	no	n/a	n/a
923.8007812	n/a	236493	largeHSmallT	correct	incongruent	0.39062	no	H	T
924.1914062	n/a	236593	responseLargeH	correct	n/a	0.39062	no	n/a	n/a
925.2539062	n/a	236865	largeHSmallT	correct	incongruent	0.54688	no	H	T
925.8007812	n/a	237005	responseLargeH	correct	n/a	0.54688	no	n/a	n/a
926.8554688	n/a	237275	largeTSmallT	correct	congruent	0.41797	no	T	T
927.2734375	n/a	237382	responseLargeT	correct	n/a	0.41797	no	n/a	n/a
928.3359375	n/a	237654	largeHSmallT	correct	incongruent	0.43359	no	H	T
928.7695312	n/a	237765	responseLargeH	correct	n/a	0.43359	no	n/a	n/a
929.8398438	n/a	238039	largeTSmallH	correct	incongruent	0.35938	no	T	H
930.1992188	n/a	238131	responseLargeT	correct	n/a	0.35938	no	n/a	n/a
931.28125	n/a	238408	largeTSmallH	correct	incongruent	0.48828	no	T	H
931.7695312	n/a	238533	responseLargeT	correct	n/a	0.48828	no	n/a	n/a
932.828125	n/a	238804	largeTSmallH	correct	incongruent	0.45703	no	T	H
933.2851562	n/a	238921	responseLargeT	correct	n/a	0.45703	no	n/a	n/a
934.3476562	n/a	239193	largeHSmallT	correct	incongruent	0.39453	no	H	T
934.7421875	n/a	239294	responseLargeH	correct	n/a	0.39453	no	n/a	n/a
935.8125	n/a	239568	largeHSmallH	correct	congruent	0.53906	no	H	H
936.3515625	n/a	239706	responseLargeH	correct	n/a	0.53906	no	n/a	n/a
937.4140625	n/a	239978	largeTSmallT	correct	congruent	0.37891	no	T	T
937.7929688	n/a	240075	responseLargeT	correct	n/a	0.37891	no	n/a	n/a
938.8554688	n/a	240347	largeHSmallH	correct	congruent	0.5	no	H	H
939.3554688	n/a	240475	responseLargeH	correct	n/a	0.5	no	n/a	n/a
940.4140625	n/a	240746	largeTSmallH	correct	incongruent	0.55859	no	T	H
940.9726562	n/a	240889	responseLargeT	correct	n/a	0.55859	no	n/a	n/a
942.0390625	n/a	241162	largeHSmallT	correct	incongruent	0.52344	no	H	T
942.5625	n/a	241296	responseLargeH	correct	n/a	0.52344	no	n/a	n/a
943.6289062	n/a	241569	largeTSmallT	correct	congruent	0.625	no	T	T
944.2539062	n/a	241729	responseLargeT	correct	n/a	0.625	no	n/a	n/a
945.3085938	n/a	241999	largeTSmallT	correct	congruent	0.51172	no	T	T
945.8203125	n/a	242130	responseLargeT	correct	n/a	0.51172	no	n/a	n/a
946.8945312	n/a	242405	largeTSmallH	correct	incongruent	0.54688	no	T	H
947.4414062	n/a	242545	responseLargeT	correct	n/a	0.54688	no	n/a	n/a
948.5078125	n/a	242818	largeHSmallH	correct	congruent	0.41406	no	H	H
948.921875	n/a	242924	responseLargeH	correct	n/a	0.41406	no	n/a	n/a
950	n/a	243200	largeTSmallH	correct	incongruent	0.52734	no	T	H
950.5273438	n/a	243335	responseLargeT	correct	n/a	0.52734	no	n/a	n/a
951.6015625	n/a	243610	largeHSmallT	correct	incongruent	0.39062	no	H	T
951.9921875	n/a	243710	responseLargeH	correct	n/a	0.39062	no	n/a	n/a
953.0664062	n/a	243985	largeTSmallT	correct	congruent	0.78125	no	T	T
953.8476562	n/a	244185	responseLargeT	correct	n/a	0.78125	no	n/a	n/a
954.921875	n/a	244460	largeTSmallT	correct	congruent	0.47656	no	T	T
955.3984375	n/a	244582	responseLargeT	correct	n/a	0.47656	no	n/a	n/a
956.46875	n/a	244856	largeTSmallH	correct	incongruent	0.57031	no	T	H
957.0390625	n/a	245002	responseLargeT	correct	n/a	0.57031	no	n/a	n/a
958.1054688	n/a	245275	largeTSmallH	correct	incongruent	0.66016	no	T	H
958.765625	n/a	245444	responseLargeT	correct	n/a	0.66016	no	n/a	n/a
959.8398438	n/a	245719	largeTSmallT	correct	congruent	0.55859	no	T	T
960.3984375	n/a	245862	responseLargeT	correct	n/a	0.55859	no	n/a	n/a
961.453125	n/a	246132	largeHSmallH	correct	congruent	0.71875	no	H	H
962.171875	n/a	246316	responseLargeH	correct	n/a	0.71875	no	n/a	n/a
963.2382812	n/a	246589	largeTSmallH	correct	incongruent	0.60547	no	T	H
963.84375	n/a	246744	responseLargeT	correct	n/a	0.60547	no	n/a	n/a
964.90625	n/a	247016	largeTSmallT	correct	congruent	0.43359	no	T	T
965.3398438	n/a	247127	responseLargeT	correct	n/a	0.43359	no	n/a	n/a
966.3984375	n/a	247398	largeTSmallT	correct	congruent	0.42969	no	T	T
966.828125	n/a	247508	responseLargeT	correct	n/a	0.42969	no	n/a	n/a
967.90625	n/a	247784	largeTSmallH	correct	incongruent	0.47266	no	T	H
968.3789062	n/a	247905	responseLargeT	correct	n/a	0.47266	no	n/a	n/a
969.4414062	n/a	248177	largeTSmallT	correct	congruent	0.41797	no	T	T
969.859375	n/a	248284	responseLargeT	correct	n/a	0.41797	no	n/a	n/a
970.9335938	n/a	248559	largeTSmallT	correct	congruent	0.39844	no	T	T
971.3320312	n/a	248661	responseLargeT	correct	n/a	0.39844	no	n/a	n/a
972.3984375	n/a	248934	largeHSmallT	correct	incongruent	0.42578	no	H	T
972.8242188	n/a	249043	responseLargeH	correct	n/a	0.42578	no	n/a	n/a
973.8945312	n/a	249317	largeTSmallT	correct	congruent	0.52344	no	T	T
974.4179688	n/a	249451	responseLargeT	correct	n/a	0.52344	no	n/a	n/a
975.4804688	n/a	249723	largeHSmallH	correct	congruent	0.40234	no	H	H
975.8828125	n/a	249826	responseLargeH	correct	n/a	0.40234	no	n/a	n/a
976.9453125	n/a	250098	largeHSmallH	correct	congruent	0.41406	no	H	H
977.359375	n/a	250204	responseLargeH	correct	n/a	0.41406	no	n/a	n/a
978.4257812	n/a	250477	largeTSmallH	correct	incongruent	0.47266	no	T	H
978.8984375	n/a	250598	responseLargeT	correct	n/a	0.47266	no	n/a	n/a
979.9609375	n/a	250870	largeTSmallH	correct	incongruent	0.40625	no	T	H
980.3671875	n/a	250974	responseLargeT	correct	n/a	0.40625	no	n/a	n/a
981.4257812	n/a	251245	largeTSmallH	correct	incongruent	0.38281	no	T	H
981.8085938	n/a	251343	responseLargeT	correct	n/a	0.38281	no	n/a	n/a
982.8789062	n/a	251617	largeHSmallH	correct	congruent	0.48828	no	H	H
983.3671875	n/a	251742	responseLargeH	correct	n/a	0.48828	no	n/a	n/a
992.71875	n/a	254136	largeTSmallT	correct	congruent	0.90625	no	T	T
993.625	n/a	254368	responseSmallT	correct	n/a	0.90625	no	n/a	n/a
994.6914062	n/a	254641	largeHSmallH	correct	congruent	0.38672	no	H	H
995.078125	n/a	254740	responseSmallH	correct	n/a	0.38672	no	n/a	n/a
996.1328125	n/a	255010	largeTSmallH	correct	incongruent	0.42188	no	T	H
996.5546875	n/a	255118	responseSmallH	correct	n/a	0.42188	no	n/a	n/a
997.625	n/a	255392	largeHSmallH	correct	congruent	0.42578	no	H	H
998.0507812	n/a	255501	responseSmallH	correct	n/a	0.42578	no	n/a	n/a
999.1210938	n/a	255775	largeTSmallT	correct	congruent	0.46875	no	T	T
999.5898438	n/a	255895	responseSmallT	correct	n/a	0.46875	no	n/a	n/a
1000.664062	n/a	256170	largeHSmallT	correct	incongruent	0.51562	no	H	T
1001.179688	n/a	256302	responseSmallT	correct	n/a	0.51562	no	n/a	n/a
1002.253906	n/a	256577	largeTSmallT	correct	congruent	0.67188	no	T	T
1002.925781	n/a	256749	responseSmallT	correct	n/a	0.67188	no	n/a	n/a
1004	n/a	257024	largeTSmallT	correct	congruent	0.42188	no	T	T
1004.421875	n/a	257132	responseSmallT	correct	n/a	0.42188	no	n/a	n/a
1005.480469	n/a	257403	largeHSmallH	correct	congruent	0.63281	no	H	H
1006.113281	n/a	257565	responseSmallH	correct	n/a	0.63281	no	n/a	n/a
1007.1875	n/a	257840	largeTSmallT	correct	congruent	0.51953	no	T	T
1007.707031	n/a	257973	responseSmallT	correct	n/a	0.51953	no	n/a	n/a
1008.773438	n/a	258246	largeHSmallT	error	incongruent	0.46094	no	H	T
1009.234375	n/a	258364	responseSmallH	error	n/a	0.46094	no	n/a	n/a
1010.304688	n/a	258638	largeHSmallH	correct	congruent	0.67969	no	H	H
1010.984375	n/a	258812	responseSmallH	correct	n/a	0.67969	no	n/a	n/a
1012.050781	n/a	259085	largeTSmallH	correct	incongruent	0.59375	no	T	H
1012.644531	n/a	259237	responseSmallH	correct	n/a	0.59375	no	n/a	n/a
1013.707031	n/a	259509	largeTSmallH	correct	incongruent	0.46484	no	T	H
1014.171875	n/a	259628	responseSmallH	correct	n/a	0.46484	no	n/a	n/a
1015.226562	n/a	259898	largeHSmallH	correct	congruent	0.53906	no	H	H
1015.765625	n/a	260036	responseSmallH	correct	n/a	0.53906	no	n/a	n/a
1016.824219	n/a	260307	largeHSmallT	correct	incongruent	0.52734	no	H	T
1017.351562	n/a	260442	responseSmallT	correct	n/a	0.52734	no	n/a	n/a
1018.414062	n/a	260714	largeTSmallT	correct	congruent	0.49609	no	T	T
1018.910156	n/a	260841	responseSmallT	correct	n/a	0.49609	no	n/a	n/a
1019.972656	n/a	261113	largeTSmallH	correct	incongruent	0.48438	no	T	H
1020.457031	n/a	261237	responseSmallH	correct	n/a	0.48438	no	n/a	n/a
1021.519531	n/a	261509	largeHSmallT	correct	incongruent	0.82031	no	H	T
1022.339844	n/a	261719	responseSmallT	correct	n/a	0.82031	no	n/a	n/a
1023.410156	n/a	261993	largeHSmallT	correct	incongruent	0.5625	no	H	T
1023.972656	n/a	262137	responseSmallT	correct	n/a	0.5625	no	n/a	n/a
1025.050781	n/a	262413	largeTSmallT	correct	congruent	0.49219	no	T	T
1025.542969	n/a	262539	responseSmallT	correct	n/a	0.49219	no	n/a	n/a
1026.597656	n/a	262809	largeHSmallT	correct	incongruent	0.46094	no	H	T
1027.058594	n/a	262927	responseSmallT	correct	n/a	0.46094	no	n/a	n/a
1028.117188	n/a	263198	largeHSmallH	correct	congruent	0.48047	no	H	H
1028.597656	n/a	263321	responseSmallH	correct	n/a	0.48047	no	n/a	n/a
1029.664062	n/a	263594	largeHSmallT	correct	incongruent	0.57422	no	H	T
1030.238281	n/a	263741	responseSmallT	correct	n/a	0.57422	no	n/a	n/a
1031.304688	n/a	264014	largeHSmallT	correct	incongruent	0.52344	no	H	T
1031.828125	n/a	264148	responseSmallT	correct	n/a	0.52344	no	n/a	n/a
1032.890625	n/a	264420	largeHSmallT	correct	incongruent	0.40625	no	H	T
1033.296875	n/a	264524	responseSmallT	correct	n/a	0.40625	no	n/a	n/a
1034.359375	n/a	264796	largeTSmallH	correct	incongruent	0.64062	no	T	H
1035	n/a	264960	responseSmallH	correct	n/a	0.64062	no	n/a	n/a
1036.050781	n/a	265229	largeTSmallT	correct	congruent	1.1016	no	T	T
1037.152344	n/a	265511	responseSmallT	correct	n/a	1.1016	no	n/a	n/a
1038.226562	n/a	265786	largeHSmallT	correct	incongruent	0.45312	no	H	T
1038.679688	n/a	265902	responseSmallT	correct	n/a	0.45312	no	n/a	n/a
1039.746094	n/a	266175	largeTSmallT	correct	congruent	0.43359	no	T	T
1040.179688	n/a	266286	responseSmallT	correct	n/a	0.43359	no	n/a	n/a
1041.238281	n/a	266557	largeTSmallH	correct	incongruent	0.51172	no	T	H
1041.75	n/a	266688	responseSmallH	correct	n/a	0.51172	no	n/a	n/a
1042.8125	n/a	266960	largeTSmallH	correct	incongruent	0.46484	no	T	H
1043.277344	n/a	267079	responseSmallH	correct	n/a	0.46484	no	n/a	n/a
1044.34375	n/a	267352	largeTSmallT	correct	congruent	0.57422	no	T	T
1044.917969	n/a	267499	responseSmallT	correct	n/a	0.57422	no	n/a	n/a
1045.984375	n/a	267772	largeTSmallH	correct	incongruent	0.63281	no	T	H
1046.617188	n/a	267934	responseSmallH	correct	n/a	0.63281	no	n/a	n/a
1047.679688	n/a	268206	largeHSmallH	n/a	congruent	n/a	n/a	H	H
1095.25	n/a	280384	largeTSmallH	n/a	incongruent	n/a	n/a	T	H
1096.449219	n/a	280691	largeHSmallH	n/a	congruent	n/a	n/a	H	H
1100.664062	n/a	281770	largeHSmallT	error	incongruent	12.3008	yes	H	T
1112.964844	n/a	284919	responseSmallH	error	n/a	12.3008	yes	n/a	n/a
1114.023438	n/a	285190	largeHSmallT	correct	incongruent	5.6094	yes	H	T
1119.632812	n/a	286626	responseSmallT	correct	n/a	5.6094	yes	n/a	n/a
1120.703125	n/a	286900	largeHSmallT	correct	incongruent	0.53906	no	H	T
1121.242188	n/a	287038	responseSmallT	correct	n/a	0.53906	no	n/a	n/a
1122.316406	n/a	287313	largeTSmallH	correct	incongruent	0.45703	no	T	H
1122.773438	n/a	287430	responseSmallH	correct	n/a	0.45703	no	n/a	n/a
1123.851562	n/a	287706	largeTSmallT	correct	congruent	0.48828	no	T	T
1124.339844	n/a	287831	responseSmallT	correct	n/a	0.48828	no	n/a	n/a
1125.398438	n/a	288102	largeHSmallH	correct	congruent	0.53125	no	H	H
1125.929688	n/a	288238	responseSmallH	correct	n/a	0.53125	no	n/a	n/a
1126.996094	n/a	288511	largeTSmallH	correct	incongruent	0.46875	no	T	H
1127.464844	n/a	288631	responseSmallH	correct	n/a	0.46875	no	n/a	n/a
1128.542969	n/a	288907	largeHSmallH	correct	congruent	0.46094	no	H	H
1129.003906	n/a	289025	responseSmallH	correct	n/a	0.46094	no	n/a	n/a
1130.0625	n/a	289296	largeTSmallH	correct	incongruent	0.86719	no	T	H
1130.929688	n/a	289518	responseSmallH	correct	n/a	0.86719	no	n/a	n/a
1131.996094	n/a	289791	largeHSmallH	correct	congruent	0.44141	no	H	H
1132.4375	n/a	289904	responseSmallH	correct	n/a	0.44141	no	n/a	n/a
1133.488281	n/a	290173	largeTSmallT	correct	congruent	0.41797	no	T	T
1133.90625	n/a	290280	responseSmallT	correct	n/a	0.41797	no	n/a	n/a
1134.984375	n/a	290556	largeHSmallT	correct	incongruent	0.49219	no	H	T
1135.476562	n/a	290682	responseSmallT	correct	n/a	0.49219	no	n/a	n/a
1136.542969	n/a	290955	largeTSmallT	correct	congruent	0.48438	no	T	T
1137.027344	n/a	291079	responseSmallT	correct	n/a	0.48438	no	n/a	n/a
1138.101562	n/a	291354	largeTSmallT	correct	congruent	0.48047	no	T	T
1138.582031	n/a	291477	responseSmallT	correct	n/a	0.48047	no	n/a	n/a
1139.648438	n/a	291750	largeHSmallT	correct	incongruent	0.5	no	H	T
1140.148438	n/a	291878	responseSmallT	correct	n/a	0.5	no	n/a	n/a
1141.222656	n/a	292153	largeHSmallT	correct	incongruent	0.48828	no	H	T
1141.710938	n/a	292278	responseSmallT	correct	n/a	0.48828	no	n/a	n/a
1142.78125	n/a	292552	largeTSmallT	correct	congruent	0.44922	no	T	T
1143.230469	n/a	292667	responseSmallT	correct	n/a	0.44922	no	n/a	n/a
1144.289062	n/a	292938	largeTSmallH	correct	incongruent	0.47266	no	T	H
1144.761719	n/a	293059	responseSmallH	correct	n/a	0.47266	no	n/a	n/a
1145.835938	n/a	293334	largeHSmallH	correct	congruent	0.48047	no	H	H
1146.316406	n/a	293457	responseSmallH	correct	n/a	0.48047	no	n/a	n/a
1147.382812	n/a	293730	largeHSmallH	correct	congruent	0.47266	no	H	H
1147.855469	n/a	293851	responseSmallH	correct	n/a	0.47266	no	n/a	n/a
1148.929688	n/a	294126	largeTSmallT	correct	congruent	0.70703	no	T	T
1149.636719	n/a	294307	responseSmallT	correct	n/a	0.70703	no	n/a	n/a
1150.703125	n/a	294580	largeHSmallH	correct	congruent	0.38281	no	H	H
1151.085938	n/a	294678	responseSmallH	correct	n/a	0.38281	no	n/a	n/a
1152.15625	n/a	294952	largeTSmallT	correct	congruent	0.42578	no	T	T
1152.582031	n/a	295061	responseSmallT	correct	n/a	0.42578	no	n/a	n/a
1153.648438	n/a	295334	largeTSmallH	correct	incongruent	0.31641	no	T	H
1153.964844	n/a	295415	responseSmallH	correct	n/a	0.31641	no	n/a	n/a
1155.023438	n/a	295686	largeHSmallH	correct	congruent	0.35547	no	H	H
1155.378906	n/a	295777	responseSmallH	correct	n/a	0.35547	no	n/a	n/a
1156.449219	n/a	296051	largeHSmallT	correct	incongruent	0.51562	no	H	T
1156.964844	n/a	296183	responseSmallT	correct	n/a	0.51562	no	n/a	n/a
1158.035156	n/a	296457	largeTSmallH	correct	incongruent	0.36328	no	T	H
1158.398438	n/a	296550	responseSmallH	correct	n/a	0.36328	no	n/a	n/a
1159.476562	n/a	296826	largeHSmallH	correct	congruent	0.36328	no	H	H
1159.839844	n/a	296919	responseSmallH	correct	n/a	0.36328	no	n/a	n/a
1160.902344	n/a	297191	largeTSmallH	correct	incongruent	0.42578	no	T	H
1161.328125	n/a	297300	responseSmallH	correct	n/a	0.42578	no	n/a	n/a
1162.382812	n/a	297570	largeTSmallH	correct	incongruent	0.42969	no	T	H
1162.8125	n/a	297680	responseSmallH	correct	n/a	0.42969	no	n/a	n/a
1163.890625	n/a	297956	largeHSmallH	correct	congruent	0.41797	no	H	H
1164.308594	n/a	298063	responseSmallH	correct	n/a	0.41797	no	n/a	n/a
1165.371094	n/a	298335	largeTSmallH	correct	incongruent	0.38672	no	T	H
1165.757812	n/a	298434	responseSmallH	correct	n/a	0.38672	no	n/a	n/a
1166.824219	n/a	298707	largeTSmallH	correct	incongruent	0.45312	no	T	H
1167.277344	n/a	298823	responseSmallH	correct	n/a	0.45312	no	n/a	n/a
1168.355469	n/a	299099	largeTSmallH	correct	incongruent	0.42969	no	T	H
1168.785156	n/a	299209	responseSmallH	correct	n/a	0.42969	no	n/a	n/a
1169.847656	n/a	299481	largeHSmallH	correct	congruent	0.42188	no	H	H
1170.269531	n/a	299589	responseSmallH	correct	n/a	0.42188	no	n/a	n/a
1171.34375	n/a	299864	largeHSmallH	correct	congruent	0.41016	no	H	H
1171.753906	n/a	299969	responseSmallH	correct	n/a	0.41016	no	n/a	n/a
1172.824219	n/a	300243	largeHSmallT	correct	incongruent	0.47656	no	H	T
1173.300781	n/a	300365	responseSmallT	correct	n/a	0.47656	no	n/a	n/a
1174.367188	n/a	300638	largeTSmallT	correct	congruent	0.50781	no	T	T
1174.875	n/a	300768	responseSmallT	correct	n/a	0.50781	no	n/a	n/a
1175.941406	n/a	301041	largeHSmallT	correct	incongruent	0.53906	no	H	T
1176.480469	n/a	301179	responseSmallT	correct	n/a	0.53906	no	n/a	n/a
1177.558594	n/a	301455	largeTSmallH	correct	incongruent	0.35547	no	T	H
1177.914062	n/a	301546	responseSmallH	correct	n/a	0.35547	no	n/a	n/a
1178.980469	n/a	301819	largeTSmallT	correct	congruent	0.48047	no	T	T
1179.460938	n/a	301942	responseSmallT	correct	n/a	0.48047	no	n/a	n/a
1180.527344	n/a	302215	largeHSmallH	correct	congruent	0.45703	no	H	H
1180.984375	n/a	302332	responseSmallH	correct	n/a	0.45703	no	n/a	n/a
1182.0625	n/a	302608	largeHSmallH	correct	congruent	0.41016	no	H	H
1182.472656	n/a	302713	responseSmallH	correct	n/a	0.41016	no	n/a	n/a
1183.542969	n/a	302987	largeTSmallH	correct	incongruent	0.53906	no	T	H
1184.082031	n/a	303125	responseSmallH	correct	n/a	0.53906	no	n/a	n/a
1185.140625	n/a	303396	largeTSmallT	correct	congruent	0.51953	no	T	T
1185.660156	n/a	303529	responseSmallT	correct	n/a	0.51953	no	n/a	n/a
1186.730469	n/a	303803	largeHSmallT	correct	incongruent	0.60547	no	H	T
1187.335938	n/a	303958	responseSmallT	correct	n/a	0.60547	no	n/a	n/a
1188.410156	n/a	304233	largeHSmallH	correct	congruent	0.40625	no	H	H
1188.816406	n/a	304337	responseSmallH	correct	n/a	0.40625	no	n/a	n/a
1189.886719	n/a	304611	largeHSmallT	correct	incongruent	0.52344	no	H	T
1190.410156	n/a	304745	responseSmallT	correct	n/a	0.52344	no	n/a	n/a
1191.488281	n/a	305021	largeHSmallH	correct	congruent	0.48047	no	H	H
1191.96875	n/a	305144	responseSmallH	correct	n/a	0.48047	no	n/a	n/a
1193.046875	n/a	305420	largeTSmallT	correct	congruent	0.47656	no	T	T
1193.523438	n/a	305542	responseSmallT	correct	n/a	0.47656	no	n/a	n/a
1194.582031	n/a	305813	largeHSmallT	correct	incongruent	0.76562	no	H	T
1195.347656	n/a	306009	responseSmallT	correct	n/a	0.76562	no	n/a	n/a
1196.410156	n/a	306281	largeHSmallT	correct	incongruent	0.48828	no	H	T
1196.898438	n/a	306406	responseSmallT	correct	n/a	0.48828	no	n/a	n/a
1197.96875	n/a	306680	largeTSmallH	correct	incongruent	0.51562	no	T	H
1198.484375	n/a	306812	responseSmallH	correct	n/a	0.51562	no	n/a	n/a
1199.542969	n/a	307083	largeTSmallH	correct	incongruent	0.47656	no	T	H
1200.019531	n/a	307205	responseSmallH	correct	n/a	0.47656	no	n/a	n/a
1201.089844	n/a	307479	largeTSmallH	correct	incongruent	0.40625	no	T	H
1201.496094	n/a	307583	responseSmallH	correct	n/a	0.40625	no	n/a	n/a
1202.554688	n/a	307854	largeHSmallH	correct	congruent	0.58984	no	H	H
1203.144531	n/a	308005	responseSmallH	correct	n/a	0.58984	no	n/a	n/a
1204.207031	n/a	308277	largeTSmallH	correct	incongruent	0.69141	no	T	H
1204.898438	n/a	308454	responseSmallH	correct	n/a	0.69141	no	n/a	n/a
1205.953125	n/a	308724	largeHSmallT	correct	incongruent	0.48047	no	H	T
1206.433594	n/a	308847	responseSmallT	correct	n/a	0.48047	no	n/a	n/a
1207.5	n/a	309120	largeHSmallT	error	incongruent	0.44531	no	H	T
1207.945312	n/a	309234	responseSmallH	error	n/a	0.44531	no	n/a	n/a
1209.023438	n/a	309510	largeHSmallH	correct	congruent	0.53125	no	H	H
1209.554688	n/a	309646	responseSmallH	correct	n/a	0.53125	no	n/a	n/a
1210.621094	n/a	309919	largeTSmallH	correct	incongruent	0.46094	no	T	H
1211.082031	n/a	310037	responseSmallH	correct	n/a	0.46094	no	n/a	n/a
1212.15625	n/a	310312	largeTSmallH	correct	incongruent	0.47656	no	T	H
1212.632812	n/a	310434	responseSmallH	correct	n/a	0.47656	no	n/a	n/a
1213.703125	n/a	310708	largeTSmallH	correct	incongruent	0.46094	no	T	H
1214.164062	n/a	310826	responseSmallH	correct	n/a	0.46094	no	n/a	n/a
1215.222656	n/a	311097	largeTSmallH	correct	incongruent	0.39844	no	T	H
1215.621094	n/a	311199	responseSmallH	correct	n/a	0.39844	no	n/a	n/a
1216.6875	n/a	311472	largeTSmallT	correct	congruent	0.60938	no	T	T
1217.296875	n/a	311628	responseSmallT	correct	n/a	0.60938	no	n/a	n/a
1218.367188	n/a	311902	largeHSmallT	correct	incongruent	0.45703	no	H	T
1218.824219	n/a	312019	responseSmallT	correct	n/a	0.45703	no	n/a	n/a
1219.886719	n/a	312291	largeTSmallH	correct	incongruent	0.53906	no	T	H
1220.425781	n/a	312429	responseSmallH	correct	n/a	0.53906	no	n/a	n/a
1221.5	n/a	312704	largeHSmallH	correct	congruent	0.47266	no	H	H
1221.972656	n/a	312825	responseSmallH	correct	n/a	0.47266	no	n/a	n/a
1223.046875	n/a	313100	largeHSmallH	correct	congruent	0.42969	no	H	H
1223.476562	n/a	313210	responseSmallH	correct	n/a	0.42969	no	n/a	n/a
1224.542969	n/a	313483	largeTSmallT	correct	congruent	0.48047	no	T	T
1225.023438	n/a	313606	responseSmallT	correct	n/a	0.48047	no	n/a	n/a
1226.085938	n/a	313878	largeTSmallH	correct	incongruent	0.55078	no	T	H
1226.636719	n/a	314019	responseSmallH	correct	n/a	0.55078	no	n/a	n/a
1227.699219	n/a	314291	largeHSmallT	correct	incongruent	0.46094	no	H	T
1228.160156	n/a	314409	responseSmallT	correct	n/a	0.46094	no	n/a	n/a
1229.234375	n/a	314684	largeTSmallT	correct	congruent	0.51562	no	T	T
1229.75	n/a	314816	responseSmallT	correct	n/a	0.51562	no	n/a	n/a
1230.808594	n/a	315087	largeTSmallT	error	congruent	0.42188	no	T	T
1231.230469	n/a	315195	responseSmallH	error	n/a	0.42188	no	n/a	n/a
1232.289062	n/a	315466	largeTSmallT	correct	congruent	0.59375	no	T	T
1232.882812	n/a	315618	responseSmallT	correct	n/a	0.59375	no	n/a	n/a
1233.941406	n/a	315889	largeTSmallT	correct	congruent	0.43359	no	T	T
1234.375	n/a	316000	responseSmallT	correct	n/a	0.43359	no	n/a	n/a
1235.449219	n/a	316275	largeHSmallT	correct	incongruent	0.46094	no	H	T
1235.910156	n/a	316393	responseSmallT	correct	n/a	0.46094	no	n/a	n/a
1236.96875	n/a	316664	largeHSmallH	correct	congruent	0.61719	no	H	H
1237.585938	n/a	316822	responseSmallH	correct	n/a	0.61719	no	n/a	n/a
1238.660156	n/a	317097	largeHSmallT	correct	incongruent	0.48438	no	H	T
1239.144531	n/a	317221	responseSmallT	correct	n/a	0.48438	no	n/a	n/a
1240.222656	n/a	317497	largeHSmallH	correct	congruent	0.45312	no	H	H
1240.675781	n/a	317613	responseSmallH	correct	n/a	0.45312	no	n/a	n/a
1241.742188	n/a	317886	largeTSmallH	correct	incongruent	0.47266	no	T	H
1242.214844	n/a	318007	responseSmallH	correct	n/a	0.47266	no	n/a	n/a
1243.273438	n/a	318278	largeHSmallT	correct	incongruent	0.48047	no	H	T
1243.753906	n/a	318401	responseSmallT	correct	n/a	0.48047	no	n/a	n/a
1244.820312	n/a	318674	largeHSmallH	correct	congruent	0.61719	no	H	H
1245.4375	n/a	318832	responseSmallH	correct	n/a	0.61719	no	n/a	n/a
1246.5	n/a	319104	largeHSmallT	correct	incongruent	0.45703	no	H	T
1246.957031	n/a	319221	responseSmallT	correct	n/a	0.45703	no	n/a	n/a
1248.035156	n/a	319497	largeHSmallH	correct	congruent	0.42969	no	H	H
1248.464844	n/a	319607	responseSmallH	correct	n/a	0.42969	no	n/a	n/a
1249.527344	n/a	319879	largeHSmallH	correct	congruent	0.42188	no	H	H
1249.949219	n/a	319987	responseSmallH	correct	n/a	0.42188	no	n/a	n/a
1251.007812	n/a	320258	largeTSmallH	correct	incongruent	0.96094	no	T	H
1251.96875	n/a	320504	responseSmallH	correct	n/a	0.96094	no	n/a	n/a
1253.046875	n/a	320780	largeTSmallT	correct	congruent	0.46875	no	T	T
1253.515625	n/a	320900	responseSmallT	correct	n/a	0.46875	no	n/a	n/a
1254.582031	n/a	321173	largeHSmallT	correct	incongruent	0.82031	no	H	T
1255.402344	n/a	321383	responseSmallT	correct	n/a	0.82031	no	n/a	n/a
1256.472656	n/a	321657	largeTSmallT	correct	congruent	0.62891	no	T	T
1257.101562	n/a	321818	responseSmallT	correct	n/a	0.62891	no	n/a	n/a
1258.179688	n/a	322094	largeHSmallT	correct	incongruent	0.57812	no	H	T
1258.757812	n/a	322242	responseSmallT	correct	n/a	0.57812	no	n/a	n/a
1259.820312	n/a	322514	largeHSmallT	correct	incongruent	0.54297	no	H	T
1260.363281	n/a	322653	responseSmallT	correct	n/a	0.54297	no	n/a	n/a
1261.433594	n/a	322927	largeTSmallT	correct	congruent	0.48438	no	T	T
1261.917969	n/a	323051	responseSmallT	correct	n/a	0.48438	no	n/a	n/a
1262.992188	n/a	323326	largeTSmallH	correct	incongruent	0.40234	no	T	H
