onset	duration	sample	value	stimulus	response_type	response_time
16.546875	n/a	4236	B	nontarget	n/a	n/a
18.1328125	n/a	4642	A	nontarget	n/a	n/a
19.69921875	n/a	5043	C	nontarget	n/a	n/a
21.2734375	n/a	5446	A	nontarget	n/a	n/a
22.84765625	n/a	5849	A	target	hit	621.0938
23.46875	n/a	6008	rt	n/a	hit	621.0938
24.40625	n/a	6248	D	nontarget	n/a	n/a
25.96875	n/a	6648	D	target	hit	687.5
26.65625	n/a	6824	rt	n/a	hit	687.5
27.52734375	n/a	7047	A	nontarget	n/a	n/a
29.0859375	n/a	7446	C	nontarget	n/a	n/a
30.6484375	n/a	7846	A	nontarget	n/a	n/a
32.20703125	n/a	8245	C	nontarget	n/a	n/a
33.765625	n/a	8644	C	target	hit	578.125
34.34375	n/a	8792	rt	n/a	hit	578.125
35.328125	n/a	9044	D	nontarget	n/a	n/a
36.88671875	n/a	9443	C	nontarget	n/a	n/a
38.4453125	n/a	9842	D	nontarget	n/a	n/a
40.0078125	n/a	10242	A	nontarget	n/a	n/a
41.56640625	n/a	10641	C	nontarget	n/a	n/a
43.125	n/a	11040	D	nontarget	n/a	n/a
44.6875	n/a	11440	A	nontarget	n/a	n/a
46.24609375	n/a	11839	B	nontarget	n/a	n/a
47.80859375	n/a	12239	B	target	hit	617.1875
48.42578125	n/a	12397	rt	n/a	hit	617.1875
49.3671875	n/a	12638	A	nontarget	n/a	n/a
50.92578125	n/a	13037	D	nontarget	n/a	n/a
52.48828125	n/a	13437	A	nontarget	n/a	n/a
54.046875	n/a	13836	B	nontarget	n/a	n/a
55.60546875	n/a	14235	C	nontarget	n/a	n/a
57.16796875	n/a	14635	C	target	hit	613.2812
57.78125	n/a	14792	rt	n/a	hit	613.2812
58.7265625	n/a	15034	D	nontarget	n/a	n/a
60.28515625	n/a	15433	C	nontarget	n/a	n/a
61.84765625	n/a	15833	B	nontarget	n/a	n/a
63.40625	n/a	16232	C	nontarget	n/a	n/a
64.96875	n/a	16632	B	nontarget	n/a	n/a
66.52734375	n/a	17031	C	nontarget	n/a	n/a
68.0859375	n/a	17430	A	nontarget	n/a	n/a
69.64453125	n/a	17829	C	nontarget	n/a	n/a
71.20703125	n/a	18229	B	nontarget	n/a	n/a
72.765625	n/a	18628	B	target	hit	648.4375
73.4140625	n/a	18794	rt	n/a	hit	648.4375
74.328125	n/a	19028	C	nontarget	n/a	n/a
75.88671875	n/a	19427	D	nontarget	n/a	n/a
77.4453125	n/a	19826	D	target	hit	500
77.9453125	n/a	19954	rt	n/a	hit	500
79.0078125	n/a	20226	A	nontarget	n/a	n/a
80.56640625	n/a	20625	C	nontarget	n/a	n/a
82.125	n/a	21024	C	target	hit	621.0938
82.74609375	n/a	21183	rt	n/a	hit	621.0938
83.6875	n/a	21424	B	nontarget	n/a	n/a
85.24609375	n/a	21823	D	nontarget	n/a	n/a
86.8046875	n/a	22222	A	nontarget	n/a	n/a
88.3671875	n/a	22622	B	nontarget	n/a	n/a
89.92578125	n/a	23021	A	nontarget	n/a	n/a
91.484375	n/a	23420	A	target	hit	492.1875
91.9765625	n/a	23546	rt	n/a	hit	492.1875
93.046875	n/a	23820	A	target	hit	777.3438
93.82421875	n/a	24019	rt	n/a	hit	777.3438
94.60546875	n/a	24219	B	nontarget	n/a	n/a
96.1640625	n/a	24618	B	target	hit	566.4062
96.73046875	n/a	24763	rt	n/a	hit	566.4062
97.7265625	n/a	25018	D	nontarget	n/a	n/a
99.28515625	n/a	25417	A	nontarget	n/a	n/a
100.8476562	n/a	25817	B	nontarget	n/a	n/a
102.40625	n/a	26216	B	target	hit	582.0312
102.9882812	n/a	26365	rt	n/a	hit	582.0312
103.9648438	n/a	26615	B	target	hit	535.1562
104.5	n/a	26752	rt	n/a	hit	535.1562
105.5273438	n/a	27015	A	nontarget	n/a	n/a
107.0859375	n/a	27414	A	target	hit	535.1562
107.6210938	n/a	27551	rt	n/a	hit	535.1562
108.6445312	n/a	27813	D	nontarget	n/a	n/a
110.2070312	n/a	28213	D	target	hit	550.7812
110.7578125	n/a	28354	rt	n/a	hit	550.7812
111.765625	n/a	28612	B	nontarget	n/a	n/a
113.3242188	n/a	29011	C	nontarget	n/a	n/a
114.8867188	n/a	29411	A	nontarget	n/a	n/a
116.4453125	n/a	29810	D	nontarget	n/a	n/a
118.0039062	n/a	30209	D	target	hit	511.7188
118.515625	n/a	30340	rt	n/a	hit	511.7188
119.5664062	n/a	30609	C	nontarget	n/a	n/a
121.125	n/a	31008	B	nontarget	n/a	n/a
122.6835938	n/a	31407	C	nontarget	n/a	n/a
124.2460938	n/a	31807	B	nontarget	n/a	n/a
125.8046875	n/a	32206	D	nontarget	n/a	n/a
127.3671875	n/a	32606	C	nontarget	n/a	n/a
128.9257812	n/a	33005	D	nontarget	n/a	n/a
130.484375	n/a	33404	A	nontarget	n/a	n/a
132.046875	n/a	33804	C	nontarget	n/a	n/a
133.6054688	n/a	34203	A	nontarget	n/a	n/a
135.1640625	n/a	34602	C	nontarget	n/a	n/a
136.7265625	n/a	35002	A	nontarget	n/a	n/a
138.2851562	n/a	35401	B	nontarget	n/a	n/a
139.84375	n/a	35800	C	nontarget	n/a	n/a
141.4179688	n/a	36203	D	nontarget	n/a	n/a
142.9921875	n/a	36606	C	nontarget	n/a	n/a
144.5664062	n/a	37009	B	nontarget	n/a	n/a
146.1367188	n/a	37411	B	target	hit	691.4062
146.828125	n/a	37588	rt	n/a	hit	691.4062
147.7109375	n/a	37814	C	nontarget	n/a	n/a
149.2851562	n/a	38217	C	target	hit	472.6562
149.7578125	n/a	38338	rt	n/a	hit	472.6562
150.84375	n/a	38616	A	nontarget	n/a	n/a
152.40625	n/a	39016	A	target	hit	488.2812
152.8945312	n/a	39141	rt	n/a	hit	488.2812
153.9648438	n/a	39415	B	nontarget	n/a	n/a
155.5234375	n/a	39814	B	target	hit	605.4688
156.1289062	n/a	39969	rt	n/a	hit	605.4688
157.0859375	n/a	40214	A	nontarget	n/a	n/a
158.6445312	n/a	40613	A	target	hit	527.3438
159.171875	n/a	40748	rt	n/a	hit	527.3438
160.203125	n/a	41012	A	target	hit	617.1875
160.8203125	n/a	41170	rt	n/a	hit	617.1875
161.765625	n/a	41412	B	nontarget	n/a	n/a
163.3242188	n/a	41811	A	nontarget	n/a	n/a
164.8828125	n/a	42210	D	nontarget	n/a	n/a
166.4453125	n/a	42610	A	nontarget	n/a	n/a
168.0039062	n/a	43009	A	target	hit	605.4688
168.609375	n/a	43164	rt	n/a	hit	605.4688
169.5664062	n/a	43409	B	nontarget	n/a	n/a
171.125	n/a	43808	C	nontarget	n/a	n/a
172.6835938	n/a	44207	A	nontarget	n/a	n/a
174.2460938	n/a	44607	C	nontarget	n/a	n/a
175.8046875	n/a	45006	A	nontarget	n/a	n/a
177.3632812	n/a	45405	B	nontarget	n/a	n/a
178.9257812	n/a	45805	A	nontarget	n/a	n/a
180.484375	n/a	46204	C	nontarget	n/a	n/a
182.0429688	n/a	46603	B	nontarget	n/a	n/a
183.6054688	n/a	47003	C	nontarget	n/a	n/a
185.1640625	n/a	47402	B	nontarget	n/a	n/a
186.7226562	n/a	47801	C	nontarget	n/a	n/a
188.2851562	n/a	48201	A	nontarget	n/a	n/a
189.84375	n/a	48600	D	nontarget	n/a	n/a
191.4023438	n/a	48999	B	nontarget	n/a	n/a
192.9648438	n/a	49399	C	nontarget	n/a	n/a
194.5234375	n/a	49798	C	target	hit	546.875
195.0703125	n/a	49938	rt	n/a	hit	546.875
196.0859375	n/a	50198	A	nontarget	n/a	n/a
197.6445312	n/a	50597	D	nontarget	n/a	n/a
199.203125	n/a	50996	D	target	hit	679.6875
199.8828125	n/a	51170	rt	n/a	hit	679.6875
200.7617188	n/a	51395	B	nontarget	n/a	n/a
202.3242188	n/a	51795	C	nontarget	n/a	n/a
203.8828125	n/a	52194	A	nontarget	n/a	n/a
205.4453125	n/a	52594	C	nontarget	n/a	n/a
207.0039062	n/a	52993	B	nontarget	n/a	n/a
208.5625	n/a	53392	C	nontarget	n/a	n/a
210.125	n/a	53792	A	nontarget	n/a	n/a
211.6835938	n/a	54191	A	target	hit	585.9375
212.2695312	n/a	54341	rt	n/a	hit	585.9375
213.2421875	n/a	54590	B	nontarget	n/a	n/a
214.8046875	n/a	54990	C	nontarget	n/a	n/a
216.3632812	n/a	55389	A	nontarget	n/a	n/a
217.921875	n/a	55788	C	nontarget	n/a	n/a
219.484375	n/a	56188	D	nontarget	n/a	n/a
221.0429688	n/a	56587	C	nontarget	n/a	n/a
222.6015625	n/a	56986	A	nontarget	n/a	n/a
224.1640625	n/a	57386	B	nontarget	n/a	n/a
225.7226562	n/a	57785	D	nontarget	n/a	n/a
227.2851562	n/a	58185	B	nontarget	n/a	n/a
228.84375	n/a	58584	C	nontarget	n/a	n/a
230.4023438	n/a	58983	A	nontarget	n/a	n/a
231.9648438	n/a	59383	B	nontarget	n/a	n/a
233.5234375	n/a	59782	D	nontarget	n/a	n/a
235.0820312	n/a	60181	B	nontarget	n/a	n/a
236.65625	n/a	60584	D	nontarget	n/a	n/a
238.2148438	n/a	60983	C	nontarget	n/a	n/a
239.7890625	n/a	61386	C	target	hit	636.7188
240.4257812	n/a	61549	rt	n/a	hit	636.7188
241.3632812	n/a	61789	B	nontarget	n/a	n/a
242.9375	n/a	62192	D	nontarget	n/a	n/a
244.5078125	n/a	62594	A	nontarget	n/a	n/a
246.0703125	n/a	62994	B	nontarget	n/a	n/a
247.6289062	n/a	63393	D	nontarget	n/a	n/a
249.1875	n/a	63792	C	nontarget	n/a	n/a
250.75	n/a	64192	D	nontarget	n/a	n/a
252.3085938	n/a	64591	B	nontarget	n/a	n/a
253.8828125	n/a	64994	A	nontarget	n/a	n/a
255.4414062	n/a	65393	A	target	hit	437.5
255.8789062	n/a	65505	rt	n/a	hit	437.5
257.0039062	n/a	65793	C	nontarget	n/a	n/a
258.5625	n/a	66192	D	nontarget	n/a	n/a
260.1210938	n/a	66591	D	target	hit	574.2188
260.6953125	n/a	66738	rt	n/a	hit	574.2188
261.6835938	n/a	66991	C	nontarget	n/a	n/a
263.2421875	n/a	67390	D	nontarget	n/a	n/a
264.8007812	n/a	67789	A	nontarget	n/a	n/a
266.3632812	n/a	68189	D	nontarget	n/a	n/a
267.921875	n/a	68588	A	nontarget	n/a	n/a
269.4804688	n/a	68987	B	nontarget	n/a	n/a
271.0429688	n/a	69387	D	nontarget	n/a	n/a
272.6015625	n/a	69786	A	nontarget	n/a	n/a
274.1640625	n/a	70186	C	nontarget	n/a	n/a
275.7226562	n/a	70585	B	nontarget	n/a	n/a
277.28125	n/a	70984	B	target	hit	644.5312
277.9257812	n/a	71149	rt	n/a	hit	644.5312
278.84375	n/a	71384	A	nontarget	n/a	n/a
280.4023438	n/a	71783	A	target	hit	496.0938
280.8984375	n/a	71910	rt	n/a	hit	496.0938
281.9609375	n/a	72182	D	nontarget	n/a	n/a
283.5234375	n/a	72582	D	target	hit	500
284.0234375	n/a	72710	rt	n/a	hit	500
285.0820312	n/a	72981	D	target	hit	636.7188
285.71875	n/a	73144	rt	n/a	hit	636.7188
286.640625	n/a	73380	D	target	hit	621.0938
287.2617188	n/a	73539	rt	n/a	hit	621.0938
288.203125	n/a	73780	A	nontarget	n/a	n/a
289.7617188	n/a	74179	D	nontarget	n/a	n/a
291.3242188	n/a	74579	B	nontarget	n/a	n/a
292.8828125	n/a	74978	A	nontarget	n/a	n/a
294.4570312	n/a	75381	A	target	hit	457.0312
294.9140625	n/a	75498	rt	n/a	hit	457.0312
296.0273438	n/a	75783	A	target	hit	515.625
296.5429688	n/a	75915	rt	n/a	hit	515.625
297.6015625	n/a	76186	C	nontarget	n/a	n/a
299.1757812	n/a	76589	A	nontarget	n/a	n/a
300.75	n/a	76992	C	nontarget	n/a	n/a
302.3203125	n/a	77394	A	nontarget	n/a	n/a
303.8828125	n/a	77794	C	nontarget	n/a	n/a
305.4414062	n/a	78193	B	nontarget	n/a	n/a
307	n/a	78592	C	nontarget	n/a	n/a
308.5625	n/a	78992	B	nontarget	n/a	n/a
310.1210938	n/a	79391	B	target	hit	613.2812
310.734375	n/a	79548	rt	n/a	hit	613.2812
311.6796875	n/a	79790	C	nontarget	n/a	n/a
313.2421875	n/a	80190	B	nontarget	n/a	n/a
314.8007812	n/a	80589	A	nontarget	n/a	n/a
316.359375	n/a	80988	A	target	hit	644.5312
317.0039062	n/a	81153	rt	n/a	hit	644.5312
317.921875	n/a	81388	D	nontarget	n/a	n/a
319.4804688	n/a	81787	B	nontarget	n/a	n/a
321.0429688	n/a	82187	D	nontarget	n/a	n/a
322.6015625	n/a	82586	C	nontarget	n/a	n/a
324.1601562	n/a	82985	D	nontarget	n/a	n/a
325.7226562	n/a	83385	A	nontarget	n/a	n/a
327.28125	n/a	83784	D	nontarget	n/a	n/a
328.8398438	n/a	84183	B	nontarget	n/a	n/a
330.4023438	n/a	84583	D	nontarget	n/a	n/a
331.9609375	n/a	84982	B	nontarget	n/a	n/a
333.5195312	n/a	85381	D	nontarget	n/a	n/a
335.0820312	n/a	85781	A	nontarget	n/a	n/a
336.640625	n/a	86180	C	nontarget	n/a	n/a
338.1992188	n/a	86579	A	nontarget	n/a	n/a
339.7617188	n/a	86979	A	target	hit	667.9688
340.4296875	n/a	87150	rt	n/a	hit	667.9688
341.3203125	n/a	87378	B	nontarget	n/a	n/a
342.8789062	n/a	87777	C	nontarget	n/a	n/a
344.4414062	n/a	88177	D	nontarget	n/a	n/a
346	n/a	88576	C	nontarget	n/a	n/a
347.5625	n/a	88976	A	nontarget	n/a	n/a
349.1210938	n/a	89375	C	nontarget	n/a	n/a
350.6796875	n/a	89774	A	nontarget	n/a	n/a
352.2421875	n/a	90174	B	nontarget	n/a	n/a
353.8007812	n/a	90573	B	target	hit	515.625
354.3164062	n/a	90705	rt	n/a	hit	515.625
355.359375	n/a	90972	B	target	miss	n/a
356.921875	n/a	91372	A	nontarget	miss	n/a
358.4804688	n/a	91771	C	nontarget	n/a	n/a
360.0390625	n/a	92170	C	target	hit	804.6875
360.84375	n/a	92376	rt	n/a	hit	804.6875
361.6015625	n/a	92570	C	target	hit	671.875
362.2734375	n/a	92742	rt	n/a	hit	671.875
363.1601562	n/a	92969	C	target	hit	460.9375
363.6210938	n/a	93087	rt	n/a	hit	460.9375
364.71875	n/a	93368	A	nontarget	n/a	n/a
366.28125	n/a	93768	B	nontarget	n/a	n/a
367.8398438	n/a	94167	C	nontarget	n/a	n/a
369.4023438	n/a	94567	C	target	hit	1332.0312
370.734375	n/a	94908	rt	n/a	hit	1332.0312
370.9609375	n/a	94966	A	nontarget	n/a	n/a
372.5195312	n/a	95365	D	nontarget	n/a	n/a
374.0820312	n/a	95765	C	nontarget	n/a	n/a
375.640625	n/a	96164	A	nontarget	n/a	n/a
377.1992188	n/a	96563	C	nontarget	n/a	n/a
378.7617188	n/a	96963	A	nontarget	n/a	n/a
380.3203125	n/a	97362	B	nontarget	n/a	n/a
381.8945312	n/a	97765	D	nontarget	n/a	n/a
383.453125	n/a	98164	D	target	miss	n/a
385.0117188	n/a	98563	B	nontarget	miss	n/a
386.5859375	n/a	98966	C	nontarget	n/a	n/a
388.1601562	n/a	99369	D	nontarget	n/a	n/a
389.734375	n/a	99772	D	target	hit	671.875
390.40625	n/a	99944	rt	n/a	hit	671.875
391.3046875	n/a	100174	A	nontarget	n/a	n/a
392.8789062	n/a	100577	D	nontarget	n/a	n/a
394.4414062	n/a	100977	D	target	hit	523.4375
394.9648438	n/a	101111	rt	n/a	hit	523.4375
396	n/a	101376	B	nontarget	n/a	n/a
397.5585938	n/a	101775	C	nontarget	n/a	n/a
399.1210938	n/a	102175	B	nontarget	n/a	n/a
400.6796875	n/a	102574	C	nontarget	n/a	n/a
402.2382812	n/a	102973	C	target	hit	585.9375
402.8242188	n/a	103123	rt	n/a	hit	585.9375
403.8007812	n/a	103373	D	nontarget	n/a	n/a
405.359375	n/a	103772	C	nontarget	n/a	n/a
406.9179688	n/a	104171	C	target	hit	917.9688
407.8359375	n/a	104406	rt	n/a	hit	917.9688
408.4804688	n/a	104571	D	nontarget	n/a	n/a
410.0390625	n/a	104970	B	nontarget	n/a	n/a
411.6015625	n/a	105370	A	nontarget	n/a	n/a
413.1601562	n/a	105769	C	nontarget	n/a	n/a
414.71875	n/a	106168	B	nontarget	n/a	n/a
416.2773438	n/a	106567	D	nontarget	n/a	n/a
417.8398438	n/a	106967	B	nontarget	n/a	n/a
419.3984375	n/a	107366	A	nontarget	n/a	n/a
420.9609375	n/a	107766	D	nontarget	n/a	n/a
422.5195312	n/a	108165	B	nontarget	n/a	n/a
424.078125	n/a	108564	C	nontarget	n/a	n/a
425.640625	n/a	108964	A	nontarget	n/a	n/a
427.1992188	n/a	109363	A	target	hit	570.3125
427.7695312	n/a	109509	rt	n/a	hit	570.3125
428.7578125	n/a	109762	C	nontarget	n/a	n/a
430.3203125	n/a	110162	B	nontarget	n/a	n/a
431.8789062	n/a	110561	C	nontarget	n/a	n/a
433.4375	n/a	110960	B	nontarget	n/a	n/a
435	n/a	111360	D	nontarget	n/a	n/a
436.5585938	n/a	111759	C	nontarget	n/a	n/a
438.1171875	n/a	112158	C	target	hit	625
438.7421875	n/a	112318	rt	n/a	hit	625
439.6796875	n/a	112558	A	nontarget	n/a	n/a
441.2382812	n/a	112957	C	nontarget	n/a	n/a
442.8007812	n/a	113357	D	nontarget	n/a	n/a
444.359375	n/a	113756	A	nontarget	n/a	n/a
445.9179688	n/a	114155	B	nontarget	n/a	n/a
447.4804688	n/a	114555	C	nontarget	n/a	n/a
449.0390625	n/a	114954	C	target	hit	429.6875
449.46875	n/a	115064	rt	n/a	hit	429.6875
450.5976562	n/a	115353	A	nontarget	n/a	n/a
452.171875	n/a	115756	A	target	hit	539.0625
452.7109375	n/a	115894	rt	n/a	hit	539.0625
