onset	duration	sample	value	response_type	congruence	response_time	response_out_of_range	largeletter	smallletter
12.2265625	n/a	3130	largeHSmallT	correct	incongruent	0.82812	no	H	T
13.0546875	n/a	3342	responseLargeH	correct	n/a	0.82812	no	n/a	n/a
14.1171875	n/a	3614	largeTSmallH	correct	incongruent	0.33984	no	T	H
14.45703125	n/a	3701	responseLargeT	correct	n/a	0.33984	no	n/a	n/a
15.53125	n/a	3976	largeTSmallH	correct	incongruent	0.47656	no	T	H
16.0078125	n/a	4098	responseLargeT	correct	n/a	0.47656	no	n/a	n/a
17.0625	n/a	4368	largeHSmallH	correct	congruent	0.32422	no	H	H
17.38671875	n/a	4451	responseLargeH	correct	n/a	0.32422	no	n/a	n/a
18.453125	n/a	4724	largeTSmallT	correct	congruent	0.35938	no	T	T
18.8125	n/a	4816	responseLargeT	correct	n/a	0.35938	no	n/a	n/a
19.87890625	n/a	5089	largeTSmallH	correct	incongruent	0.42578	no	T	H
20.3046875	n/a	5198	responseLargeT	correct	n/a	0.42578	no	n/a	n/a
21.37109375	n/a	5471	largeTSmallT	correct	congruent	0.40234	no	T	T
21.7734375	n/a	5574	responseLargeT	correct	n/a	0.40234	no	n/a	n/a
22.8359375	n/a	5846	largeHSmallH	correct	congruent	0.50391	no	H	H
23.33984375	n/a	5975	responseLargeH	correct	n/a	0.50391	no	n/a	n/a
24.41015625	n/a	6249	largeHSmallT	correct	incongruent	0.40234	no	H	T
24.8125	n/a	6352	responseLargeH	correct	n/a	0.40234	no	n/a	n/a
25.87890625	n/a	6625	largeHSmallH	correct	congruent	0.46875	no	H	H
26.34765625	n/a	6745	responseLargeH	correct	n/a	0.46875	no	n/a	n/a
27.41015625	n/a	7017	largeTSmallT	correct	congruent	0.41016	no	T	T
27.8203125	n/a	7122	responseLargeT	correct	n/a	0.41016	no	n/a	n/a
28.890625	n/a	7396	largeTSmallT	correct	congruent	0.42969	no	T	T
29.3203125	n/a	7506	responseLargeT	correct	n/a	0.42969	no	n/a	n/a
30.3984375	n/a	7782	largeTSmallT	correct	congruent	0.45312	no	T	T
30.8515625	n/a	7898	responseLargeT	correct	n/a	0.45312	no	n/a	n/a
31.91796875	n/a	8171	largeHSmallT	correct	incongruent	0.55859	no	H	T
32.4765625	n/a	8314	responseLargeH	correct	n/a	0.55859	no	n/a	n/a
33.54296875	n/a	8587	largeHSmallT	correct	incongruent	0.41797	no	H	T
33.9609375	n/a	8694	responseLargeH	correct	n/a	0.41797	no	n/a	n/a
35.0234375	n/a	8966	largeHSmallT	correct	incongruent	0.37891	no	H	T
35.40234375	n/a	9063	responseLargeH	correct	n/a	0.37891	no	n/a	n/a
36.4765625	n/a	9338	largeHSmallH	correct	congruent	0.38281	no	H	H
36.859375	n/a	9436	responseLargeH	correct	n/a	0.38281	no	n/a	n/a
37.9296875	n/a	9710	largeTSmallT	correct	congruent	0.51172	no	T	T
38.44140625	n/a	9841	responseLargeT	correct	n/a	0.51172	no	n/a	n/a
39.50390625	n/a	10113	largeTSmallT	correct	congruent	0.42578	no	T	T
39.9296875	n/a	10222	responseLargeT	correct	n/a	0.42578	no	n/a	n/a
40.99609375	n/a	10495	largeTSmallH	correct	incongruent	0.38281	no	T	H
41.37890625	n/a	10593	responseLargeT	correct	n/a	0.38281	no	n/a	n/a
42.44921875	n/a	10867	largeTSmallH	correct	incongruent	0.40625	no	T	H
42.85546875	n/a	10971	responseLargeT	correct	n/a	0.40625	no	n/a	n/a
43.91796875	n/a	11243	largeTSmallT	correct	congruent	0.4375	no	T	T
44.35546875	n/a	11355	responseLargeT	correct	n/a	0.4375	no	n/a	n/a
45.41015625	n/a	11625	largeHSmallH	error	congruent	0.72266	no	H	H
46.1328125	n/a	11810	responseLargeT	error	n/a	0.72266	no	n/a	n/a
47.2109375	n/a	12086	largeHSmallT	correct	incongruent	0.5	no	H	T
47.7109375	n/a	12214	responseLargeH	correct	n/a	0.5	no	n/a	n/a
48.78515625	n/a	12489	largeTSmallH	error	incongruent	0.42969	no	T	H
49.21484375	n/a	12599	responseLargeH	error	n/a	0.42969	no	n/a	n/a
50.27734375	n/a	12871	largeTSmallT	correct	congruent	0.64453	no	T	T
50.921875	n/a	13036	responseLargeT	correct	n/a	0.64453	no	n/a	n/a
51.99609375	n/a	13311	largeHSmallT	correct	incongruent	0.5625	no	H	T
52.55859375	n/a	13455	responseLargeH	correct	n/a	0.5625	no	n/a	n/a
53.625	n/a	13728	largeTSmallT	correct	congruent	0.56641	no	T	T
54.19140625	n/a	13873	responseLargeT	correct	n/a	0.56641	no	n/a	n/a
55.25	n/a	14144	largeTSmallH	correct	incongruent	0.58203	no	T	H
55.83203125	n/a	14293	responseLargeT	correct	n/a	0.58203	no	n/a	n/a
56.890625	n/a	14564	largeHSmallH	correct	congruent	0.64062	no	H	H
57.53125	n/a	14728	responseLargeH	correct	n/a	0.64062	no	n/a	n/a
58.59765625	n/a	15001	largeHSmallT	correct	incongruent	0.71484	no	H	T
59.3125	n/a	15184	responseLargeH	correct	n/a	0.71484	no	n/a	n/a
60.37109375	n/a	15455	largeHSmallT	correct	incongruent	0.61328	no	H	T
60.984375	n/a	15612	responseLargeH	correct	n/a	0.61328	no	n/a	n/a
62.0625	n/a	15888	largeHSmallH	correct	congruent	0.39453	no	H	H
62.45703125	n/a	15989	responseLargeH	correct	n/a	0.39453	no	n/a	n/a
63.53125	n/a	16264	largeTSmallH	correct	incongruent	0.39062	no	T	H
63.921875	n/a	16364	responseLargeT	correct	n/a	0.39062	no	n/a	n/a
64.99609375	n/a	16639	largeTSmallT	correct	congruent	0.42188	no	T	T
65.41796875	n/a	16747	responseLargeT	correct	n/a	0.42188	no	n/a	n/a
66.48828125	n/a	17021	largeTSmallH	correct	incongruent	0.69141	no	T	H
67.1796875	n/a	17198	responseLargeT	correct	n/a	0.69141	no	n/a	n/a
68.25	n/a	17472	largeHSmallH	correct	congruent	0.4375	no	H	H
68.6875	n/a	17584	responseLargeH	correct	n/a	0.4375	no	n/a	n/a
69.7578125	n/a	17858	largeTSmallT	correct	congruent	0.45312	no	T	T
70.2109375	n/a	17974	responseLargeT	correct	n/a	0.45312	no	n/a	n/a
71.27734375	n/a	18247	largeHSmallT	correct	incongruent	0.50781	no	H	T
71.78515625	n/a	18377	responseLargeH	correct	n/a	0.50781	no	n/a	n/a
72.8515625	n/a	18650	largeTSmallT	correct	congruent	0.55859	no	T	T
73.41015625	n/a	18793	responseLargeT	correct	n/a	0.55859	no	n/a	n/a
74.4765625	n/a	19066	largeTSmallH	correct	incongruent	0.96875	no	T	H
75.4453125	n/a	19314	responseLargeT	correct	n/a	0.96875	no	n/a	n/a
76.515625	n/a	19588	largeTSmallH	correct	incongruent	0.50391	no	T	H
77.01953125	n/a	19717	responseLargeT	correct	n/a	0.50391	no	n/a	n/a
78.08984375	n/a	19991	largeTSmallH	correct	incongruent	0.64453	no	T	H
78.734375	n/a	20156	responseLargeT	correct	n/a	0.64453	no	n/a	n/a
79.796875	n/a	20428	largeHSmallT	correct	incongruent	0.56641	no	H	T
80.36328125	n/a	20573	responseLargeH	correct	n/a	0.56641	no	n/a	n/a
81.4375	n/a	20848	largeHSmallT	correct	incongruent	0.54297	no	H	T
81.98046875	n/a	20987	responseLargeH	correct	n/a	0.54297	no	n/a	n/a
83.03515625	n/a	21257	largeHSmallH	correct	congruent	0.55469	no	H	H
83.58984375	n/a	21399	responseLargeH	correct	n/a	0.55469	no	n/a	n/a
84.6640625	n/a	21674	largeTSmallH	correct	incongruent	0.91016	no	T	H
85.57421875	n/a	21907	responseLargeT	correct	n/a	0.91016	no	n/a	n/a
86.6484375	n/a	22182	largeHSmallT	correct	incongruent	0.96484	no	H	T
87.61328125	n/a	22429	responseLargeH	correct	n/a	0.96484	no	n/a	n/a
88.69140625	n/a	22705	largeTSmallH	correct	incongruent	0.50391	no	T	H
89.1953125	n/a	22834	responseLargeT	correct	n/a	0.50391	no	n/a	n/a
90.26171875	n/a	23107	largeHSmallH	correct	congruent	0.51172	no	H	H
90.7734375	n/a	23238	responseLargeH	correct	n/a	0.51172	no	n/a	n/a
91.8359375	n/a	23510	largeHSmallH	correct	congruent	0.78906	no	H	H
92.625	n/a	23712	responseLargeH	correct	n/a	0.78906	no	n/a	n/a
93.703125	n/a	23988	largeHSmallH	error	congruent	4.4414	yes	H	H
98.14453125	n/a	25125	responseLargeT	error	n/a	4.4414	yes	n/a	n/a
99.22265625	n/a	25401	largeHSmallH	correct	congruent	0.49609	no	H	H
99.71875	n/a	25528	responseLargeH	correct	n/a	0.49609	no	n/a	n/a
100.78125	n/a	25800	largeHSmallH	correct	congruent	0.49219	no	H	H
101.2734375	n/a	25926	responseLargeH	correct	n/a	0.49219	no	n/a	n/a
102.34375	n/a	26200	largeHSmallT	correct	incongruent	0.71094	no	H	T
103.0546875	n/a	26382	responseLargeH	correct	n/a	0.71094	no	n/a	n/a
104.1171875	n/a	26654	largeHSmallH	correct	congruent	0.46484	no	H	H
104.5820312	n/a	26773	responseLargeH	correct	n/a	0.46484	no	n/a	n/a
105.6484375	n/a	27046	largeHSmallT	correct	incongruent	0.51953	no	H	T
106.1679688	n/a	27179	responseLargeH	correct	n/a	0.51953	no	n/a	n/a
107.234375	n/a	27452	largeHSmallT	correct	incongruent	0.39062	no	H	T
107.625	n/a	27552	responseLargeH	correct	n/a	0.39062	no	n/a	n/a
108.6875	n/a	27824	largeHSmallH	correct	congruent	0.49219	no	H	H
109.1796875	n/a	27950	responseLargeH	correct	n/a	0.49219	no	n/a	n/a
110.25	n/a	28224	largeTSmallH	correct	incongruent	0.58203	no	T	H
110.8320312	n/a	28373	responseLargeT	correct	n/a	0.58203	no	n/a	n/a
111.9023438	n/a	28647	largeHSmallT	correct	incongruent	0.49609	no	H	T
112.3984375	n/a	28774	responseLargeH	correct	n/a	0.49609	no	n/a	n/a
113.4609375	n/a	29046	largeHSmallH	correct	congruent	0.49219	no	H	H
113.953125	n/a	29172	responseLargeH	correct	n/a	0.49219	no	n/a	n/a
115.0234375	n/a	29446	largeTSmallT	correct	congruent	0.39062	no	T	T
115.4140625	n/a	29546	responseLargeT	correct	n/a	0.39062	no	n/a	n/a
116.4882812	n/a	29821	largeHSmallH	correct	congruent	0.41797	no	H	H
116.90625	n/a	29928	responseLargeH	correct	n/a	0.41797	no	n/a	n/a
117.96875	n/a	30200	largeHSmallT	correct	incongruent	0.57812	no	H	T
118.546875	n/a	30348	responseLargeH	correct	n/a	0.57812	no	n/a	n/a
119.609375	n/a	30620	largeTSmallT	correct	congruent	0.54297	no	T	T
120.1523438	n/a	30759	responseLargeT	correct	n/a	0.54297	no	n/a	n/a
121.2109375	n/a	31030	largeTSmallT	correct	congruent	4.5977	yes	T	T
125.8085938	n/a	32207	responseLargeT	correct	n/a	4.5977	yes	n/a	n/a
126.875	n/a	32480	largeTSmallH	correct	incongruent	0.61719	no	T	H
127.4921875	n/a	32638	responseLargeT	correct	n/a	0.61719	no	n/a	n/a
128.5703125	n/a	32914	largeHSmallT	correct	incongruent	0.47266	no	H	T
129.0429688	n/a	33035	responseLargeH	correct	n/a	0.47266	no	n/a	n/a
130.1015625	n/a	33306	largeTSmallH	correct	incongruent	0.42578	no	T	H
130.5273438	n/a	33415	responseLargeT	correct	n/a	0.42578	no	n/a	n/a
131.59375	n/a	33688	largeTSmallH	correct	incongruent	0.54297	no	T	H
132.1367188	n/a	33827	responseLargeT	correct	n/a	0.54297	no	n/a	n/a
133.2070312	n/a	34101	largeHSmallH	correct	congruent	0.49219	no	H	H
133.6992188	n/a	34227	responseLargeH	correct	n/a	0.49219	no	n/a	n/a
134.7695312	n/a	34501	largeTSmallH	correct	incongruent	0.57812	no	T	H
135.3476562	n/a	34649	responseLargeT	correct	n/a	0.57812	no	n/a	n/a
136.4101562	n/a	34921	largeHSmallH	correct	congruent	0.55078	no	H	H
136.9609375	n/a	35062	responseLargeH	correct	n/a	0.55078	no	n/a	n/a
138.0351562	n/a	35337	largeTSmallH	correct	incongruent	0.39453	no	T	H
138.4296875	n/a	35438	responseLargeT	correct	n/a	0.39453	no	n/a	n/a
139.5	n/a	35712	largeTSmallT	correct	congruent	0.51953	no	T	T
140.0195312	n/a	35845	responseLargeT	correct	n/a	0.51953	no	n/a	n/a
141.0898438	n/a	36119	largeHSmallH	correct	congruent	0.51953	no	H	H
141.609375	n/a	36252	responseLargeH	correct	n/a	0.51953	no	n/a	n/a
142.6757812	n/a	36525	largeTSmallT	correct	congruent	0.57812	no	T	T
143.2539062	n/a	36673	responseLargeT	correct	n/a	0.57812	no	n/a	n/a
144.3164062	n/a	36945	largeHSmallT	correct	incongruent	0.39062	no	H	T
144.7070312	n/a	37045	responseLargeH	correct	n/a	0.39062	no	n/a	n/a
145.7695312	n/a	37317	largeHSmallT	correct	incongruent	0.66016	no	H	T
146.4296875	n/a	37486	responseLargeH	correct	n/a	0.66016	no	n/a	n/a
147.5	n/a	37760	largeTSmallH	correct	incongruent	0.85938	no	T	H
148.359375	n/a	37980	responseLargeT	correct	n/a	0.85938	no	n/a	n/a
149.421875	n/a	38252	largeTSmallT	correct	congruent	0.78516	no	T	T
150.2070312	n/a	38453	responseLargeT	correct	n/a	0.78516	no	n/a	n/a
151.2734375	n/a	38726	largeTSmallH	correct	incongruent	0.54297	no	T	H
151.8164062	n/a	38865	responseLargeT	correct	n/a	0.54297	no	n/a	n/a
152.8867188	n/a	39139	largeHSmallH	correct	congruent	4.7266	yes	H	H
157.6132812	n/a	40349	responseLargeH	correct	n/a	4.7266	yes	n/a	n/a
158.6875	n/a	40624	largeHSmallH	correct	congruent	0.54688	no	H	H
159.234375	n/a	40764	responseLargeH	correct	n/a	0.54688	no	n/a	n/a
160.3125	n/a	41040	largeHSmallT	correct	incongruent	4.668	yes	H	T
164.9804688	n/a	42235	responseLargeH	correct	n/a	4.668	yes	n/a	n/a
166.046875	n/a	42508	largeTSmallT	correct	congruent	0.36328	no	T	T
166.4101562	n/a	42601	responseLargeT	correct	n/a	0.36328	no	n/a	n/a
167.4882812	n/a	42877	largeHSmallT	correct	incongruent	0.42578	no	H	T
167.9140625	n/a	42986	responseLargeH	correct	n/a	0.42578	no	n/a	n/a
168.9804688	n/a	43259	largeHSmallH	correct	congruent	0.57422	no	H	H
169.5546875	n/a	43406	responseLargeH	correct	n/a	0.57422	no	n/a	n/a
170.6210938	n/a	43679	largeHSmallH	correct	congruent	0.58203	no	H	H
171.203125	n/a	43828	responseLargeH	correct	n/a	0.58203	no	n/a	n/a
172.2734375	n/a	44102	largeTSmallH	correct	incongruent	7.3672	yes	T	H
179.640625	n/a	45988	responseLargeT	correct	n/a	7.3672	yes	n/a	n/a
180.7148438	n/a	46263	largeHSmallH	correct	congruent	0.40234	no	H	H
181.1171875	n/a	46366	responseLargeH	correct	n/a	0.40234	no	n/a	n/a
182.1796875	n/a	46638	largeHSmallH	correct	congruent	0.5625	no	H	H
182.7421875	n/a	46782	responseLargeH	correct	n/a	0.5625	no	n/a	n/a
183.7929688	n/a	47051	largeHSmallT	correct	incongruent	6.3477	yes	H	T
190.140625	n/a	48676	responseLargeH	correct	n/a	6.3477	yes	n/a	n/a
191.2070312	n/a	48949	largeTSmallT	correct	congruent	0.44141	no	T	T
191.6484375	n/a	49062	responseLargeT	correct	n/a	0.44141	no	n/a	n/a
192.7148438	n/a	49335	largeTSmallH	correct	incongruent	0.50391	no	T	H
193.21875	n/a	49464	responseLargeT	correct	n/a	0.50391	no	n/a	n/a
194.2851562	n/a	49737	largeHSmallT	correct	incongruent	5.9375	yes	H	T
200.2226562	n/a	51257	responseLargeH	correct	n/a	5.9375	yes	n/a	n/a
201.2851562	n/a	51529	largeHSmallT	correct	incongruent	0.63672	no	H	T
201.921875	n/a	51692	responseLargeH	correct	n/a	0.63672	no	n/a	n/a
202.9921875	n/a	51966	largeHSmallT	correct	incongruent	0.44531	no	H	T
203.4375	n/a	52080	responseLargeH	correct	n/a	0.44531	no	n/a	n/a
204.5	n/a	52352	largeTSmallT	correct	congruent	0.52344	no	T	T
205.0234375	n/a	52486	responseLargeT	correct	n/a	0.52344	no	n/a	n/a
206.1015625	n/a	52762	largeTSmallT	correct	congruent	0.46484	no	T	T
206.5664062	n/a	52881	responseLargeT	correct	n/a	0.46484	no	n/a	n/a
207.6328125	n/a	53154	largeTSmallT	correct	congruent	0.60938	no	T	T
208.2421875	n/a	53310	responseLargeT	correct	n/a	0.60938	no	n/a	n/a
209.3125	n/a	53584	largeTSmallT	correct	congruent	0.58594	no	T	T
209.8984375	n/a	53734	responseLargeT	correct	n/a	0.58594	no	n/a	n/a
210.9648438	n/a	54007	largeHSmallH	correct	congruent	2.0859	yes	H	H
213.0507812	n/a	54541	responseLargeH	correct	n/a	2.0859	yes	n/a	n/a
214.1132812	n/a	54813	largeTSmallT	correct	congruent	2.9414	yes	T	T
217.0546875	n/a	55566	responseLargeT	correct	n/a	2.9414	yes	n/a	n/a
218.125	n/a	55840	largeTSmallT	correct	congruent	1.0039	no	T	T
219.1289062	n/a	56097	responseLargeT	correct	n/a	1.0039	no	n/a	n/a
220.1914062	n/a	56369	largeTSmallH	correct	incongruent	0.070312	yes	T	H
220.2617188	n/a	56387	responseLargeT	correct	n/a	0.070312	yes	n/a	n/a
221.3125	n/a	56656	largeTSmallH	correct	incongruent	0.082031	yes	T	H
221.3945312	n/a	56677	responseLargeT	correct	n/a	0.082031	yes	n/a	n/a
222.4609375	n/a	56950	largeHSmallT	error	incongruent	0.078125	yes	H	T
222.5390625	n/a	56970	responseLargeT	error	n/a	0.078125	yes	n/a	n/a
223.6210938	n/a	57247	largeHSmallT	error	incongruent	0.078125	yes	H	T
223.6992188	n/a	57267	responseLargeT	error	n/a	0.078125	yes	n/a	n/a
224.765625	n/a	57540	largeTSmallT	correct	congruent	0.49219	no	T	T
225.2578125	n/a	57666	responseLargeT	correct	n/a	0.49219	no	n/a	n/a
226.328125	n/a	57940	largeHSmallH	correct	congruent	0.60156	no	H	H
226.9296875	n/a	58094	responseLargeH	correct	n/a	0.60156	no	n/a	n/a
227.9921875	n/a	58366	largeTSmallH	correct	incongruent	0.89062	no	T	H
228.8828125	n/a	58594	responseLargeT	correct	n/a	0.89062	no	n/a	n/a
229.953125	n/a	58868	largeTSmallH	correct	incongruent	0.55469	no	T	H
230.5078125	n/a	59010	responseLargeT	correct	n/a	0.55469	no	n/a	n/a
231.5664062	n/a	59281	largeHSmallT	correct	incongruent	0.53125	no	H	T
232.0976562	n/a	59417	responseLargeH	correct	n/a	0.53125	no	n/a	n/a
233.1679688	n/a	59691	largeHSmallT	correct	incongruent	1.3398	no	H	T
234.5078125	n/a	60034	responseLargeH	correct	n/a	1.3398	no	n/a	n/a
235.578125	n/a	60308	largeHSmallH	correct	congruent	0.47266	no	H	H
236.0507812	n/a	60429	responseLargeH	correct	n/a	0.47266	no	n/a	n/a
237.125	n/a	60704	largeTSmallH	correct	incongruent	0.51953	no	T	H
237.6445312	n/a	60837	responseLargeT	correct	n/a	0.51953	no	n/a	n/a
238.7109375	n/a	61110	largeTSmallH	correct	incongruent	1.0078	no	T	H
239.71875	n/a	61368	responseLargeT	correct	n/a	1.0078	no	n/a	n/a
240.7929688	n/a	61643	largeTSmallH	correct	incongruent	0.57422	no	T	H
241.3671875	n/a	61790	responseLargeT	correct	n/a	0.57422	no	n/a	n/a
242.4179688	n/a	62059	largeHSmallT	correct	incongruent	1.7305	yes	H	T
244.1484375	n/a	62502	responseLargeH	correct	n/a	1.7305	yes	n/a	n/a
245.21875	n/a	62776	largeHSmallH	correct	congruent	0.44922	no	H	H
245.6679688	n/a	62891	responseLargeH	correct	n/a	0.44922	no	n/a	n/a
246.7382812	n/a	63165	largeTSmallH	correct	incongruent	0.56641	no	T	H
247.3046875	n/a	63310	responseLargeT	correct	n/a	0.56641	no	n/a	n/a
248.3671875	n/a	63582	largeHSmallT	correct	incongruent	0.48828	no	H	T
248.8554688	n/a	63707	responseLargeH	correct	n/a	0.48828	no	n/a	n/a
249.9257812	n/a	63981	largeTSmallH	correct	incongruent	0.46875	no	T	H
250.3945312	n/a	64101	responseLargeT	correct	n/a	0.46875	no	n/a	n/a
251.4609375	n/a	64374	largeHSmallH	correct	congruent	0.49219	no	H	H
251.953125	n/a	64500	responseLargeH	correct	n/a	0.49219	no	n/a	n/a
253.0195312	n/a	64773	largeTSmallH	correct	incongruent	0.46484	no	T	H
253.484375	n/a	64892	responseLargeT	correct	n/a	0.46484	no	n/a	n/a
254.5507812	n/a	65165	largeTSmallT	correct	congruent	0.54688	no	T	T
255.0976562	n/a	65305	responseLargeT	correct	n/a	0.54688	no	n/a	n/a
256.1679688	n/a	65579	largeHSmallH	correct	congruent	7.2773	yes	H	H
263.4453125	n/a	67442	responseLargeH	correct	n/a	7.2773	yes	n/a	n/a
264.5273438	n/a	67719	largeTSmallH	correct	incongruent	0.46094	no	T	H
264.9882812	n/a	67837	responseLargeT	correct	n/a	0.46094	no	n/a	n/a
266.0585938	n/a	68111	largeHSmallT	correct	incongruent	0.55078	no	H	T
266.609375	n/a	68252	responseLargeH	correct	n/a	0.55078	no	n/a	n/a
267.6835938	n/a	68527	largeHSmallT	correct	incongruent	0.53906	no	H	T
268.2226562	n/a	68665	responseLargeH	correct	n/a	0.53906	no	n/a	n/a
269.2851562	n/a	68937	largeHSmallH	correct	congruent	0.46094	no	H	H
269.7460938	n/a	69055	responseLargeH	correct	n/a	0.46094	no	n/a	n/a
270.8203125	n/a	69330	largeHSmallH	correct	congruent	0.53906	no	H	H
271.359375	n/a	69468	responseLargeH	correct	n/a	0.53906	no	n/a	n/a
272.4335938	n/a	69743	largeTSmallT	correct	congruent	0.48438	no	T	T
272.9179688	n/a	69867	responseLargeT	correct	n/a	0.48438	no	n/a	n/a
273.9804688	n/a	70139	largeTSmallT	correct	congruent	6.1484	yes	T	T
280.1289062	n/a	71713	responseLargeT	correct	n/a	6.1484	yes	n/a	n/a
281.1914062	n/a	71985	largeHSmallT	correct	incongruent	0.54297	no	H	T
281.734375	n/a	72124	responseLargeH	correct	n/a	0.54297	no	n/a	n/a
282.8046875	n/a	72398	largeTSmallH	correct	incongruent	0.61328	no	T	H
283.4179688	n/a	72555	responseLargeT	correct	n/a	0.61328	no	n/a	n/a
284.484375	n/a	72828	largeTSmallT	correct	congruent	0.42969	no	T	T
284.9140625	n/a	72938	responseLargeT	correct	n/a	0.42969	no	n/a	n/a
285.9765625	n/a	73210	largeHSmallH	correct	congruent	0.49609	no	H	H
286.4726562	n/a	73337	responseLargeH	correct	n/a	0.49609	no	n/a	n/a
287.5390625	n/a	73610	largeTSmallT	correct	congruent	0.42969	no	T	T
287.96875	n/a	73720	responseLargeT	correct	n/a	0.42969	no	n/a	n/a
289.0429688	n/a	73995	largeHSmallH	correct	congruent	1.3789	no	H	H
290.421875	n/a	74348	responseLargeH	correct	n/a	1.3789	no	n/a	n/a
291.484375	n/a	74620	largeHSmallH	correct	congruent	6.9727	yes	H	H
298.4570312	n/a	76405	responseLargeH	correct	n/a	6.9727	yes	n/a	n/a
299.5234375	n/a	76678	largeTSmallT	correct	congruent	0.42969	no	T	T
299.953125	n/a	76788	responseLargeT	correct	n/a	0.42969	no	n/a	n/a
301.0195312	n/a	77061	largeTSmallT	correct	congruent	0.72266	no	T	T
301.7421875	n/a	77246	responseLargeT	correct	n/a	0.72266	no	n/a	n/a
302.8164062	n/a	77521	largeTSmallH	correct	incongruent	6.1484	yes	T	H
308.9648438	n/a	79095	responseLargeT	correct	n/a	6.1484	yes	n/a	n/a
310.0429688	n/a	79371	largeHSmallT	error	incongruent	0.082031	yes	H	T
310.125	n/a	79392	responseLargeT	error	n/a	0.082031	yes	n/a	n/a
311.1914062	n/a	79665	largeHSmallT	error	incongruent	0.066406	yes	H	T
311.2578125	n/a	79682	responseLargeT	error	n/a	0.066406	yes	n/a	n/a
312.3359375	n/a	79958	largeTSmallT	correct	congruent	0.082031	yes	T	T
312.4179688	n/a	79979	responseLargeT	correct	n/a	0.082031	yes	n/a	n/a
313.484375	n/a	80252	largeHSmallT	error	incongruent	0.066406	yes	H	T
313.5507812	n/a	80269	responseLargeT	error	n/a	0.066406	yes	n/a	n/a
314.6171875	n/a	80542	largeTSmallH	correct	incongruent	0.070312	yes	T	H
314.6875	n/a	80560	responseLargeT	correct	n/a	0.070312	yes	n/a	n/a
315.75	n/a	80832	largeTSmallH	correct	incongruent	0.082031	yes	T	H
315.8320312	n/a	80853	responseLargeT	correct	n/a	0.082031	yes	n/a	n/a
316.9101562	n/a	81129	largeTSmallH	correct	incongruent	0.070312	yes	T	H
316.9804688	n/a	81147	responseLargeT	correct	n/a	0.070312	yes	n/a	n/a
318.0429688	n/a	81419	largeTSmallT	correct	congruent	0.52734	no	T	T
318.5703125	n/a	81554	responseLargeT	correct	n/a	0.52734	no	n/a	n/a
319.6328125	n/a	81826	largeHSmallH	correct	congruent	0.45312	no	H	H
320.0859375	n/a	81942	responseLargeH	correct	n/a	0.45312	no	n/a	n/a
321.1640625	n/a	82218	largeHSmallT	correct	incongruent	0.57422	no	H	T
321.7382812	n/a	82365	responseLargeH	correct	n/a	0.57422	no	n/a	n/a
322.8164062	n/a	82641	largeTSmallH	correct	incongruent	0.5	no	T	H
323.3164062	n/a	82769	responseLargeT	correct	n/a	0.5	no	n/a	n/a
324.390625	n/a	83044	largeHSmallT	correct	incongruent	1.6484	yes	H	T
326.0390625	n/a	83466	responseLargeH	correct	n/a	1.6484	yes	n/a	n/a
327.0976562	n/a	83737	largeTSmallH	correct	incongruent	5.832	yes	T	H
332.9296875	n/a	85230	responseLargeT	correct	n/a	5.832	yes	n/a	n/a
334.0039062	n/a	85505	largeHSmallH	correct	congruent	1.1094	no	H	H
335.1132812	n/a	85789	responseLargeH	correct	n/a	1.1094	no	n/a	n/a
336.1757812	n/a	86061	largeTSmallT	correct	congruent	4.4961	yes	T	T
340.671875	n/a	87212	responseLargeT	correct	n/a	4.4961	yes	n/a	n/a
341.7382812	n/a	87485	largeHSmallH	correct	congruent	0.57031	no	H	H
342.3085938	n/a	87631	responseLargeH	correct	n/a	0.57031	no	n/a	n/a
343.3789062	n/a	87905	largeTSmallH	correct	incongruent	8.9609	yes	T	H
352.3398438	n/a	90199	responseLargeT	correct	n/a	8.9609	yes	n/a	n/a
353.4023438	n/a	90471	largeTSmallT	correct	congruent	0.57812	no	T	T
353.9804688	n/a	90619	responseLargeT	correct	n/a	0.57812	no	n/a	n/a
355.0429688	n/a	90891	largeHSmallT	correct	incongruent	0.87891	no	H	T
355.921875	n/a	91116	responseLargeH	correct	n/a	0.87891	no	n/a	n/a
356.9882812	n/a	91389	largeHSmallH	correct	congruent	0.47266	no	H	H
357.4609375	n/a	91510	responseLargeH	correct	n/a	0.47266	no	n/a	n/a
358.5234375	n/a	91782	largeHSmallT	correct	incongruent	13.5273	yes	H	T
372.0507812	n/a	95245	responseLargeH	correct	n/a	13.5273	yes	n/a	n/a
373.125	n/a	95520	largeHSmallT	correct	incongruent	0.67188	no	H	T
373.796875	n/a	95692	responseLargeH	correct	n/a	0.67188	no	n/a	n/a
374.8710938	n/a	95967	largeTSmallT	correct	congruent	2.1484	yes	T	T
377.0195312	n/a	96517	responseLargeT	correct	n/a	2.1484	yes	n/a	n/a
378.0820312	n/a	96789	largeTSmallH	correct	incongruent	8.5898	yes	T	H
386.671875	n/a	98988	responseLargeT	correct	n/a	8.5898	yes	n/a	n/a
387.734375	n/a	99260	largeTSmallT	correct	congruent	0.39453	no	T	T
388.1289062	n/a	99361	responseLargeT	correct	n/a	0.39453	no	n/a	n/a
389.1875	n/a	99632	largeTSmallT	correct	congruent	0.38281	no	T	T
389.5703125	n/a	99730	responseLargeT	correct	n/a	0.38281	no	n/a	n/a
390.6445312	n/a	100005	largeHSmallT	error	incongruent	0.74609	no	H	T
391.390625	n/a	100196	responseLargeT	error	n/a	0.74609	no	n/a	n/a
392.4570312	n/a	100469	largeHSmallH	correct	congruent	11.9141	yes	H	H
404.3710938	n/a	103519	responseLargeH	correct	n/a	11.9141	yes	n/a	n/a
405.4296875	n/a	103790	largeHSmallH	correct	congruent	0.65234	no	H	H
406.0820312	n/a	103957	responseLargeH	correct	n/a	0.65234	no	n/a	n/a
407.1484375	n/a	104230	largeHSmallT	correct	incongruent	0.60547	no	H	T
407.7539062	n/a	104385	responseLargeH	correct	n/a	0.60547	no	n/a	n/a
408.8164062	n/a	104657	largeHSmallH	correct	congruent	0.48047	no	H	H
409.296875	n/a	104780	responseLargeH	correct	n/a	0.48047	no	n/a	n/a
410.3632812	n/a	105053	largeHSmallT	correct	incongruent	0.41406	no	H	T
410.7773438	n/a	105159	responseLargeH	correct	n/a	0.41406	no	n/a	n/a
411.84375	n/a	105432	largeTSmallT	correct	congruent	0.73438	no	T	T
412.578125	n/a	105620	responseLargeT	correct	n/a	0.73438	no	n/a	n/a
413.640625	n/a	105892	largeHSmallH	correct	congruent	2.9531	yes	H	H
416.59375	n/a	106648	responseLargeH	correct	n/a	2.9531	yes	n/a	n/a
417.6679688	n/a	106923	largeHSmallT	correct	incongruent	2.0352	yes	H	T
419.703125	n/a	107444	responseLargeH	correct	n/a	2.0352	yes	n/a	n/a
420.7617188	n/a	107715	largeTSmallT	correct	congruent	1.4883	no	T	T
422.25	n/a	108096	responseLargeT	correct	n/a	1.4883	no	n/a	n/a
423.3085938	n/a	108367	largeHSmallT	correct	incongruent	0.5	no	H	T
423.8085938	n/a	108495	responseLargeH	correct	n/a	0.5	no	n/a	n/a
424.8671875	n/a	108766	largeHSmallH	correct	congruent	0.58594	no	H	H
425.453125	n/a	108916	responseLargeH	correct	n/a	0.58594	no	n/a	n/a
426.5234375	n/a	109190	largeTSmallT	correct	congruent	0.62109	no	T	T
427.1445312	n/a	109349	responseLargeT	correct	n/a	0.62109	no	n/a	n/a
428.203125	n/a	109620	largeTSmallH	correct	incongruent	1.3945	no	T	H
429.5976562	n/a	109977	responseLargeT	correct	n/a	1.3945	no	n/a	n/a
430.65625	n/a	110248	largeHSmallH	correct	congruent	0.54297	no	H	H
431.1992188	n/a	110387	responseLargeH	correct	n/a	0.54297	no	n/a	n/a
432.2695312	n/a	110661	largeTSmallH	correct	incongruent	0.51953	no	T	H
432.7890625	n/a	110794	responseLargeT	correct	n/a	0.51953	no	n/a	n/a
433.8554688	n/a	111067	largeTSmallT	correct	congruent	0.46875	no	T	T
434.3242188	n/a	111187	responseLargeT	correct	n/a	0.46875	no	n/a	n/a
435.3867188	n/a	111459	largeTSmallT	correct	congruent	0.42188	no	T	T
435.8085938	n/a	111567	responseLargeT	correct	n/a	0.42188	no	n/a	n/a
436.8828125	n/a	111842	largeTSmallT	correct	congruent	0.44922	no	T	T
437.3320312	n/a	111957	responseLargeT	correct	n/a	0.44922	no	n/a	n/a
438.4023438	n/a	112231	largeTSmallH	correct	incongruent	0.58203	no	T	H
438.984375	n/a	112380	responseLargeT	correct	n/a	0.58203	no	n/a	n/a
440.0546875	n/a	112654	largeHSmallH	correct	congruent	0.72266	no	H	H
440.7773438	n/a	112839	responseLargeH	correct	n/a	0.72266	no	n/a	n/a
441.8398438	n/a	113111	largeTSmallT	correct	congruent	0.49219	no	T	T
442.3320312	n/a	113237	responseLargeT	correct	n/a	0.49219	no	n/a	n/a
443.4023438	n/a	113511	largeHSmallH	correct	congruent	0.71094	no	H	H
444.1132812	n/a	113693	responseLargeH	correct	n/a	0.71094	no	n/a	n/a
445.1875	n/a	113968	largeHSmallT	error	incongruent	0.62891	no	H	T
445.8164062	n/a	114129	responseLargeT	error	n/a	0.62891	no	n/a	n/a
446.8828125	n/a	114402	largeTSmallH	correct	incongruent	0.5625	no	T	H
447.4453125	n/a	114546	responseLargeT	correct	n/a	0.5625	no	n/a	n/a
448.5195312	n/a	114821	largeTSmallH	correct	incongruent	0.89453	no	T	H
449.4140625	n/a	115050	responseLargeT	correct	n/a	0.89453	no	n/a	n/a
450.4804688	n/a	115323	largeTSmallT	correct	congruent	0.59375	no	T	T
451.0742188	n/a	115475	responseLargeT	correct	n/a	0.59375	no	n/a	n/a
452.1328125	n/a	115746	largeTSmallH	correct	incongruent	0.51953	no	T	H
452.6523438	n/a	115879	responseLargeT	correct	n/a	0.51953	no	n/a	n/a
460.1992188	n/a	117811	largeTSmallT	correct	congruent	1.1406	no	T	T
461.3398438	n/a	118103	responseSmallT	correct	n/a	1.1406	no	n/a	n/a
462.4023438	n/a	118375	largeTSmallT	correct	congruent	0.73047	no	T	T
463.1328125	n/a	118562	responseSmallT	correct	n/a	0.73047	no	n/a	n/a
464.1992188	n/a	118835	largeTSmallH	correct	incongruent	0.6875	no	T	H
464.8867188	n/a	119011	responseSmallH	correct	n/a	0.6875	no	n/a	n/a
465.9609375	n/a	119286	largeHSmallH	correct	congruent	0.58594	no	H	H
466.546875	n/a	119436	responseSmallH	correct	n/a	0.58594	no	n/a	n/a
467.6132812	n/a	119709	largeTSmallT	correct	congruent	0.52734	no	T	T
468.140625	n/a	119844	responseSmallT	correct	n/a	0.52734	no	n/a	n/a
469.1992188	n/a	120115	largeHSmallH	correct	congruent	0.46094	no	H	H
469.6601562	n/a	120233	responseSmallH	correct	n/a	0.46094	no	n/a	n/a
470.734375	n/a	120508	largeHSmallT	correct	incongruent	0.625	no	H	T
471.359375	n/a	120668	responseSmallT	correct	n/a	0.625	no	n/a	n/a
472.4257812	n/a	120941	largeHSmallT	correct	incongruent	0.72266	no	H	T
473.1484375	n/a	121126	responseSmallT	correct	n/a	0.72266	no	n/a	n/a
474.2148438	n/a	121399	largeTSmallH	correct	incongruent	0.53906	no	T	H
474.7539062	n/a	121537	responseSmallH	correct	n/a	0.53906	no	n/a	n/a
475.8125	n/a	121808	largeHSmallH	correct	congruent	0.53906	no	H	H
476.3515625	n/a	121946	responseSmallH	correct	n/a	0.53906	no	n/a	n/a
477.4257812	n/a	122221	largeTSmallH	correct	incongruent	0.75781	no	T	H
478.1835938	n/a	122415	responseSmallH	correct	n/a	0.75781	no	n/a	n/a
479.2539062	n/a	122689	largeTSmallH	correct	incongruent	5.8672	yes	T	H
485.1210938	n/a	124191	responseSmallH	correct	n/a	5.8672	yes	n/a	n/a
486.1992188	n/a	124467	largeHSmallT	correct	incongruent	0.77734	no	H	T
486.9765625	n/a	124666	responseSmallT	correct	n/a	0.77734	no	n/a	n/a
488.0546875	n/a	124942	largeTSmallT	correct	congruent	5.4961	yes	T	T
493.5507812	n/a	126349	responseSmallT	correct	n/a	5.4961	yes	n/a	n/a
494.6132812	n/a	126621	largeHSmallT	correct	incongruent	0.63281	no	H	T
495.2460938	n/a	126783	responseSmallT	correct	n/a	0.63281	no	n/a	n/a
496.3203125	n/a	127058	largeHSmallH	correct	congruent	0.48828	no	H	H
496.8085938	n/a	127183	responseSmallH	correct	n/a	0.48828	no	n/a	n/a
497.8789062	n/a	127457	largeTSmallH	error	incongruent	0.48828	no	T	H
498.3671875	n/a	127582	responseSmallT	error	n/a	0.48828	no	n/a	n/a
499.4414062	n/a	127857	largeHSmallH	correct	congruent	0.64453	no	H	H
500.0859375	n/a	128022	responseSmallH	correct	n/a	0.64453	no	n/a	n/a
501.1601562	n/a	128297	largeTSmallH	correct	incongruent	0.73828	no	T	H
501.8984375	n/a	128486	responseSmallH	correct	n/a	0.73828	no	n/a	n/a
502.9609375	n/a	128758	largeTSmallT	correct	congruent	0.46094	no	T	T
503.421875	n/a	128876	responseSmallT	correct	n/a	0.46094	no	n/a	n/a
504.4921875	n/a	129150	largeTSmallT	correct	congruent	0.49219	no	T	T
504.984375	n/a	129276	responseSmallT	correct	n/a	0.49219	no	n/a	n/a
506.0546875	n/a	129550	largeHSmallT	correct	incongruent	0.70312	no	H	T
506.7578125	n/a	129730	responseSmallT	correct	n/a	0.70312	no	n/a	n/a
507.828125	n/a	130004	largeHSmallT	correct	incongruent	0.66797	no	H	T
508.4960938	n/a	130175	responseSmallT	correct	n/a	0.66797	no	n/a	n/a
509.5585938	n/a	130447	largeHSmallT	correct	incongruent	0.96484	no	H	T
510.5234375	n/a	130694	responseSmallT	correct	n/a	0.96484	no	n/a	n/a
511.5859375	n/a	130966	largeHSmallT	correct	incongruent	0.066406	yes	H	T
511.6523438	n/a	130983	responseSmallT	correct	n/a	0.066406	yes	n/a	n/a
512.734375	n/a	131260	largeHSmallH	error	congruent	0.078125	yes	H	H
512.8125	n/a	131280	responseSmallT	error	n/a	0.078125	yes	n/a	n/a
513.8789062	n/a	131553	largeHSmallH	error	congruent	0.070312	yes	H	H
513.9492188	n/a	131571	responseSmallT	error	n/a	0.070312	yes	n/a	n/a
515.0273438	n/a	131847	largeHSmallH	error	congruent	0.078125	yes	H	H
515.1054688	n/a	131867	responseSmallT	error	n/a	0.078125	yes	n/a	n/a
516.171875	n/a	132140	largeTSmallT	correct	congruent	0.070312	yes	T	T
516.2421875	n/a	132158	responseSmallT	correct	n/a	0.070312	yes	n/a	n/a
517.3046875	n/a	132430	largeTSmallT	correct	congruent	0.98438	no	T	T
518.2890625	n/a	132682	responseSmallT	correct	n/a	0.98438	no	n/a	n/a
519.359375	n/a	132956	largeHSmallH	correct	congruent	0.57031	no	H	H
519.9296875	n/a	133102	responseSmallH	correct	n/a	0.57031	no	n/a	n/a
521	n/a	133376	largeHSmallH	correct	congruent	0.84375	no	H	H
521.84375	n/a	133592	responseSmallH	correct	n/a	0.84375	no	n/a	n/a
522.9179688	n/a	133867	largeHSmallT	correct	incongruent	0.51562	no	H	T
523.4335938	n/a	133999	responseSmallT	correct	n/a	0.51562	no	n/a	n/a
524.5078125	n/a	134274	largeHSmallT	correct	incongruent	0.72656	no	H	T
525.234375	n/a	134460	responseSmallT	correct	n/a	0.72656	no	n/a	n/a
526.3046875	n/a	134734	largeTSmallH	correct	incongruent	6.5312	yes	T	H
532.8359375	n/a	136406	responseSmallH	correct	n/a	6.5312	yes	n/a	n/a
533.8945312	n/a	136677	largeHSmallT	correct	incongruent	0.6875	no	H	T
534.5820312	n/a	136853	responseSmallT	correct	n/a	0.6875	no	n/a	n/a
535.640625	n/a	137124	largeTSmallH	error	incongruent	0.070312	yes	T	H
535.7109375	n/a	137142	responseSmallT	error	n/a	0.070312	yes	n/a	n/a
536.7734375	n/a	137414	largeTSmallT	correct	congruent	0.078125	yes	T	T
536.8515625	n/a	137434	responseSmallT	correct	n/a	0.078125	yes	n/a	n/a
537.9179688	n/a	137707	largeHSmallT	correct	incongruent	0.066406	yes	H	T
537.984375	n/a	137724	responseSmallT	correct	n/a	0.066406	yes	n/a	n/a
539.0507812	n/a	137997	largeTSmallH	error	incongruent	0.082031	yes	T	H
539.1328125	n/a	138018	responseSmallT	error	n/a	0.082031	yes	n/a	n/a
540.1992188	n/a	138291	largeHSmallT	correct	incongruent	0.066406	yes	H	T
540.265625	n/a	138308	responseSmallT	correct	n/a	0.066406	yes	n/a	n/a
541.3476562	n/a	138585	largeTSmallH	correct	incongruent	0.61719	no	T	H
541.9648438	n/a	138743	responseSmallH	correct	n/a	0.61719	no	n/a	n/a
543.0273438	n/a	139015	largeHSmallT	correct	incongruent	0.42188	no	H	T
543.4492188	n/a	139123	responseSmallT	correct	n/a	0.42188	no	n/a	n/a
544.5195312	n/a	139397	largeHSmallT	correct	incongruent	0.72656	no	H	T
545.2460938	n/a	139583	responseSmallT	correct	n/a	0.72656	no	n/a	n/a
546.3203125	n/a	139858	largeTSmallT	correct	congruent	7.0312	yes	T	T
553.3515625	n/a	141658	responseSmallT	correct	n/a	7.0312	yes	n/a	n/a
554.4140625	n/a	141930	largeHSmallT	correct	incongruent	0.67969	no	H	T
555.09375	n/a	142104	responseSmallT	correct	n/a	0.67969	no	n/a	n/a
556.1601562	n/a	142377	largeTSmallH	correct	incongruent	5.8867	yes	T	H
562.046875	n/a	143884	responseSmallH	correct	n/a	5.8867	yes	n/a	n/a
563.1171875	n/a	144158	largeHSmallT	correct	incongruent	0.64062	no	H	T
563.7578125	n/a	144322	responseSmallT	correct	n/a	0.64062	no	n/a	n/a
564.8242188	n/a	144595	largeHSmallT	correct	incongruent	8.9531	yes	H	T
573.7773438	n/a	146887	responseSmallT	correct	n/a	8.9531	yes	n/a	n/a
574.8515625	n/a	147162	largeTSmallT	correct	congruent	0.51953	no	T	T
575.3710938	n/a	147295	responseSmallT	correct	n/a	0.51953	no	n/a	n/a
576.4375	n/a	147568	largeHSmallH	correct	congruent	1.2578	no	H	H
577.6953125	n/a	147890	responseSmallH	correct	n/a	1.2578	no	n/a	n/a
578.7578125	n/a	148162	largeHSmallH	correct	congruent	0.60547	no	H	H
579.3632812	n/a	148317	responseSmallH	correct	n/a	0.60547	no	n/a	n/a
580.4375	n/a	148592	largeHSmallT	correct	incongruent	8.4297	yes	H	T
588.8671875	n/a	150750	responseSmallT	correct	n/a	8.4297	yes	n/a	n/a
589.9296875	n/a	151022	largeHSmallH	correct	congruent	0.59766	no	H	H
590.5273438	n/a	151175	responseSmallH	correct	n/a	0.59766	no	n/a	n/a
591.5859375	n/a	151446	largeTSmallH	correct	incongruent	0.59375	no	T	H
592.1796875	n/a	151598	responseSmallH	correct	n/a	0.59375	no	n/a	n/a
593.2382812	n/a	151869	largeTSmallH	correct	incongruent	0.68359	no	T	H
593.921875	n/a	152044	responseSmallH	correct	n/a	0.68359	no	n/a	n/a
594.984375	n/a	152316	largeHSmallT	correct	incongruent	0.67578	no	H	T
595.6601562	n/a	152489	responseSmallT	correct	n/a	0.67578	no	n/a	n/a
596.71875	n/a	152760	largeHSmallH	correct	congruent	10.6836	yes	H	H
607.4023438	n/a	155495	responseSmallH	correct	n/a	10.6836	yes	n/a	n/a
608.4648438	n/a	155767	largeHSmallH	correct	congruent	0.53906	no	H	H
609.0039062	n/a	155905	responseSmallH	correct	n/a	0.53906	no	n/a	n/a
610.078125	n/a	156180	largeTSmallH	correct	incongruent	0.55078	no	T	H
610.6289062	n/a	156321	responseSmallH	correct	n/a	0.55078	no	n/a	n/a
611.6914062	n/a	156593	largeHSmallT	correct	incongruent	0.73438	no	H	T
612.4257812	n/a	156781	responseSmallT	correct	n/a	0.73438	no	n/a	n/a
613.4921875	n/a	157054	largeTSmallT	correct	congruent	2.4102	yes	T	T
615.9023438	n/a	157671	responseSmallT	correct	n/a	2.4102	yes	n/a	n/a
616.9726562	n/a	157945	largeHSmallT	correct	incongruent	8.668	yes	H	T
625.640625	n/a	160164	responseSmallT	correct	n/a	8.668	yes	n/a	n/a
626.703125	n/a	160436	largeTSmallT	correct	congruent	0.52344	no	T	T
627.2265625	n/a	160570	responseSmallT	correct	n/a	0.52344	no	n/a	n/a
628.2890625	n/a	160842	largeHSmallT	correct	incongruent	0.58203	no	H	T
628.8710938	n/a	160991	responseSmallT	correct	n/a	0.58203	no	n/a	n/a
629.9296875	n/a	161262	largeTSmallH	correct	incongruent	0.5625	no	T	H
630.4921875	n/a	161406	responseSmallH	correct	n/a	0.5625	no	n/a	n/a
631.5585938	n/a	161679	largeHSmallT	correct	incongruent	0.61719	no	H	T
632.1757812	n/a	161837	responseSmallT	correct	n/a	0.61719	no	n/a	n/a
633.2382812	n/a	162109	largeHSmallH	correct	congruent	0.47656	no	H	H
633.7148438	n/a	162231	responseSmallH	correct	n/a	0.47656	no	n/a	n/a
634.7851562	n/a	162505	largeTSmallT	correct	congruent	5.6719	yes	T	T
640.4570312	n/a	163957	responseSmallT	correct	n/a	5.6719	yes	n/a	n/a
641.53125	n/a	164232	largeTSmallH	correct	incongruent	0.66016	no	T	H
642.1914062	n/a	164401	responseSmallH	correct	n/a	0.66016	no	n/a	n/a
643.25	n/a	164672	largeTSmallH	correct	incongruent	9.2578	yes	T	H
652.5078125	n/a	167042	responseSmallH	correct	n/a	9.2578	yes	n/a	n/a
653.5820312	n/a	167317	largeTSmallH	correct	incongruent	0.49609	no	T	H
654.078125	n/a	167444	responseSmallH	correct	n/a	0.49609	no	n/a	n/a
655.1445312	n/a	167717	largeTSmallH	correct	incongruent	0.51953	no	T	H
655.6640625	n/a	167850	responseSmallH	correct	n/a	0.51953	no	n/a	n/a
656.7304688	n/a	168123	largeHSmallH	correct	congruent	5.6562	yes	H	H
662.3867188	n/a	169571	responseSmallH	correct	n/a	5.6562	yes	n/a	n/a
663.4492188	n/a	169843	largeTSmallH	correct	incongruent	0.50391	no	T	H
663.953125	n/a	169972	responseSmallH	correct	n/a	0.50391	no	n/a	n/a
665.0234375	n/a	170246	largeHSmallH	correct	congruent	5.5195	yes	H	H
670.5429688	n/a	171659	responseSmallH	correct	n/a	5.5195	yes	n/a	n/a
671.609375	n/a	171932	largeHSmallH	correct	congruent	0.57422	no	H	H
672.1835938	n/a	172079	responseSmallH	correct	n/a	0.57422	no	n/a	n/a
673.25	n/a	172352	largeTSmallH	correct	incongruent	0.78906	no	T	H
674.0390625	n/a	172554	responseSmallH	correct	n/a	0.78906	no	n/a	n/a
675.1015625	n/a	172826	largeHSmallT	error	incongruent	12.7148	yes	H	T
687.8164062	n/a	176081	responseSmallH	error	n/a	12.7148	yes	n/a	n/a
688.890625	n/a	176356	largeTSmallH	correct	incongruent	1.0234	no	T	H
689.9140625	n/a	176618	responseSmallH	correct	n/a	1.0234	no	n/a	n/a
690.9804688	n/a	176891	largeHSmallT	correct	incongruent	0.58594	no	H	T
691.5664062	n/a	177041	responseSmallT	correct	n/a	0.58594	no	n/a	n/a
692.6367188	n/a	177315	largeTSmallT	correct	congruent	0.70703	no	T	T
693.34375	n/a	177496	responseSmallT	correct	n/a	0.70703	no	n/a	n/a
694.4101562	n/a	177769	largeTSmallT	correct	congruent	0.48438	no	T	T
694.8945312	n/a	177893	responseSmallT	correct	n/a	0.48438	no	n/a	n/a
695.96875	n/a	178168	largeHSmallH	correct	congruent	0.56641	no	H	H
696.5351562	n/a	178313	responseSmallH	correct	n/a	0.56641	no	n/a	n/a
697.609375	n/a	178588	largeTSmallT	correct	congruent	0.94531	no	T	T
698.5546875	n/a	178830	responseSmallT	correct	n/a	0.94531	no	n/a	n/a
699.6210938	n/a	179103	largeTSmallT	correct	congruent	3.5586	yes	T	T
703.1796875	n/a	180014	responseSmallT	correct	n/a	3.5586	yes	n/a	n/a
704.25	n/a	180288	largeTSmallT	correct	congruent	0.625	no	T	T
704.875	n/a	180448	responseSmallT	correct	n/a	0.625	no	n/a	n/a
705.9296875	n/a	180718	largeTSmallH	correct	incongruent	3.9258	yes	T	H
709.8554688	n/a	181723	responseSmallH	correct	n/a	3.9258	yes	n/a	n/a
710.9296875	n/a	181998	largeTSmallT	correct	congruent	0.57422	no	T	T
711.5039062	n/a	182145	responseSmallT	correct	n/a	0.57422	no	n/a	n/a
712.5703125	n/a	182418	largeTSmallT	correct	congruent	5.6367	yes	T	T
718.2070312	n/a	183861	responseSmallT	correct	n/a	5.6367	yes	n/a	n/a
719.2734375	n/a	184134	largeTSmallH	error	incongruent	0.46484	no	T	H
719.7382812	n/a	184253	responseSmallT	error	n/a	0.46484	no	n/a	n/a
720.8085938	n/a	184527	largeHSmallT	correct	incongruent	0.65234	no	H	T
721.4609375	n/a	184694	responseSmallT	correct	n/a	0.65234	no	n/a	n/a
722.5273438	n/a	184967	largeTSmallT	correct	congruent	0.63672	no	T	T
723.1640625	n/a	185130	responseSmallT	correct	n/a	0.63672	no	n/a	n/a
724.234375	n/a	185404	largeHSmallT	correct	incongruent	1.5352	yes	H	T
725.7695312	n/a	185797	responseSmallT	correct	n/a	1.5352	yes	n/a	n/a
726.8359375	n/a	186070	largeHSmallH	correct	congruent	8.4219	yes	H	H
735.2578125	n/a	188226	responseSmallH	correct	n/a	8.4219	yes	n/a	n/a
736.328125	n/a	188500	largeTSmallH	correct	incongruent	0.74219	no	T	H
737.0703125	n/a	188690	responseSmallH	correct	n/a	0.74219	no	n/a	n/a
738.140625	n/a	188964	largeTSmallH	correct	incongruent	0.62109	no	T	H
738.7617188	n/a	189123	responseSmallH	correct	n/a	0.62109	no	n/a	n/a
739.8359375	n/a	189398	largeHSmallT	correct	incongruent	1.0234	no	H	T
740.859375	n/a	189660	responseSmallT	correct	n/a	1.0234	no	n/a	n/a
741.9296875	n/a	189934	largeHSmallT	correct	incongruent	0.54297	no	H	T
742.4726562	n/a	190073	responseSmallT	correct	n/a	0.54297	no	n/a	n/a
743.5546875	n/a	190350	largeTSmallH	correct	incongruent	1.6914	yes	T	H
745.2460938	n/a	190783	responseSmallH	correct	n/a	1.6914	yes	n/a	n/a
746.3164062	n/a	191057	largeHSmallH	correct	congruent	0.53125	no	H	H
746.8476562	n/a	191193	responseSmallH	correct	n/a	0.53125	no	n/a	n/a
747.9140625	n/a	191466	largeTSmallH	correct	incongruent	0.42969	no	T	H
748.34375	n/a	191576	responseSmallH	correct	n/a	0.42969	no	n/a	n/a
749.40625	n/a	191848	largeHSmallH	n/a	congruent	n/a	n/a	H	H
758.6992188	n/a	194227	largeHSmallT	error	incongruent	0.082031	yes	H	T
758.78125	n/a	194248	responseSmallH	error	n/a	0.082031	yes	n/a	n/a
759.8476562	n/a	194521	largeTSmallT	n/a	congruent	n/a	n/a	T	T
761.96875	n/a	195064	largeHSmallH	correct	congruent	2.6328	yes	H	H
764.6015625	n/a	195738	responseSmallH	correct	n/a	2.6328	yes	n/a	n/a
765.6757812	n/a	196013	largeTSmallT	correct	congruent	7	yes	T	T
772.6757812	n/a	197805	responseSmallT	correct	n/a	7	yes	n/a	n/a
773.7539062	n/a	198081	largeTSmallT	correct	congruent	0.53516	no	T	T
774.2890625	n/a	198218	responseSmallT	correct	n/a	0.53516	no	n/a	n/a
775.3554688	n/a	198491	largeTSmallH	correct	incongruent	9.8359	yes	T	H
785.1914062	n/a	201009	responseSmallH	correct	n/a	9.8359	yes	n/a	n/a
786.2617188	n/a	201283	largeTSmallT	n/a	congruent	n/a	n/a	T	T
788.3945312	n/a	201829	largeHSmallT	n/a	incongruent	n/a	n/a	H	T
790.046875	n/a	202252	largeTSmallT	n/a	congruent	n/a	n/a	T	T
791.6210938	n/a	202655	largeHSmallT	n/a	incongruent	n/a	n/a	H	T
793.0742188	n/a	203027	largeHSmallH	correct	congruent	5.2461	yes	H	H
798.3203125	n/a	204370	responseSmallH	correct	n/a	5.2461	yes	n/a	n/a
799.3945312	n/a	204645	largeTSmallT	n/a	congruent	n/a	n/a	T	T
806.046875	n/a	206348	largeTSmallH	correct	incongruent	0.66406	no	T	H
806.7109375	n/a	206518	responseSmallH	correct	n/a	0.66406	no	n/a	n/a
807.78125	n/a	206792	largeHSmallH	correct	congruent	10.9414	yes	H	H
818.7226562	n/a	209593	responseSmallH	correct	n/a	10.9414	yes	n/a	n/a
819.7929688	n/a	209867	largeTSmallH	correct	incongruent	0.76953	no	T	H
820.5625	n/a	210064	responseSmallH	correct	n/a	0.76953	no	n/a	n/a
821.6210938	n/a	210335	largeTSmallT	n/a	congruent	n/a	n/a	T	T
823.4179688	n/a	210795	largeTSmallH	correct	incongruent	0.51562	no	T	H
823.9335938	n/a	210927	responseSmallH	correct	n/a	0.51562	no	n/a	n/a
824.9921875	n/a	211198	largeHSmallH	correct	congruent	0.52734	no	H	H
825.5195312	n/a	211333	responseSmallH	correct	n/a	0.52734	no	n/a	n/a
826.59375	n/a	211608	largeHSmallH	correct	congruent	0.49219	no	H	H
827.0859375	n/a	211734	responseSmallH	correct	n/a	0.49219	no	n/a	n/a
828.140625	n/a	212004	largeTSmallH	correct	incongruent	0.50391	no	T	H
828.6445312	n/a	212133	responseSmallH	correct	n/a	0.50391	no	n/a	n/a
829.7109375	n/a	212406	largeHSmallH	correct	congruent	0.40625	no	H	H
830.1171875	n/a	212510	responseSmallH	correct	n/a	0.40625	no	n/a	n/a
831.1914062	n/a	212785	largeTSmallT	error	congruent	0.35938	no	T	T
831.5507812	n/a	212877	responseSmallH	error	n/a	0.35938	no	n/a	n/a
832.6210938	n/a	213151	largeHSmallH	correct	congruent	1.1523	no	H	H
833.7734375	n/a	213446	responseSmallH	correct	n/a	1.1523	no	n/a	n/a
834.8320312	n/a	213717	largeTSmallT	correct	congruent	2.0273	yes	T	T
836.859375	n/a	214236	responseSmallT	correct	n/a	2.0273	yes	n/a	n/a
837.9257812	n/a	214509	largeTSmallT	correct	congruent	0.51172	no	T	T
838.4375	n/a	214640	responseSmallT	correct	n/a	0.51172	no	n/a	n/a
839.5	n/a	214912	largeHSmallH	correct	congruent	0.53516	no	H	H
840.0351562	n/a	215049	responseSmallH	correct	n/a	0.53516	no	n/a	n/a
841.1132812	n/a	215325	largeTSmallT	correct	congruent	0.44922	no	T	T
841.5625	n/a	215440	responseSmallT	correct	n/a	0.44922	no	n/a	n/a
842.6445312	n/a	215717	largeHSmallH	correct	congruent	0.46875	no	H	H
843.1132812	n/a	215837	responseSmallH	correct	n/a	0.46875	no	n/a	n/a
844.1796875	n/a	216110	largeTSmallT	correct	congruent	0.49219	no	T	T
844.671875	n/a	216236	responseSmallT	correct	n/a	0.49219	no	n/a	n/a
845.7382812	n/a	216509	largeTSmallT	correct	congruent	0.75391	no	T	T
846.4921875	n/a	216702	responseSmallT	correct	n/a	0.75391	no	n/a	n/a
847.5507812	n/a	216973	largeHSmallT	correct	incongruent	1.0117	no	H	T
848.5625	n/a	217232	responseSmallT	correct	n/a	1.0117	no	n/a	n/a
849.6328125	n/a	217506	largeHSmallH	correct	congruent	4.1719	yes	H	H
853.8046875	n/a	218574	responseSmallH	correct	n/a	4.1719	yes	n/a	n/a
854.8710938	n/a	218847	largeTSmallH	correct	incongruent	0.57031	no	T	H
855.4414062	n/a	218993	responseSmallH	correct	n/a	0.57031	no	n/a	n/a
856.5117188	n/a	219267	largeTSmallT	correct	congruent	0.57422	no	T	T
857.0859375	n/a	219414	responseSmallT	correct	n/a	0.57422	no	n/a	n/a
858.1640625	n/a	219690	largeTSmallT	correct	congruent	0.45312	no	T	T
858.6171875	n/a	219806	responseSmallT	correct	n/a	0.45312	no	n/a	n/a
859.6992188	n/a	220083	largeHSmallH	correct	congruent	0.46875	no	H	H
860.1679688	n/a	220203	responseSmallH	correct	n/a	0.46875	no	n/a	n/a
861.2304688	n/a	220475	largeTSmallH	correct	incongruent	0.75	no	T	H
861.9804688	n/a	220667	responseSmallH	correct	n/a	0.75	no	n/a	n/a
863.046875	n/a	220940	largeTSmallH	correct	incongruent	7.082	yes	T	H
870.1289062	n/a	222753	responseSmallH	correct	n/a	7.082	yes	n/a	n/a
871.2070312	n/a	223029	largeTSmallH	correct	incongruent	0.57031	no	T	H
871.7773438	n/a	223175	responseSmallH	correct	n/a	0.57031	no	n/a	n/a
872.84375	n/a	223448	largeTSmallT	correct	congruent	7.0586	yes	T	T
879.9023438	n/a	225255	responseSmallT	correct	n/a	7.0586	yes	n/a	n/a
880.9648438	n/a	225527	largeHSmallT	error	incongruent	6.6523	yes	H	T
887.6171875	n/a	227230	responseSmallH	error	n/a	6.6523	yes	n/a	n/a
888.6835938	n/a	227503	largeTSmallH	correct	incongruent	0.46875	no	T	H
889.1523438	n/a	227623	responseSmallH	correct	n/a	0.46875	no	n/a	n/a
890.21875	n/a	227896	largeTSmallH	correct	incongruent	1.4336	no	T	H
891.6523438	n/a	228263	responseSmallH	correct	n/a	1.4336	no	n/a	n/a
892.7109375	n/a	228534	largeTSmallH	correct	incongruent	0.375	no	T	H
893.0859375	n/a	228630	responseSmallH	correct	n/a	0.375	no	n/a	n/a
894.1523438	n/a	228903	largeHSmallT	correct	incongruent	0.54688	no	H	T
894.6992188	n/a	229043	responseSmallT	correct	n/a	0.54688	no	n/a	n/a
895.7773438	n/a	229319	largeHSmallT	correct	incongruent	8.5078	yes	H	T
904.2851562	n/a	231497	responseSmallT	correct	n/a	8.5078	yes	n/a	n/a
905.3515625	n/a	231770	largeHSmallT	correct	incongruent	0.92188	no	H	T
906.2734375	n/a	232006	responseSmallT	correct	n/a	0.92188	no	n/a	n/a
907.3359375	n/a	232278	largeHSmallH	correct	congruent	7.7305	yes	H	H
915.0664062	n/a	234257	responseSmallH	correct	n/a	7.7305	yes	n/a	n/a
916.1367188	n/a	234531	largeTSmallH	correct	incongruent	0.48828	no	T	H
916.625	n/a	234656	responseSmallH	correct	n/a	0.48828	no	n/a	n/a
917.6992188	n/a	234931	largeHSmallH	correct	congruent	0.50391	no	H	H
918.203125	n/a	235060	responseSmallH	correct	n/a	0.50391	no	n/a	n/a
919.2695312	n/a	235333	largeTSmallH	correct	incongruent	2.9219	yes	T	H
922.1914062	n/a	236081	responseSmallH	correct	n/a	2.9219	yes	n/a	n/a
923.2578125	n/a	236354	largeHSmallH	correct	congruent	1.9805	yes	H	H
925.2382812	n/a	236861	responseSmallH	correct	n/a	1.9805	yes	n/a	n/a
926.296875	n/a	237132	largeTSmallH	correct	incongruent	0.63672	no	T	H
926.9335938	n/a	237295	responseSmallH	correct	n/a	0.63672	no	n/a	n/a
928.0039062	n/a	237569	largeTSmallH	correct	incongruent	0.80859	no	T	H
928.8125	n/a	237776	responseSmallH	correct	n/a	0.80859	no	n/a	n/a
929.8710938	n/a	238047	largeTSmallH	correct	incongruent	3.6328	yes	T	H
933.5039062	n/a	238977	responseSmallH	correct	n/a	3.6328	yes	n/a	n/a
934.578125	n/a	239252	largeTSmallT	correct	congruent	1.7852	yes	T	T
936.3632812	n/a	239709	responseSmallT	correct	n/a	1.7852	yes	n/a	n/a
937.4296875	n/a	239982	largeHSmallT	correct	incongruent	6.8359	yes	H	T
944.265625	n/a	241732	responseSmallT	correct	n/a	6.8359	yes	n/a	n/a
945.3359375	n/a	242006	largeHSmallH	correct	congruent	0.65234	no	H	H
945.9882812	n/a	242173	responseSmallH	correct	n/a	0.65234	no	n/a	n/a
947.0585938	n/a	242447	largeHSmallH	correct	congruent	11.8633	yes	H	H
958.921875	n/a	245484	responseSmallH	correct	n/a	11.8633	yes	n/a	n/a
959.9882812	n/a	245757	largeTSmallT	error	congruent	0.67578	no	T	T
960.6640625	n/a	245930	responseSmallH	error	n/a	0.67578	no	n/a	n/a
961.7382812	n/a	246205	largeTSmallT	correct	congruent	7.9453	yes	T	T
969.6835938	n/a	248239	responseSmallT	correct	n/a	7.9453	yes	n/a	n/a
970.75	n/a	248512	largeHSmallH	correct	congruent	9.3477	yes	H	H
980.0976562	n/a	250905	responseSmallH	correct	n/a	9.3477	yes	n/a	n/a
981.1640625	n/a	251178	largeTSmallH	correct	incongruent	0.91016	no	T	H
982.0742188	n/a	251411	responseSmallH	correct	n/a	0.91016	no	n/a	n/a
983.1367188	n/a	251683	largeHSmallT	correct	incongruent	0.74609	no	H	T
983.8828125	n/a	251874	responseSmallT	correct	n/a	0.74609	no	n/a	n/a
984.9492188	n/a	252147	largeTSmallH	correct	incongruent	0.86328	no	T	H
985.8125	n/a	252368	responseSmallH	correct	n/a	0.86328	no	n/a	n/a
986.8828125	n/a	252642	largeTSmallT	correct	congruent	1.0312	no	T	T
987.9140625	n/a	252906	responseSmallT	correct	n/a	1.0312	no	n/a	n/a
988.9882812	n/a	253181	largeTSmallH	correct	incongruent	0.59375	no	T	H
989.5820312	n/a	253333	responseSmallH	correct	n/a	0.59375	no	n/a	n/a
990.65625	n/a	253608	largeHSmallH	correct	congruent	0.61328	no	H	H
991.2695312	n/a	253765	responseSmallH	correct	n/a	0.61328	no	n/a	n/a
992.3359375	n/a	254038	largeTSmallT	correct	congruent	0.66797	no	T	T
993.0039062	n/a	254209	responseSmallT	correct	n/a	0.66797	no	n/a	n/a
994.0703125	n/a	254482	largeHSmallH	correct	congruent	0.48828	no	H	H
994.5585938	n/a	254607	responseSmallH	correct	n/a	0.48828	no	n/a	n/a
995.6289062	n/a	254881	largeTSmallT	correct	congruent	0.53516	no	T	T
996.1640625	n/a	255018	responseSmallT	correct	n/a	0.53516	no	n/a	n/a
997.2304688	n/a	255291	largeHSmallH	correct	congruent	1.1328	no	H	H
998.3632812	n/a	255581	responseSmallH	correct	n/a	1.1328	no	n/a	n/a
999.4414062	n/a	255857	largeTSmallH	correct	incongruent	2.3398	yes	T	H
1001.78125	n/a	256456	responseSmallH	correct	n/a	2.3398	yes	n/a	n/a
1002.855469	n/a	256731	largeTSmallT	correct	congruent	7.3125	yes	T	T
1010.167969	n/a	258603	responseSmallT	correct	n/a	7.3125	yes	n/a	n/a
1011.230469	n/a	258875	largeHSmallH	correct	congruent	0.71484	no	H	H
1011.945312	n/a	259058	responseSmallH	correct	n/a	0.71484	no	n/a	n/a
1013	n/a	259328	largeTSmallH	correct	incongruent	4	yes	T	H
1017	n/a	260352	responseSmallH	correct	n/a	4	yes	n/a	n/a
1018.070312	n/a	260626	largeHSmallT	correct	incongruent	12.4883	yes	H	T
1030.558594	n/a	263823	responseSmallT	correct	n/a	12.4883	yes	n/a	n/a
1031.613281	n/a	264093	largeHSmallH	correct	congruent	0.82422	no	H	H
1032.4375	n/a	264304	responseSmallH	correct	n/a	0.82422	no	n/a	n/a
1033.507812	n/a	264578	largeHSmallT	correct	incongruent	0.55859	no	H	T
1034.066406	n/a	264721	responseSmallT	correct	n/a	0.55859	no	n/a	n/a
1035.132812	n/a	264994	largeHSmallT	correct	incongruent	0.55469	no	H	T
1035.6875	n/a	265136	responseSmallT	correct	n/a	0.55469	no	n/a	n/a
1036.746094	n/a	265407	largeTSmallT	correct	congruent	3.9688	yes	T	T
1040.714844	n/a	266423	responseSmallT	correct	n/a	3.9688	yes	n/a	n/a
1041.773438	n/a	266694	largeTSmallT	correct	congruent	6.5	yes	T	T
1048.273438	n/a	268358	responseSmallT	correct	n/a	6.5	yes	n/a	n/a
1049.335938	n/a	268630	largeHSmallT	error	incongruent	2.1094	yes	H	T
1051.445312	n/a	269170	responseSmallH	error	n/a	2.1094	yes	n/a	n/a
1052.507812	n/a	269442	largeHSmallT	correct	incongruent	2.0703	yes	H	T
1054.578125	n/a	269972	responseSmallT	correct	n/a	2.0703	yes	n/a	n/a
1055.640625	n/a	270244	largeHSmallT	correct	incongruent	1.0742	no	H	T
1056.714844	n/a	270519	responseSmallT	correct	n/a	1.0742	no	n/a	n/a
1057.773438	n/a	270790	largeHSmallH	correct	congruent	0.5625	no	H	H
1058.335938	n/a	270934	responseSmallH	correct	n/a	0.5625	no	n/a	n/a
1059.402344	n/a	271207	largeTSmallT	correct	congruent	0.55078	no	T	T
1059.953125	n/a	271348	responseSmallT	correct	n/a	0.55078	no	n/a	n/a
1061.027344	n/a	271623	largeHSmallH	correct	congruent	0.61719	no	H	H
1061.644531	n/a	271781	responseSmallH	correct	n/a	0.61719	no	n/a	n/a
1062.707031	n/a	272053	largeHSmallH	correct	congruent	1.043	no	H	H
1063.75	n/a	272320	responseSmallH	correct	n/a	1.043	no	n/a	n/a
1064.8125	n/a	272592	largeHSmallH	correct	congruent	0.51953	no	H	H
1065.332031	n/a	272725	responseSmallH	correct	n/a	0.51953	no	n/a	n/a
1066.386719	n/a	272995	largeHSmallT	correct	incongruent	0.96875	no	H	T
1067.355469	n/a	273243	responseSmallT	correct	n/a	0.96875	no	n/a	n/a
1068.414062	n/a	273514	largeTSmallT	correct	congruent	0.55469	no	T	T
1068.96875	n/a	273656	responseSmallT	correct	n/a	0.55469	no	n/a	n/a
1070.039062	n/a	273930	largeTSmallT	error	congruent	0.86328	no	T	T
1070.902344	n/a	274151	responseSmallH	error	n/a	0.86328	no	n/a	n/a
1071.972656	n/a	274425	largeHSmallT	correct	incongruent	0.57422	no	H	T
1072.546875	n/a	274572	responseSmallT	correct	n/a	0.57422	no	n/a	n/a
1073.613281	n/a	274845	largeHSmallT	correct	incongruent	0.52344	no	H	T
1074.136719	n/a	274979	responseSmallT	correct	n/a	0.52344	no	n/a	n/a
1075.199219	n/a	275251	largeHSmallH	correct	congruent	0.60156	no	H	H
1075.800781	n/a	275405	responseSmallH	correct	n/a	0.60156	no	n/a	n/a
1076.867188	n/a	275678	largeHSmallT	correct	incongruent	0.57422	no	H	T
1077.441406	n/a	275825	responseSmallT	correct	n/a	0.57422	no	n/a	n/a
1081.265625	n/a	276804	largeTSmallH	error	incongruent	1.875	yes	T	H
1083.140625	n/a	277284	responseLargeH	error	n/a	1.875	yes	n/a	n/a
1084.199219	n/a	277555	largeTSmallH	correct	incongruent	1.1875	no	T	H
1085.386719	n/a	277859	responseLargeT	correct	n/a	1.1875	no	n/a	n/a
1086.453125	n/a	278132	largeTSmallH	correct	incongruent	0.71875	no	T	H
1087.171875	n/a	278316	responseLargeT	correct	n/a	0.71875	no	n/a	n/a
1088.242188	n/a	278590	largeTSmallH	correct	incongruent	0.64453	no	T	H
1088.886719	n/a	278755	responseLargeT	correct	n/a	0.64453	no	n/a	n/a
1089.960938	n/a	279030	largeHSmallH	correct	congruent	0.54688	no	H	H
1090.507812	n/a	279170	responseLargeH	correct	n/a	0.54688	no	n/a	n/a
1091.574219	n/a	279443	largeTSmallT	correct	congruent	0.51172	no	T	T
1092.085938	n/a	279574	responseLargeT	correct	n/a	0.51172	no	n/a	n/a
1093.148438	n/a	279846	largeHSmallH	correct	congruent	0.625	no	H	H
1093.773438	n/a	280006	responseLargeH	correct	n/a	0.625	no	n/a	n/a
1094.839844	n/a	280279	largeTSmallH	correct	incongruent	0.96484	no	T	H
1095.804688	n/a	280526	responseLargeT	correct	n/a	0.96484	no	n/a	n/a
1096.878906	n/a	280801	largeHSmallH	correct	congruent	0.43359	no	H	H
1097.3125	n/a	280912	responseLargeH	correct	n/a	0.43359	no	n/a	n/a
1098.375	n/a	281184	largeTSmallH	correct	incongruent	0.54297	no	T	H
1098.917969	n/a	281323	responseLargeT	correct	n/a	0.54297	no	n/a	n/a
1099.972656	n/a	281593	largeHSmallH	correct	congruent	0.42578	no	H	H
1100.398438	n/a	281702	responseLargeH	correct	n/a	0.42578	no	n/a	n/a
1101.480469	n/a	281979	largeHSmallH	error	congruent	0.34766	no	H	H
1101.828125	n/a	282068	responseLargeT	error	n/a	0.34766	no	n/a	n/a
1102.894531	n/a	282341	largeTSmallT	correct	congruent	0.49609	no	T	T
1103.390625	n/a	282468	responseLargeT	correct	n/a	0.49609	no	n/a	n/a
1104.453125	n/a	282740	largeHSmallH	correct	congruent	0.50391	no	H	H
1104.957031	n/a	282869	responseLargeH	correct	n/a	0.50391	no	n/a	n/a
1106.027344	n/a	283143	largeTSmallT	correct	congruent	0.65234	no	T	T
1106.679688	n/a	283310	responseLargeT	correct	n/a	0.65234	no	n/a	n/a
1107.746094	n/a	283583	largeHSmallH	correct	congruent	0.58594	no	H	H
1108.332031	n/a	283733	responseLargeH	correct	n/a	0.58594	no	n/a	n/a
1109.398438	n/a	284006	largeHSmallT	correct	incongruent	1.7344	yes	H	T
1111.132812	n/a	284450	responseLargeH	correct	n/a	1.7344	yes	n/a	n/a
1112.214844	n/a	284727	largeTSmallH	correct	incongruent	0.5625	no	T	H
1112.777344	n/a	284871	responseLargeT	correct	n/a	0.5625	no	n/a	n/a
1113.851562	n/a	285146	largeHSmallT	correct	incongruent	1.5781	yes	H	T
1115.429688	n/a	285550	responseLargeH	correct	n/a	1.5781	yes	n/a	n/a
1116.492188	n/a	285822	largeHSmallH	correct	congruent	1.8789	yes	H	H
1118.371094	n/a	286303	responseLargeH	correct	n/a	1.8789	yes	n/a	n/a
1119.425781	n/a	286573	largeTSmallT	correct	congruent	0.92969	no	T	T
1120.355469	n/a	286811	responseLargeT	correct	n/a	0.92969	no	n/a	n/a
1121.425781	n/a	287085	largeTSmallH	correct	incongruent	1.8906	yes	T	H
1123.316406	n/a	287569	responseLargeT	correct	n/a	1.8906	yes	n/a	n/a
1124.386719	n/a	287843	largeHSmallT	correct	incongruent	0.61719	no	H	T
1125.003906	n/a	288001	responseLargeH	correct	n/a	0.61719	no	n/a	n/a
1126.078125	n/a	288276	largeHSmallH	correct	congruent	0.61328	no	H	H
1126.691406	n/a	288433	responseLargeH	correct	n/a	0.61328	no	n/a	n/a
1127.757812	n/a	288706	largeTSmallH	correct	incongruent	0.81641	no	T	H
1128.574219	n/a	288915	responseLargeT	correct	n/a	0.81641	no	n/a	n/a
1129.640625	n/a	289188	largeTSmallH	correct	incongruent	1.3828	no	T	H
1131.023438	n/a	289542	responseLargeT	correct	n/a	1.3828	no	n/a	n/a
1132.09375	n/a	289816	largeHSmallT	correct	incongruent	0.51953	no	H	T
1132.613281	n/a	289949	responseLargeH	correct	n/a	0.51953	no	n/a	n/a
1133.679688	n/a	290222	largeTSmallH	correct	incongruent	0.71484	no	T	H
1134.394531	n/a	290405	responseLargeT	correct	n/a	0.71484	no	n/a	n/a
1135.464844	n/a	290679	largeHSmallT	correct	incongruent	0.58984	no	H	T
1136.054688	n/a	290830	responseLargeH	correct	n/a	0.58984	no	n/a	n/a
1137.121094	n/a	291103	largeHSmallH	correct	congruent	0.82031	no	H	H
1137.941406	n/a	291313	responseLargeH	correct	n/a	0.82031	no	n/a	n/a
1139.011719	n/a	291587	largeTSmallT	correct	congruent	0.80078	no	T	T
1139.8125	n/a	291792	responseLargeT	correct	n/a	0.80078	no	n/a	n/a
1140.878906	n/a	292065	largeHSmallH	correct	congruent	0.70703	no	H	H
1141.585938	n/a	292246	responseLargeH	correct	n/a	0.70703	no	n/a	n/a
1142.664062	n/a	292522	largeTSmallH	correct	incongruent	0.46484	no	T	H
1143.128906	n/a	292641	responseLargeT	correct	n/a	0.46484	no	n/a	n/a
1144.1875	n/a	292912	largeHSmallH	correct	congruent	0.42578	no	H	H
1144.613281	n/a	293021	responseLargeH	correct	n/a	0.42578	no	n/a	n/a
1145.691406	n/a	293297	largeHSmallH	correct	congruent	0.95703	no	H	H
1146.648438	n/a	293542	responseLargeH	correct	n/a	0.95703	no	n/a	n/a
1147.71875	n/a	293816	largeTSmallH	correct	incongruent	0.42188	no	T	H
1148.140625	n/a	293924	responseLargeT	correct	n/a	0.42188	no	n/a	n/a
1149.210938	n/a	294198	largeHSmallH	correct	congruent	0.33203	no	H	H
1149.542969	n/a	294283	responseLargeH	correct	n/a	0.33203	no	n/a	n/a
1150.613281	n/a	294557	largeHSmallT	correct	incongruent	0.44922	no	H	T
1151.0625	n/a	294672	responseLargeH	correct	n/a	0.44922	no	n/a	n/a
1152.132812	n/a	294946	largeTSmallT	correct	congruent	0.51953	no	T	T
1152.652344	n/a	295079	responseLargeT	correct	n/a	0.51953	no	n/a	n/a
1153.71875	n/a	295352	largeTSmallT	correct	congruent	0.49609	no	T	T
1154.214844	n/a	295479	responseLargeT	correct	n/a	0.49609	no	n/a	n/a
1155.277344	n/a	295751	largeHSmallT	correct	incongruent	0.58594	no	H	T
1155.863281	n/a	295901	responseLargeH	correct	n/a	0.58594	no	n/a	n/a
1156.933594	n/a	296175	largeHSmallH	correct	congruent	1.4414	no	H	H
1158.375	n/a	296544	responseLargeH	correct	n/a	1.4414	no	n/a	n/a
1159.453125	n/a	296820	largeTSmallT	correct	congruent	0.44531	no	T	T
1159.898438	n/a	296934	responseLargeT	correct	n/a	0.44531	no	n/a	n/a
1160.972656	n/a	297209	largeHSmallT	correct	incongruent	0.5	no	H	T
1161.472656	n/a	297337	responseLargeH	correct	n/a	0.5	no	n/a	n/a
1162.53125	n/a	297608	largeHSmallH	correct	congruent	0.59766	no	H	H
1163.128906	n/a	297761	responseLargeH	correct	n/a	0.59766	no	n/a	n/a
1164.183594	n/a	298031	largeTSmallT	correct	congruent	0.57031	no	T	T
1164.753906	n/a	298177	responseLargeT	correct	n/a	0.57031	no	n/a	n/a
1165.824219	n/a	298451	largeHSmallH	correct	congruent	0.49219	no	H	H
1166.316406	n/a	298577	responseLargeH	correct	n/a	0.49219	no	n/a	n/a
1167.386719	n/a	298851	largeHSmallH	correct	congruent	0.5625	no	H	H
1167.949219	n/a	298995	responseLargeH	correct	n/a	0.5625	no	n/a	n/a
1169.023438	n/a	299270	largeTSmallH	correct	incongruent	0.61719	no	T	H
1169.640625	n/a	299428	responseLargeT	correct	n/a	0.61719	no	n/a	n/a
1170.703125	n/a	299700	largeHSmallH	correct	congruent	0.52344	no	H	H
1171.226562	n/a	299834	responseLargeH	correct	n/a	0.52344	no	n/a	n/a
1172.292969	n/a	300107	largeHSmallT	correct	incongruent	0.71094	no	H	T
1173.003906	n/a	300289	responseLargeH	correct	n/a	0.71094	no	n/a	n/a
1174.078125	n/a	300564	largeTSmallT	correct	congruent	0.63281	no	T	T
1174.710938	n/a	300726	responseLargeT	correct	n/a	0.63281	no	n/a	n/a
1175.773438	n/a	300998	largeTSmallT	correct	congruent	2.6211	yes	T	T
1178.394531	n/a	301669	responseLargeT	correct	n/a	2.6211	yes	n/a	n/a
1179.464844	n/a	301943	largeTSmallH	error	incongruent	0.35156	no	T	H
1179.816406	n/a	302033	responseLargeH	error	n/a	0.35156	no	n/a	n/a
1180.878906	n/a	302305	largeHSmallT	correct	incongruent	0.39062	no	H	T
1181.269531	n/a	302405	responseLargeH	correct	n/a	0.39062	no	n/a	n/a
1182.332031	n/a	302677	largeTSmallH	correct	incongruent	0.42578	no	T	H
1182.757812	n/a	302786	responseLargeT	correct	n/a	0.42578	no	n/a	n/a
1183.824219	n/a	303059	largeHSmallH	correct	congruent	0.36719	no	H	H
1184.191406	n/a	303153	responseLargeH	correct	n/a	0.36719	no	n/a	n/a
1185.265625	n/a	303428	largeTSmallH	correct	incongruent	0.375	no	T	H
1185.640625	n/a	303524	responseLargeT	correct	n/a	0.375	no	n/a	n/a
1186.71875	n/a	303800	largeTSmallT	correct	congruent	0.51172	no	T	T
1187.230469	n/a	303931	responseLargeT	correct	n/a	0.51172	no	n/a	n/a
1188.304688	n/a	304206	largeTSmallT	correct	congruent	0.57422	no	T	T
1188.878906	n/a	304353	responseLargeT	correct	n/a	0.57422	no	n/a	n/a
1189.945312	n/a	304626	largeHSmallT	correct	incongruent	0.45312	no	H	T
1190.398438	n/a	304742	responseLargeH	correct	n/a	0.45312	no	n/a	n/a
1191.476562	n/a	305018	largeHSmallT	correct	incongruent	0.51172	no	H	T
1191.988281	n/a	305149	responseLargeH	correct	n/a	0.51172	no	n/a	n/a
1193.066406	n/a	305425	largeTSmallT	correct	congruent	0.57422	no	T	T
1193.640625	n/a	305572	responseLargeT	correct	n/a	0.57422	no	n/a	n/a
1194.71875	n/a	305848	largeTSmallH	correct	incongruent	0.58203	no	T	H
1195.300781	n/a	305997	responseLargeT	correct	n/a	0.58203	no	n/a	n/a
1196.371094	n/a	306271	largeHSmallT	correct	incongruent	0.4375	no	H	T
1196.808594	n/a	306383	responseLargeH	correct	n/a	0.4375	no	n/a	n/a
1197.863281	n/a	306653	largeTSmallT	correct	congruent	0.40234	no	T	T
1198.265625	n/a	306756	responseLargeT	correct	n/a	0.40234	no	n/a	n/a
1199.332031	n/a	307029	largeTSmallT	correct	congruent	0.50391	no	T	T
1199.835938	n/a	307158	responseLargeT	correct	n/a	0.50391	no	n/a	n/a
1200.917969	n/a	307435	largeHSmallH	correct	congruent	0.53516	no	H	H
1201.453125	n/a	307572	responseLargeH	correct	n/a	0.53516	no	n/a	n/a
1202.519531	n/a	307845	largeTSmallT	correct	congruent	0.61719	no	T	T
1203.136719	n/a	308003	responseLargeT	correct	n/a	0.61719	no	n/a	n/a
1204.199219	n/a	308275	largeTSmallT	correct	congruent	0.55469	no	T	T
1204.753906	n/a	308417	responseLargeT	correct	n/a	0.55469	no	n/a	n/a
1205.824219	n/a	308691	largeHSmallT	correct	incongruent	0.42578	no	H	T
1206.25	n/a	308800	responseLargeH	correct	n/a	0.42578	no	n/a	n/a
1207.316406	n/a	309073	largeHSmallT	correct	incongruent	0.36719	no	H	T
1207.683594	n/a	309167	responseLargeH	correct	n/a	0.36719	no	n/a	n/a
1208.757812	n/a	309442	largeHSmallH	correct	congruent	0.51953	no	H	H
1209.277344	n/a	309575	responseLargeH	correct	n/a	0.51953	no	n/a	n/a
1210.34375	n/a	309848	largeTSmallT	correct	congruent	0.57422	no	T	T
1210.917969	n/a	309995	responseLargeT	correct	n/a	0.57422	no	n/a	n/a
1211.984375	n/a	310268	largeHSmallH	correct	congruent	4.875	yes	H	H
1216.859375	n/a	311516	responseLargeH	correct	n/a	4.875	yes	n/a	n/a
1217.929688	n/a	311790	largeTSmallT	correct	congruent	3.3594	yes	T	T
1221.289062	n/a	312650	responseLargeT	correct	n/a	3.3594	yes	n/a	n/a
1222.355469	n/a	312923	largeTSmallT	correct	congruent	0.55469	no	T	T
1222.910156	n/a	313065	responseLargeT	correct	n/a	0.55469	no	n/a	n/a
1223.984375	n/a	313340	largeHSmallT	correct	incongruent	0.52344	no	H	T
1224.507812	n/a	313474	responseLargeH	correct	n/a	0.52344	no	n/a	n/a
1225.570312	n/a	313746	largeHSmallH	correct	congruent	0.43359	no	H	H
1226.003906	n/a	313857	responseLargeH	correct	n/a	0.43359	no	n/a	n/a
1227.078125	n/a	314132	largeHSmallT	correct	incongruent	0.44922	no	H	T
1227.527344	n/a	314247	responseLargeH	correct	n/a	0.44922	no	n/a	n/a
1228.597656	n/a	314521	largeHSmallH	correct	congruent	0.46875	no	H	H
1229.066406	n/a	314641	responseLargeH	correct	n/a	0.46875	no	n/a	n/a
1230.128906	n/a	314913	largeTSmallT	correct	congruent	0.45312	no	T	T
1230.582031	n/a	315029	responseLargeT	correct	n/a	0.45312	no	n/a	n/a
1231.636719	n/a	315299	largeHSmallT	correct	incongruent	0.46094	no	H	T
1232.097656	n/a	315417	responseLargeH	correct	n/a	0.46094	no	n/a	n/a
1233.171875	n/a	315692	largeTSmallT	correct	congruent	0.44531	no	T	T
1233.617188	n/a	315806	responseLargeT	correct	n/a	0.44531	no	n/a	n/a
1234.691406	n/a	316081	largeHSmallT	correct	incongruent	0.76562	no	H	T
1235.457031	n/a	316277	responseLargeH	correct	n/a	0.76562	no	n/a	n/a
1236.53125	n/a	316552	largeTSmallH	correct	incongruent	0.46875	no	T	H
1237	n/a	316672	responseLargeT	correct	n/a	0.46875	no	n/a	n/a
1238.0625	n/a	316944	largeHSmallH	correct	congruent	0.55859	no	H	H
1238.621094	n/a	317087	responseLargeH	correct	n/a	0.55859	no	n/a	n/a
1239.691406	n/a	317361	largeTSmallT	correct	congruent	0.46875	no	T	T
1240.160156	n/a	317481	responseLargeT	correct	n/a	0.46875	no	n/a	n/a
1241.222656	n/a	317753	largeTSmallT	correct	congruent	0.49219	no	T	T
1241.714844	n/a	317879	responseLargeT	correct	n/a	0.49219	no	n/a	n/a
1242.785156	n/a	318153	largeHSmallT	correct	incongruent	0.57031	no	H	T
1243.355469	n/a	318299	responseLargeH	correct	n/a	0.57031	no	n/a	n/a
1244.421875	n/a	318572	largeHSmallH	correct	congruent	0.46094	no	H	H
1244.882812	n/a	318690	responseLargeH	correct	n/a	0.46094	no	n/a	n/a
1245.945312	n/a	318962	largeTSmallH	correct	incongruent	0.55078	no	T	H
1246.496094	n/a	319103	responseLargeT	correct	n/a	0.55078	no	n/a	n/a
1247.558594	n/a	319375	largeTSmallH	correct	incongruent	0.58984	no	T	H
1248.148438	n/a	319526	responseLargeT	correct	n/a	0.58984	no	n/a	n/a
1249.210938	n/a	319798	largeTSmallH	correct	incongruent	0.82031	no	T	H
1250.03125	n/a	320008	responseLargeT	correct	n/a	0.82031	no	n/a	n/a
1251.101562	n/a	320282	largeTSmallT	correct	congruent	0.83594	no	T	T
1251.9375	n/a	320496	responseLargeT	correct	n/a	0.83594	no	n/a	n/a
1252.996094	n/a	320767	largeTSmallH	correct	incongruent	4.1523	yes	T	H
1257.148438	n/a	321830	responseLargeT	correct	n/a	4.1523	yes	n/a	n/a
1258.222656	n/a	322105	largeTSmallH	correct	incongruent	0.50391	no	T	H
1258.726562	n/a	322234	responseLargeT	correct	n/a	0.50391	no	n/a	n/a
1259.78125	n/a	322504	largeTSmallH	correct	incongruent	0.49219	no	T	H
1260.273438	n/a	322630	responseLargeT	correct	n/a	0.49219	no	n/a	n/a
1261.34375	n/a	322904	largeHSmallH	correct	congruent	0.40234	no	H	H
1261.746094	n/a	323007	responseLargeH	correct	n/a	0.40234	no	n/a	n/a
1262.808594	n/a	323279	largeHSmallH	correct	congruent	0.35547	no	H	H
1263.164062	n/a	323370	responseLargeH	correct	n/a	0.35547	no	n/a	n/a
1264.234375	n/a	323644	largeTSmallH	correct	incongruent	0.41797	no	T	H
1264.652344	n/a	323751	responseLargeT	correct	n/a	0.41797	no	n/a	n/a
1265.730469	n/a	324027	largeHSmallH	correct	congruent	0.42969	no	H	H
1266.160156	n/a	324137	responseLargeH	correct	n/a	0.42969	no	n/a	n/a
1267.222656	n/a	324409	largeHSmallH	correct	congruent	0.60938	no	H	H
1267.832031	n/a	324565	responseLargeH	correct	n/a	0.60938	no	n/a	n/a
1268.890625	n/a	324836	largeTSmallT	correct	congruent	0.51562	no	T	T
1269.40625	n/a	324968	responseLargeT	correct	n/a	0.51562	no	n/a	n/a
1270.476562	n/a	325242	largeTSmallT	correct	congruent	0.47656	no	T	T
1270.953125	n/a	325364	responseLargeT	correct	n/a	0.47656	no	n/a	n/a
1272.007812	n/a	325634	largeHSmallH	correct	congruent	1.7852	yes	H	H
1273.792969	n/a	326091	responseLargeH	correct	n/a	1.7852	yes	n/a	n/a
1274.847656	n/a	326361	largeTSmallH	correct	incongruent	2.832	yes	T	H
1277.679688	n/a	327086	responseLargeT	correct	n/a	2.832	yes	n/a	n/a
1278.757812	n/a	327362	largeHSmallT	correct	incongruent	0.48828	no	H	T
1279.246094	n/a	327487	responseLargeH	correct	n/a	0.48828	no	n/a	n/a
1280.316406	n/a	327761	largeHSmallT	error	incongruent	0.52734	no	H	T
1280.84375	n/a	327896	responseLargeT	error	n/a	0.52734	no	n/a	n/a
1281.902344	n/a	328167	largeTSmallT	correct	congruent	0.44531	no	T	T
1282.347656	n/a	328281	responseLargeT	correct	n/a	0.44531	no	n/a	n/a
1283.421875	n/a	328556	largeTSmallH	correct	incongruent	0.40625	no	T	H
1283.828125	n/a	328660	responseLargeT	correct	n/a	0.40625	no	n/a	n/a
1284.902344	n/a	328935	largeTSmallT	correct	congruent	0.37891	no	T	T
1285.28125	n/a	329032	responseLargeT	correct	n/a	0.37891	no	n/a	n/a
1286.355469	n/a	329307	largeHSmallT	correct	incongruent	0.47656	no	H	T
1286.832031	n/a	329429	responseLargeH	correct	n/a	0.47656	no	n/a	n/a
1287.902344	n/a	329703	largeTSmallH	correct	incongruent	0.42969	no	T	H
1288.332031	n/a	329813	responseLargeT	correct	n/a	0.42969	no	n/a	n/a
1289.394531	n/a	330085	largeTSmallH	correct	incongruent	0.46484	no	T	H
1289.859375	n/a	330204	responseLargeT	correct	n/a	0.46484	no	n/a	n/a
1290.929688	n/a	330478	largeHSmallT	correct	incongruent	0.41406	no	H	T
1291.34375	n/a	330584	responseLargeH	correct	n/a	0.41406	no	n/a	n/a
1292.410156	n/a	330857	largeHSmallT	correct	incongruent	1.4531	no	H	T
1293.863281	n/a	331229	responseLargeH	correct	n/a	1.4531	no	n/a	n/a
1294.929688	n/a	331502	largeTSmallH	correct	incongruent	0.8125	no	T	H
1295.742188	n/a	331710	responseLargeT	correct	n/a	0.8125	no	n/a	n/a
1296.808594	n/a	331983	largeTSmallH	correct	incongruent	0.47656	no	T	H
1297.285156	n/a	332105	responseLargeT	correct	n/a	0.47656	no	n/a	n/a
1298.355469	n/a	332379	largeTSmallH	correct	incongruent	0.44531	no	T	H
1298.800781	n/a	332493	responseLargeT	correct	n/a	0.44531	no	n/a	n/a
1299.863281	n/a	332765	largeTSmallT	correct	congruent	0.49219	no	T	T
1300.355469	n/a	332891	responseLargeT	correct	n/a	0.49219	no	n/a	n/a
1301.421875	n/a	333164	largeHSmallT	error	incongruent	0.40234	no	H	T
1301.824219	n/a	333267	responseLargeT	error	n/a	0.40234	no	n/a	n/a
1302.890625	n/a	333540	largeHSmallH	error	congruent	0.45703	no	H	H
1303.347656	n/a	333657	responseLargeT	error	n/a	0.45703	no	n/a	n/a
1304.421875	n/a	333932	largeTSmallH	correct	incongruent	4.125	yes	T	H
1308.546875	n/a	334988	responseLargeT	correct	n/a	4.125	yes	n/a	n/a
1309.609375	n/a	335260	largeTSmallT	correct	congruent	0.42188	no	T	T
1310.03125	n/a	335368	responseLargeT	correct	n/a	0.42188	no	n/a	n/a
1311.089844	n/a	335639	largeHSmallT	correct	incongruent	0.37109	no	H	T
1311.460938	n/a	335734	responseLargeH	correct	n/a	0.37109	no	n/a	n/a
1312.527344	n/a	336007	largeTSmallT	correct	congruent	0.58594	no	T	T
1313.113281	n/a	336157	responseLargeT	correct	n/a	0.58594	no	n/a	n/a
1314.183594	n/a	336431	largeTSmallT	correct	congruent	0.41797	no	T	T
1314.601562	n/a	336538	responseLargeT	correct	n/a	0.41797	no	n/a	n/a
1315.660156	n/a	336809	largeTSmallT	correct	congruent	0.40234	no	T	T
1316.0625	n/a	336912	responseLargeT	correct	n/a	0.40234	no	n/a	n/a
1317.128906	n/a	337185	largeTSmallT	correct	congruent	0.35938	no	T	T
1317.488281	n/a	337277	responseLargeT	correct	n/a	0.35938	no	n/a	n/a
1318.554688	n/a	337550	largeHSmallT	correct	incongruent	0.42578	no	H	T
1318.980469	n/a	337659	responseLargeH	correct	n/a	0.42578	no	n/a	n/a
1320.046875	n/a	337932	largeHSmallT	correct	incongruent	0.40234	no	H	T
1320.449219	n/a	338035	responseLargeH	correct	n/a	0.40234	no	n/a	n/a
1321.515625	n/a	338308	largeTSmallH	correct	incongruent	0.29297	no	T	H
1321.808594	n/a	338383	responseLargeT	correct	n/a	0.29297	no	n/a	n/a
1322.875	n/a	338656	largeTSmallH	correct	incongruent	0.52734	no	T	H
1323.402344	n/a	338791	responseLargeT	correct	n/a	0.52734	no	n/a	n/a
1324.460938	n/a	339062	largeTSmallT	correct	congruent	4.6406	yes	T	T
1329.101562	n/a	340250	responseLargeT	correct	n/a	4.6406	yes	n/a	n/a
1330.167969	n/a	340523	largeTSmallT	correct	congruent	0.64453	no	T	T
1330.8125	n/a	340688	responseLargeT	correct	n/a	0.64453	no	n/a	n/a
1331.875	n/a	340960	largeHSmallH	correct	congruent	0.46094	no	H	H
1332.335938	n/a	341078	responseLargeH	correct	n/a	0.46094	no	n/a	n/a
1333.394531	n/a	341349	largeTSmallH	correct	incongruent	0.57422	no	T	H
1333.96875	n/a	341496	responseLargeT	correct	n/a	0.57422	no	n/a	n/a
1335.035156	n/a	341769	largeHSmallT	correct	incongruent	0.51562	no	H	T
1335.550781	n/a	341901	responseLargeH	correct	n/a	0.51562	no	n/a	n/a
1336.621094	n/a	342175	largeHSmallT	correct	incongruent	0.70703	no	H	T
1337.328125	n/a	342356	responseLargeH	correct	n/a	0.70703	no	n/a	n/a
1338.394531	n/a	342629	largeTSmallT	correct	congruent	3.7461	yes	T	T
1342.140625	n/a	343588	responseLargeT	correct	n/a	3.7461	yes	n/a	n/a
1343.222656	n/a	343865	largeHSmallH	correct	congruent	0.52734	no	H	H
1343.75	n/a	344000	responseLargeH	correct	n/a	0.52734	no	n/a	n/a
1344.820312	n/a	344274	largeTSmallH	correct	incongruent	0.58203	no	T	H
1345.402344	n/a	344423	responseLargeT	correct	n/a	0.58203	no	n/a	n/a
1346.472656	n/a	344697	largeHSmallT	correct	incongruent	0.60938	no	H	T
1347.082031	n/a	344853	responseLargeH	correct	n/a	0.60938	no	n/a	n/a
1348.140625	n/a	345124	largeHSmallH	correct	congruent	4.1367	yes	H	H
1352.277344	n/a	346183	responseLargeH	correct	n/a	4.1367	yes	n/a	n/a
1353.355469	n/a	346459	largeHSmallT	correct	incongruent	0.60156	no	H	T
1353.957031	n/a	346613	responseLargeH	correct	n/a	0.60156	no	n/a	n/a
1355.019531	n/a	346885	largeTSmallH	correct	incongruent	0.47656	no	T	H
1355.496094	n/a	347007	responseLargeT	correct	n/a	0.47656	no	n/a	n/a
1356.566406	n/a	347281	largeHSmallT	correct	incongruent	0.43359	no	H	T
1357	n/a	347392	responseLargeH	correct	n/a	0.43359	no	n/a	n/a
1358.0625	n/a	347664	largeHSmallH	correct	congruent	6.1016	yes	H	H
1364.164062	n/a	349226	responseLargeH	correct	n/a	6.1016	yes	n/a	n/a
1365.222656	n/a	349497	largeTSmallH	correct	incongruent	0.40625	no	T	H
1365.628906	n/a	349601	responseLargeT	correct	n/a	0.40625	no	n/a	n/a
1366.6875	n/a	349872	largeTSmallH	correct	incongruent	0.47656	no	T	H
1367.164062	n/a	349994	responseLargeT	correct	n/a	0.47656	no	n/a	n/a
1368.234375	n/a	350268	largeTSmallT	correct	congruent	0.37109	no	T	T
1368.605469	n/a	350363	responseLargeT	correct	n/a	0.37109	no	n/a	n/a
1369.675781	n/a	350637	largeHSmallT	error	incongruent	0.45312	no	H	T
1370.128906	n/a	350753	responseLargeT	error	n/a	0.45312	no	n/a	n/a
1371.195312	n/a	351026	largeHSmallH	correct	congruent	0.48047	no	H	H
1371.675781	n/a	351149	responseLargeH	correct	n/a	0.48047	no	n/a	n/a
1372.742188	n/a	351422	largeHSmallH	correct	congruent	0.9375	no	H	H
1373.679688	n/a	351662	responseLargeH	correct	n/a	0.9375	no	n/a	n/a
1374.742188	n/a	351934	largeTSmallT	correct	congruent	4.1484	yes	T	T
1378.890625	n/a	352996	responseLargeT	correct	n/a	4.1484	yes	n/a	n/a
1379.953125	n/a	353268	largeHSmallH	correct	congruent	0.58594	no	H	H
1380.539062	n/a	353418	responseLargeH	correct	n/a	0.58594	no	n/a	n/a
1381.605469	n/a	353691	largeHSmallH	correct	congruent	4.5273	yes	H	H
1386.132812	n/a	354850	responseLargeH	correct	n/a	4.5273	yes	n/a	n/a
1387.207031	n/a	355125	largeHSmallH	correct	congruent	0.33984	no	H	H
1387.546875	n/a	355212	responseLargeH	correct	n/a	0.33984	no	n/a	n/a
1388.605469	n/a	355483	largeHSmallH	correct	congruent	0.38281	no	H	H
1388.988281	n/a	355581	responseLargeH	correct	n/a	0.38281	no	n/a	n/a
1390.058594	n/a	355855	largeHSmallT	correct	incongruent	0.34375	no	H	T
1390.402344	n/a	355943	responseLargeH	correct	n/a	0.34375	no	n/a	n/a
1391.460938	n/a	356214	largeHSmallH	correct	congruent	0.33594	no	H	H
1391.796875	n/a	356300	responseLargeH	correct	n/a	0.33594	no	n/a	n/a
1392.875	n/a	356576	largeHSmallT	correct	incongruent	0.42578	no	H	T
1393.300781	n/a	356685	responseLargeH	correct	n/a	0.42578	no	n/a	n/a
1394.367188	n/a	356958	largeTSmallT	correct	congruent	0.39453	no	T	T
1394.761719	n/a	357059	responseLargeT	correct	n/a	0.39453	no	n/a	n/a
1395.832031	n/a	357333	largeHSmallT	correct	incongruent	0.46484	no	H	T
1396.296875	n/a	357452	responseLargeH	correct	n/a	0.46484	no	n/a	n/a
1397.367188	n/a	357726	largeHSmallT	correct	incongruent	0.44922	no	H	T
1397.816406	n/a	357841	responseLargeH	correct	n/a	0.44922	no	n/a	n/a
1398.886719	n/a	358115	largeHSmallT	correct	incongruent	0.48828	no	H	T
1399.375	n/a	358240	responseLargeH	correct	n/a	0.48828	no	n/a	n/a
1400.445312	n/a	358514	largeTSmallT	error	congruent	0.74609	no	T	T
1401.191406	n/a	358705	responseLargeH	error	n/a	0.74609	no	n/a	n/a
1402.261719	n/a	358979	largeHSmallT	error	incongruent	1.1367	no	H	T
1403.398438	n/a	359270	responseLargeT	error	n/a	1.1367	no	n/a	n/a
1404.460938	n/a	359542	largeHSmallT	error	incongruent	0.55469	no	H	T
1405.015625	n/a	359684	responseLargeT	error	n/a	0.55469	no	n/a	n/a
1406.085938	n/a	359958	largeTSmallT	correct	congruent	0.60156	no	T	T
1406.6875	n/a	360112	responseLargeT	correct	n/a	0.60156	no	n/a	n/a
1407.753906	n/a	360385	largeHSmallT	correct	incongruent	0.41797	no	H	T
1408.171875	n/a	360492	responseLargeH	correct	n/a	0.41797	no	n/a	n/a
1409.246094	n/a	360767	largeTSmallT	correct	congruent	0.55469	no	T	T
1409.800781	n/a	360909	responseLargeT	correct	n/a	0.55469	no	n/a	n/a
1410.871094	n/a	361183	largeHSmallH	correct	congruent	0.55859	no	H	H
1411.429688	n/a	361326	responseLargeH	correct	n/a	0.55859	no	n/a	n/a
1412.484375	n/a	361596	largeTSmallH	correct	incongruent	7.8398	yes	T	H
1420.324219	n/a	363603	responseLargeT	correct	n/a	7.8398	yes	n/a	n/a
1421.378906	n/a	363873	largeHSmallT	correct	incongruent	0.36328	no	H	T
1421.742188	n/a	363966	responseLargeH	correct	n/a	0.36328	no	n/a	n/a
1422.804688	n/a	364238	largeHSmallT	correct	incongruent	0.42188	no	H	T
1423.226562	n/a	364346	responseLargeH	correct	n/a	0.42188	no	n/a	n/a
1424.285156	n/a	364617	largeTSmallH	correct	incongruent	0.5	no	T	H
1424.785156	n/a	364745	responseLargeT	correct	n/a	0.5	no	n/a	n/a
1425.847656	n/a	365017	largeTSmallH	correct	incongruent	5.2656	yes	T	H
1431.113281	n/a	366365	responseLargeT	correct	n/a	5.2656	yes	n/a	n/a
1432.179688	n/a	366638	largeTSmallT	error	congruent	0.42578	no	T	T
1432.605469	n/a	366747	responseLargeH	error	n/a	0.42578	no	n/a	n/a
1433.671875	n/a	367020	largeHSmallT	correct	incongruent	0.33203	no	H	T
1434.003906	n/a	367105	responseLargeH	correct	n/a	0.33203	no	n/a	n/a
1435.074219	n/a	367379	largeTSmallH	correct	incongruent	0.81641	no	T	H
1435.890625	n/a	367588	responseLargeT	correct	n/a	0.81641	no	n/a	n/a
1436.953125	n/a	367860	largeHSmallH	correct	congruent	0.62891	no	H	H
1437.582031	n/a	368021	responseLargeH	correct	n/a	0.62891	no	n/a	n/a
1438.660156	n/a	368297	largeTSmallH	correct	incongruent	0.55859	no	T	H
1439.21875	n/a	368440	responseLargeT	correct	n/a	0.55859	no	n/a	n/a
1440.273438	n/a	368710	largeHSmallH	correct	congruent	0.50391	no	H	H
1440.777344	n/a	368839	responseLargeH	correct	n/a	0.50391	no	n/a	n/a
1441.84375	n/a	369112	largeTSmallH	correct	incongruent	0.44531	no	T	H
1442.289062	n/a	369226	responseLargeT	correct	n/a	0.44531	no	n/a	n/a
1443.351562	n/a	369498	largeTSmallT	correct	congruent	0.47656	no	T	T
1443.828125	n/a	369620	responseLargeT	correct	n/a	0.47656	no	n/a	n/a
1444.898438	n/a	369894	largeHSmallT	correct	incongruent	0.48828	no	H	T
1445.386719	n/a	370019	responseLargeH	correct	n/a	0.48828	no	n/a	n/a
1446.457031	n/a	370293	largeTSmallH	correct	incongruent	0.39844	no	T	H
1446.855469	n/a	370395	responseLargeT	correct	n/a	0.39844	no	n/a	n/a
1447.925781	n/a	370669	largeTSmallT	correct	congruent	0.48828	no	T	T
1448.414062	n/a	370794	responseLargeT	correct	n/a	0.48828	no	n/a	n/a
1449.484375	n/a	371068	largeHSmallT	correct	incongruent	0.81641	no	H	T
1450.300781	n/a	371277	responseLargeH	correct	n/a	0.81641	no	n/a	n/a
1451.367188	n/a	371550	largeHSmallH	correct	congruent	0.42578	no	H	H
1451.792969	n/a	371659	responseLargeH	correct	n/a	0.42578	no	n/a	n/a
1452.871094	n/a	371935	largeHSmallT	correct	incongruent	0.47656	no	H	T
1453.347656	n/a	372057	responseLargeH	correct	n/a	0.47656	no	n/a	n/a
1454.40625	n/a	372328	largeHSmallH	correct	congruent	0.89062	no	H	H
1455.296875	n/a	372556	responseLargeH	correct	n/a	0.89062	no	n/a	n/a
1456.367188	n/a	372830	largeHSmallT	correct	incongruent	2.9492	yes	H	T
1459.316406	n/a	373585	responseLargeH	correct	n/a	2.9492	yes	n/a	n/a
1460.390625	n/a	373860	largeTSmallH	correct	incongruent	0.60938	no	T	H
1461	n/a	374016	responseLargeT	correct	n/a	0.60938	no	n/a	n/a
1462.070312	n/a	374290	largeHSmallH	correct	congruent	0.48438	no	H	H
1462.554688	n/a	374414	responseLargeH	correct	n/a	0.48438	no	n/a	n/a
1463.617188	n/a	374686	largeTSmallH	correct	incongruent	0.39062	no	T	H
1464.007812	n/a	374786	responseLargeT	correct	n/a	0.39062	no	n/a	n/a
1465.085938	n/a	375062	largeTSmallT	error	congruent	0.34766	no	T	T
1465.433594	n/a	375151	responseLargeH	error	n/a	0.34766	no	n/a	n/a
1466.5	n/a	375424	largeTSmallT	error	congruent	0.41016	no	T	T
1466.910156	n/a	375529	responseLargeH	error	n/a	0.41016	no	n/a	n/a
1475.285156	n/a	377673	largeHSmallT	correct	incongruent	1.3438	no	H	T
1476.628906	n/a	378017	responseSmallT	correct	n/a	1.3438	no	n/a	n/a
1477.699219	n/a	378291	largeTSmallT	correct	congruent	1.6328	yes	T	T
1479.332031	n/a	378709	responseSmallT	correct	n/a	1.6328	yes	n/a	n/a
1480.40625	n/a	378984	largeHSmallH	correct	congruent	0.71875	no	H	H
1481.125	n/a	379168	responseSmallH	correct	n/a	0.71875	no	n/a	n/a
1482.191406	n/a	379441	largeHSmallH	correct	congruent	0.54688	no	H	H
1482.738281	n/a	379581	responseSmallH	correct	n/a	0.54688	no	n/a	n/a
1483.804688	n/a	379854	largeTSmallH	error	incongruent	0.42188	no	T	H
1484.226562	n/a	379962	responseSmallT	error	n/a	0.42188	no	n/a	n/a
1485.296875	n/a	380236	largeHSmallH	correct	congruent	0.46484	no	H	H
1485.761719	n/a	380355	responseSmallH	correct	n/a	0.46484	no	n/a	n/a
1486.832031	n/a	380629	largeTSmallH	correct	incongruent	0.71484	no	T	H
1487.546875	n/a	380812	responseSmallH	correct	n/a	0.71484	no	n/a	n/a
1488.605469	n/a	381083	largeTSmallT	correct	congruent	0.36328	no	T	T
1488.96875	n/a	381176	responseSmallT	correct	n/a	0.36328	no	n/a	n/a
1490.042969	n/a	381451	largeHSmallT	correct	incongruent	0.65234	no	H	T
1490.695312	n/a	381618	responseSmallT	correct	n/a	0.65234	no	n/a	n/a
1491.765625	n/a	381892	largeHSmallH	correct	congruent	0.50391	no	H	H
1492.269531	n/a	382021	responseSmallH	correct	n/a	0.50391	no	n/a	n/a
1493.335938	n/a	382294	largeTSmallH	correct	incongruent	0.71484	no	T	H
1494.050781	n/a	382477	responseSmallH	correct	n/a	0.71484	no	n/a	n/a
1495.125	n/a	382752	largeTSmallT	correct	congruent	0.49609	no	T	T
1495.621094	n/a	382879	responseSmallT	correct	n/a	0.49609	no	n/a	n/a
1496.683594	n/a	383151	largeHSmallH	correct	congruent	0.48828	no	H	H
1497.171875	n/a	383276	responseSmallH	correct	n/a	0.48828	no	n/a	n/a
1498.246094	n/a	383551	largeHSmallH	correct	congruent	0.54297	no	H	H
1498.789062	n/a	383690	responseSmallH	correct	n/a	0.54297	no	n/a	n/a
1499.859375	n/a	383964	largeHSmallT	error	incongruent	0.48438	no	H	T
1500.34375	n/a	384088	responseSmallH	error	n/a	0.48438	no	n/a	n/a
1501.417969	n/a	384363	largeHSmallH	correct	congruent	0.55469	no	H	H
1501.972656	n/a	384505	responseSmallH	correct	n/a	0.55469	no	n/a	n/a
1503.03125	n/a	384776	largeTSmallH	correct	incongruent	0.51953	no	T	H
1503.550781	n/a	384909	responseSmallH	correct	n/a	0.51953	no	n/a	n/a
1504.617188	n/a	385182	largeTSmallH	error	incongruent	2.9336	yes	T	H
1507.550781	n/a	385933	responseSmallT	error	n/a	2.9336	yes	n/a	n/a
1508.617188	n/a	386206	largeHSmallH	correct	congruent	0.63672	no	H	H
1509.253906	n/a	386369	responseSmallH	correct	n/a	0.63672	no	n/a	n/a
1510.324219	n/a	386643	largeTSmallT	correct	congruent	0.73047	no	T	T
1511.054688	n/a	386830	responseSmallT	correct	n/a	0.73047	no	n/a	n/a
1512.109375	n/a	387100	largeHSmallH	correct	congruent	0.48438	no	H	H
1512.59375	n/a	387224	responseSmallH	correct	n/a	0.48438	no	n/a	n/a
1513.65625	n/a	387496	largeTSmallH	correct	incongruent	0.63281	no	T	H
1514.289062	n/a	387658	responseSmallH	correct	n/a	0.63281	no	n/a	n/a
1515.363281	n/a	387933	largeHSmallT	correct	incongruent	0.5625	no	H	T
1515.925781	n/a	388077	responseSmallT	correct	n/a	0.5625	no	n/a	n/a
1517.003906	n/a	388353	largeTSmallH	correct	incongruent	0.55859	no	T	H
1517.5625	n/a	388496	responseSmallH	correct	n/a	0.55859	no	n/a	n/a
1518.628906	n/a	388769	largeTSmallT	error	congruent	0.46875	no	T	T
1519.097656	n/a	388889	responseSmallH	error	n/a	0.46875	no	n/a	n/a
1520.164062	n/a	389162	largeTSmallH	correct	incongruent	0.60938	no	T	H
1520.773438	n/a	389318	responseSmallH	correct	n/a	0.60938	no	n/a	n/a
1521.832031	n/a	389589	largeTSmallT	correct	congruent	0.5	no	T	T
1522.332031	n/a	389717	responseSmallT	correct	n/a	0.5	no	n/a	n/a
1523.390625	n/a	389988	largeTSmallT	correct	congruent	0.74609	no	T	T
1524.136719	n/a	390179	responseSmallT	correct	n/a	0.74609	no	n/a	n/a
1525.203125	n/a	390452	largeHSmallH	correct	congruent	0.51953	no	H	H
1525.722656	n/a	390585	responseSmallH	correct	n/a	0.51953	no	n/a	n/a
1526.789062	n/a	390858	largeHSmallH	correct	congruent	0.40234	no	H	H
1527.191406	n/a	390961	responseSmallH	correct	n/a	0.40234	no	n/a	n/a
1528.257812	n/a	391234	largeHSmallT	correct	incongruent	0.49609	no	H	T
1528.753906	n/a	391361	responseSmallT	correct	n/a	0.49609	no	n/a	n/a
1529.816406	n/a	391633	largeHSmallH	correct	congruent	0.53516	no	H	H
1530.351562	n/a	391770	responseSmallH	correct	n/a	0.53516	no	n/a	n/a
1531.417969	n/a	392043	largeTSmallT	correct	congruent	0.55859	no	T	T
1531.976562	n/a	392186	responseSmallT	correct	n/a	0.55859	no	n/a	n/a
1533.058594	n/a	392463	largeHSmallT	correct	incongruent	3.0234	yes	H	T
1536.082031	n/a	393237	responseSmallT	correct	n/a	3.0234	yes	n/a	n/a
1537.148438	n/a	393510	largeHSmallT	correct	incongruent	0.50781	no	H	T
1537.65625	n/a	393640	responseSmallT	correct	n/a	0.50781	no	n/a	n/a
1538.722656	n/a	393913	largeHSmallH	correct	congruent	0.41406	no	H	H
1539.136719	n/a	394019	responseSmallH	correct	n/a	0.41406	no	n/a	n/a
1540.191406	n/a	394289	largeHSmallH	correct	congruent	4.1094	yes	H	H
1544.300781	n/a	395341	responseSmallH	correct	n/a	4.1094	yes	n/a	n/a
1545.375	n/a	395616	largeHSmallH	correct	congruent	0.48047	no	H	H
1545.855469	n/a	395739	responseSmallH	correct	n/a	0.48047	no	n/a	n/a
1546.921875	n/a	396012	largeHSmallH	correct	congruent	4.4961	yes	H	H
1551.417969	n/a	397163	responseSmallH	correct	n/a	4.4961	yes	n/a	n/a
1552.484375	n/a	397436	largeHSmallH	correct	congruent	0.58594	no	H	H
1553.070312	n/a	397586	responseSmallH	correct	n/a	0.58594	no	n/a	n/a
1554.136719	n/a	397859	largeHSmallT	correct	incongruent	0.45312	no	H	T
1554.589844	n/a	397975	responseSmallT	correct	n/a	0.45312	no	n/a	n/a
1555.65625	n/a	398248	largeHSmallH	correct	congruent	0.49219	no	H	H
1556.148438	n/a	398374	responseSmallH	correct	n/a	0.49219	no	n/a	n/a
1557.214844	n/a	398647	largeTSmallT	correct	congruent	4.1758	yes	T	T
1561.390625	n/a	399716	responseSmallT	correct	n/a	4.1758	yes	n/a	n/a
1562.457031	n/a	399989	largeHSmallT	correct	incongruent	0.066406	yes	H	T
1562.523438	n/a	400006	responseSmallT	correct	n/a	0.066406	yes	n/a	n/a
1563.589844	n/a	400279	largeTSmallH	error	incongruent	0.070312	yes	T	H
1563.660156	n/a	400297	responseSmallT	error	n/a	0.070312	yes	n/a	n/a
1564.722656	n/a	400569	largeTSmallH	correct	incongruent	0.52734	no	T	H
1565.25	n/a	400704	responseSmallH	correct	n/a	0.52734	no	n/a	n/a
1566.308594	n/a	400975	largeTSmallH	correct	incongruent	0.41016	no	T	H
1566.71875	n/a	401080	responseSmallH	correct	n/a	0.41016	no	n/a	n/a
1567.789062	n/a	401354	largeHSmallT	correct	incongruent	0.42969	no	H	T
1568.21875	n/a	401464	responseSmallT	correct	n/a	0.42969	no	n/a	n/a
1569.296875	n/a	401740	largeTSmallH	correct	incongruent	0.48047	no	T	H
1569.777344	n/a	401863	responseSmallH	correct	n/a	0.48047	no	n/a	n/a
1570.855469	n/a	402139	largeTSmallH	correct	incongruent	0.42578	no	T	H
1571.28125	n/a	402248	responseSmallH	correct	n/a	0.42578	no	n/a	n/a
1572.347656	n/a	402521	largeTSmallT	correct	congruent	0.60547	no	T	T
1572.953125	n/a	402676	responseSmallT	correct	n/a	0.60547	no	n/a	n/a
1574.015625	n/a	402948	largeTSmallH	error	incongruent	0.36328	no	T	H
1574.378906	n/a	403041	responseSmallT	error	n/a	0.36328	no	n/a	n/a
1575.457031	n/a	403317	largeHSmallH	correct	congruent	0.40625	no	H	H
1575.863281	n/a	403421	responseSmallH	correct	n/a	0.40625	no	n/a	n/a
1576.9375	n/a	403696	largeTSmallH	correct	incongruent	0.54297	no	T	H
1577.480469	n/a	403835	responseSmallH	correct	n/a	0.54297	no	n/a	n/a
1578.5625	n/a	404112	largeHSmallT	correct	incongruent	0.50391	no	H	T
1579.066406	n/a	404241	responseSmallT	correct	n/a	0.50391	no	n/a	n/a
1580.136719	n/a	404515	largeTSmallT	error	congruent	1.4922	no	T	T
1581.628906	n/a	404897	responseSmallH	error	n/a	1.4922	no	n/a	n/a
1582.695312	n/a	405170	largeTSmallT	correct	congruent	7.8555	yes	T	T
1590.550781	n/a	407181	responseSmallT	correct	n/a	7.8555	yes	n/a	n/a
1591.617188	n/a	407454	largeHSmallT	correct	incongruent	0.66797	no	H	T
1592.285156	n/a	407625	responseSmallT	correct	n/a	0.66797	no	n/a	n/a
1593.363281	n/a	407901	largeHSmallH	correct	congruent	0.50391	no	H	H
1593.867188	n/a	408030	responseSmallH	correct	n/a	0.50391	no	n/a	n/a
1594.933594	n/a	408303	largeTSmallH	correct	incongruent	0.51562	no	T	H
1595.449219	n/a	408435	responseSmallH	correct	n/a	0.51562	no	n/a	n/a
1596.507812	n/a	408706	largeTSmallH	correct	incongruent	0.41797	no	T	H
1596.925781	n/a	408813	responseSmallH	correct	n/a	0.41797	no	n/a	n/a
1598.003906	n/a	409089	largeHSmallT	correct	incongruent	0.57031	no	H	T
1598.574219	n/a	409235	responseSmallT	correct	n/a	0.57031	no	n/a	n/a
1599.65625	n/a	409512	largeTSmallT	correct	congruent	0.47266	no	T	T
1600.128906	n/a	409633	responseSmallT	correct	n/a	0.47266	no	n/a	n/a
1601.1875	n/a	409904	largeTSmallT	correct	congruent	0.45703	no	T	T
1601.644531	n/a	410021	responseSmallT	correct	n/a	0.45703	no	n/a	n/a
1602.707031	n/a	410293	largeHSmallT	correct	incongruent	0.44531	no	H	T
1603.152344	n/a	410407	responseSmallT	correct	n/a	0.44531	no	n/a	n/a
1604.214844	n/a	410679	largeTSmallH	error	incongruent	0.34766	no	T	H
1604.5625	n/a	410768	responseSmallT	error	n/a	0.34766	no	n/a	n/a
1605.613281	n/a	411037	largeHSmallT	correct	incongruent	0.52344	no	H	T
1606.136719	n/a	411171	responseSmallT	correct	n/a	0.52344	no	n/a	n/a
1607.203125	n/a	411444	largeHSmallT	correct	incongruent	0.47266	no	H	T
1607.675781	n/a	411565	responseSmallT	correct	n/a	0.47266	no	n/a	n/a
1608.75	n/a	411840	largeHSmallH	correct	congruent	9.9766	yes	H	H
1618.726562	n/a	414394	responseSmallH	correct	n/a	9.9766	yes	n/a	n/a
1619.789062	n/a	414666	largeTSmallH	correct	incongruent	0.40625	no	T	H
1620.195312	n/a	414770	responseSmallH	correct	n/a	0.40625	no	n/a	n/a
1621.269531	n/a	415045	largeHSmallT	correct	incongruent	0.47656	no	H	T
1621.746094	n/a	415167	responseSmallT	correct	n/a	0.47656	no	n/a	n/a
1622.816406	n/a	415441	largeTSmallT	error	congruent	0.43359	no	T	T
1623.25	n/a	415552	responseSmallH	error	n/a	0.43359	no	n/a	n/a
1624.308594	n/a	415823	largeHSmallH	correct	congruent	0.46094	no	H	H
1624.769531	n/a	415941	responseSmallH	correct	n/a	0.46094	no	n/a	n/a
1625.839844	n/a	416215	largeTSmallH	correct	incongruent	0.47656	no	T	H
1626.316406	n/a	416337	responseSmallH	correct	n/a	0.47656	no	n/a	n/a
1627.386719	n/a	416611	largeTSmallT	correct	congruent	0.51172	no	T	T
1627.898438	n/a	416742	responseSmallT	correct	n/a	0.51172	no	n/a	n/a
1628.960938	n/a	417014	largeTSmallH	correct	incongruent	0.57422	no	T	H
1629.535156	n/a	417161	responseSmallH	correct	n/a	0.57422	no	n/a	n/a
1630.601562	n/a	417434	largeTSmallT	correct	congruent	0.53125	no	T	T
1631.132812	n/a	417570	responseSmallT	correct	n/a	0.53125	no	n/a	n/a
1632.203125	n/a	417844	largeTSmallT	correct	congruent	0.51562	no	T	T
1632.71875	n/a	417976	responseSmallT	correct	n/a	0.51562	no	n/a	n/a
1633.773438	n/a	418246	largeHSmallH	correct	congruent	0.49219	no	H	H
1634.265625	n/a	418372	responseSmallH	correct	n/a	0.49219	no	n/a	n/a
1635.320312	n/a	418642	largeHSmallT	correct	incongruent	0.62109	no	H	T
1635.941406	n/a	418801	responseSmallT	correct	n/a	0.62109	no	n/a	n/a
1637.015625	n/a	419076	largeTSmallH	correct	incongruent	0.47266	no	T	H
1637.488281	n/a	419197	responseSmallH	correct	n/a	0.47266	no	n/a	n/a
1638.546875	n/a	419468	largeHSmallT	correct	incongruent	0.60156	no	H	T
1639.148438	n/a	419622	responseSmallT	correct	n/a	0.60156	no	n/a	n/a
1640.226562	n/a	419898	largeTSmallT	correct	congruent	0.51172	no	T	T
1640.738281	n/a	420029	responseSmallT	correct	n/a	0.51172	no	n/a	n/a
1641.800781	n/a	420301	largeHSmallT	correct	incongruent	0.59375	no	H	T
1642.394531	n/a	420453	responseSmallT	correct	n/a	0.59375	no	n/a	n/a
1643.453125	n/a	420724	largeHSmallH	correct	congruent	8.0742	yes	H	H
1651.527344	n/a	422791	responseSmallH	correct	n/a	8.0742	yes	n/a	n/a
1652.601562	n/a	423066	largeTSmallT	correct	congruent	0.54688	no	T	T
1653.148438	n/a	423206	responseSmallT	correct	n/a	0.54688	no	n/a	n/a
1654.214844	n/a	423479	largeHSmallH	correct	congruent	0.51562	no	H	H
1654.730469	n/a	423611	responseSmallH	correct	n/a	0.51562	no	n/a	n/a
1655.789062	n/a	423882	largeTSmallH	correct	incongruent	0.375	no	T	H
1656.164062	n/a	423978	responseSmallH	correct	n/a	0.375	no	n/a	n/a
1657.226562	n/a	424250	largeTSmallH	correct	incongruent	0.52344	no	T	H
1657.75	n/a	424384	responseSmallH	correct	n/a	0.52344	no	n/a	n/a
1658.8125	n/a	424656	largeTSmallH	correct	incongruent	0.38281	no	T	H
1659.195312	n/a	424754	responseSmallH	correct	n/a	0.38281	no	n/a	n/a
1660.265625	n/a	425028	largeTSmallT	correct	congruent	14.5391	yes	T	T
1674.804688	n/a	428750	responseSmallT	correct	n/a	14.5391	yes	n/a	n/a
1675.867188	n/a	429022	largeTSmallH	correct	incongruent	0.39062	no	T	H
1676.257812	n/a	429122	responseSmallH	correct	n/a	0.39062	no	n/a	n/a
1677.320312	n/a	429394	largeHSmallH	correct	congruent	0.43359	no	H	H
1677.753906	n/a	429505	responseSmallH	correct	n/a	0.43359	no	n/a	n/a
1678.8125	n/a	429776	largeTSmallH	correct	incongruent	0.49219	no	T	H
1679.304688	n/a	429902	responseSmallH	correct	n/a	0.49219	no	n/a	n/a
1680.375	n/a	430176	largeHSmallH	correct	congruent	0.50391	no	H	H
1680.878906	n/a	430305	responseSmallH	correct	n/a	0.50391	no	n/a	n/a
1681.945312	n/a	430578	largeHSmallH	correct	congruent	0.47266	no	H	H
1682.417969	n/a	430699	responseSmallH	correct	n/a	0.47266	no	n/a	n/a
1683.480469	n/a	430971	largeTSmallH	correct	incongruent	0.39453	no	T	H
1683.875	n/a	431072	responseSmallH	correct	n/a	0.39453	no	n/a	n/a
1684.945312	n/a	431346	largeTSmallT	correct	congruent	0.51562	no	T	T
1685.460938	n/a	431478	responseSmallT	correct	n/a	0.51562	no	n/a	n/a
1686.519531	n/a	431749	largeTSmallT	correct	congruent	0.53906	no	T	T
1687.058594	n/a	431887	responseSmallT	correct	n/a	0.53906	no	n/a	n/a
1688.132812	n/a	432162	largeTSmallH	correct	incongruent	0.48828	no	T	H
1688.621094	n/a	432287	responseSmallH	correct	n/a	0.48828	no	n/a	n/a
1689.691406	n/a	432561	largeTSmallH	correct	incongruent	0.75391	no	T	H
1690.445312	n/a	432754	responseSmallH	correct	n/a	0.75391	no	n/a	n/a
1691.519531	n/a	433029	largeHSmallH	correct	congruent	0.55859	no	H	H
1692.078125	n/a	433172	responseSmallH	correct	n/a	0.55859	no	n/a	n/a
1693.132812	n/a	433442	largeHSmallH	error	congruent	8.3047	yes	H	H
1701.4375	n/a	435568	responseSmallT	error	n/a	8.3047	yes	n/a	n/a
1702.492188	n/a	435838	largeHSmallH	correct	congruent	0.53125	no	H	H
1703.023438	n/a	435974	responseSmallH	correct	n/a	0.53125	no	n/a	n/a
1704.09375	n/a	436248	largeHSmallT	correct	incongruent	0.45312	no	H	T
1704.546875	n/a	436364	responseSmallT	correct	n/a	0.45312	no	n/a	n/a
1705.613281	n/a	436637	largeTSmallT	correct	congruent	0.51172	no	T	T
1706.125	n/a	436768	responseSmallT	correct	n/a	0.51172	no	n/a	n/a
1707.199219	n/a	437043	largeHSmallH	correct	congruent	0.53516	no	H	H
1707.734375	n/a	437180	responseSmallH	correct	n/a	0.53516	no	n/a	n/a
1708.800781	n/a	437453	largeTSmallH	correct	incongruent	0.48828	no	T	H
1709.289062	n/a	437578	responseSmallH	correct	n/a	0.48828	no	n/a	n/a
1710.359375	n/a	437852	largeHSmallT	correct	incongruent	0.51562	no	H	T
1710.875	n/a	437984	responseSmallT	correct	n/a	0.51562	no	n/a	n/a
1711.933594	n/a	438255	largeHSmallT	error	incongruent	0.42188	no	H	T
1712.355469	n/a	438363	responseSmallH	error	n/a	0.42188	no	n/a	n/a
1713.414062	n/a	438634	largeTSmallT	correct	congruent	0.42188	no	T	T
1713.835938	n/a	438742	responseSmallT	correct	n/a	0.42188	no	n/a	n/a
1714.90625	n/a	439016	largeHSmallT	correct	incongruent	0.55859	no	H	T
1715.464844	n/a	439159	responseSmallT	correct	n/a	0.55859	no	n/a	n/a
1716.519531	n/a	439429	largeTSmallH	correct	incongruent	0.47266	no	T	H
1716.992188	n/a	439550	responseSmallH	correct	n/a	0.47266	no	n/a	n/a
1718.050781	n/a	439821	largeHSmallH	correct	congruent	0.47266	no	H	H
1718.523438	n/a	439942	responseSmallH	correct	n/a	0.47266	no	n/a	n/a
1719.597656	n/a	440217	largeHSmallH	correct	congruent	0.45312	no	H	H
1720.050781	n/a	440333	responseSmallH	correct	n/a	0.45312	no	n/a	n/a
1721.105469	n/a	440603	largeTSmallH	correct	incongruent	0.47266	no	T	H
1721.578125	n/a	440724	responseSmallH	correct	n/a	0.47266	no	n/a	n/a
1722.652344	n/a	440999	largeHSmallH	error	congruent	0.45312	no	H	H
1723.105469	n/a	441115	responseSmallT	error	n/a	0.45312	no	n/a	n/a
1724.171875	n/a	441388	largeHSmallH	correct	congruent	5.4141	yes	H	H
1729.585938	n/a	442774	responseSmallH	correct	n/a	5.4141	yes	n/a	n/a
1730.652344	n/a	443047	largeTSmallT	correct	congruent	0.42578	no	T	T
1731.078125	n/a	443156	responseSmallT	correct	n/a	0.42578	no	n/a	n/a
1732.160156	n/a	443433	largeTSmallT	correct	congruent	0.65625	no	T	T
1732.816406	n/a	443601	responseSmallT	correct	n/a	0.65625	no	n/a	n/a
1733.890625	n/a	443876	largeTSmallT	correct	congruent	0.62891	no	T	T
1734.519531	n/a	444037	responseSmallT	correct	n/a	0.62891	no	n/a	n/a
1735.585938	n/a	444310	largeTSmallT	correct	congruent	10.3633	yes	T	T
1745.949219	n/a	446963	responseSmallT	correct	n/a	10.3633	yes	n/a	n/a
1747.027344	n/a	447239	largeHSmallT	correct	incongruent	0.46875	no	H	T
1747.496094	n/a	447359	responseSmallT	correct	n/a	0.46875	no	n/a	n/a
1748.570312	n/a	447634	largeTSmallT	correct	congruent	0.40625	no	T	T
1748.976562	n/a	447738	responseSmallT	correct	n/a	0.40625	no	n/a	n/a
1750.050781	n/a	448013	largeTSmallT	correct	congruent	0.45703	no	T	T
1750.507812	n/a	448130	responseSmallT	correct	n/a	0.45703	no	n/a	n/a
1751.570312	n/a	448402	largeHSmallT	correct	incongruent	0.55078	no	H	T
1752.121094	n/a	448543	responseSmallT	correct	n/a	0.55078	no	n/a	n/a
1753.183594	n/a	448815	largeTSmallH	correct	incongruent	0.75391	no	T	H
1753.9375	n/a	449008	responseSmallH	correct	n/a	0.75391	no	n/a	n/a
1755.011719	n/a	449283	largeTSmallH	correct	incongruent	0.82031	no	T	H
1755.832031	n/a	449493	responseSmallH	correct	n/a	0.82031	no	n/a	n/a
1756.890625	n/a	449764	largeTSmallT	correct	congruent	0.58203	no	T	T
1757.472656	n/a	449913	responseSmallT	correct	n/a	0.58203	no	n/a	n/a
1758.53125	n/a	450184	largeTSmallH	correct	incongruent	0.46484	no	T	H
1758.996094	n/a	450303	responseSmallH	correct	n/a	0.46484	no	n/a	n/a
1760.066406	n/a	450577	largeTSmallH	correct	incongruent	0.48828	no	T	H
1760.554688	n/a	450702	responseSmallH	correct	n/a	0.48828	no	n/a	n/a
1761.625	n/a	450976	largeTSmallH	correct	incongruent	0.53125	no	T	H
1762.15625	n/a	451112	responseSmallH	correct	n/a	0.53125	no	n/a	n/a
