onset	duration	sample	value	response_type	congruence	response_time	response_out_of_range	largeletter	smallletter
23.4453125	n/a	6002	largeTSmallT	correct	congruent	1.5469	yes	T	T
24.9921875	n/a	6398	responseLargeT	correct	n/a	1.5469	yes	n/a	n/a
26.0546875	n/a	6670	largeHSmallT	correct	incongruent	0.81641	no	H	T
26.87109375	n/a	6879	responseLargeH	correct	n/a	0.81641	no	n/a	n/a
27.94921875	n/a	7155	largeTSmallT	correct	congruent	1.082	no	T	T
29.03125	n/a	7432	responseLargeT	correct	n/a	1.082	no	n/a	n/a
30.09375	n/a	7704	largeHSmallT	correct	incongruent	0.55078	no	H	T
30.64453125	n/a	7845	responseLargeH	correct	n/a	0.55078	no	n/a	n/a
31.72265625	n/a	8121	largeHSmallT	correct	incongruent	0.5625	no	H	T
32.28515625	n/a	8265	responseLargeH	correct	n/a	0.5625	no	n/a	n/a
33.36328125	n/a	8541	largeTSmallH	correct	incongruent	0.75391	no	T	H
34.1171875	n/a	8734	responseLargeT	correct	n/a	0.75391	no	n/a	n/a
35.1875	n/a	9008	largeHSmallH	correct	congruent	0.55859	no	H	H
35.74609375	n/a	9151	responseLargeH	correct	n/a	0.55859	no	n/a	n/a
36.828125	n/a	9428	largeHSmallT	correct	incongruent	0.82031	no	H	T
37.6484375	n/a	9638	responseLargeH	correct	n/a	0.82031	no	n/a	n/a
38.72265625	n/a	9913	largeTSmallH	correct	incongruent	0.65234	no	T	H
39.375	n/a	10080	responseLargeT	correct	n/a	0.65234	no	n/a	n/a
40.44140625	n/a	10353	largeHSmallH	correct	congruent	0.54688	no	H	H
40.98828125	n/a	10493	responseLargeH	correct	n/a	0.54688	no	n/a	n/a
42.0703125	n/a	10770	largeHSmallH	correct	congruent	0.5	no	H	H
42.5703125	n/a	10898	responseLargeH	correct	n/a	0.5	no	n/a	n/a
43.640625	n/a	11172	largeHSmallT	correct	incongruent	0.41797	no	H	T
44.05859375	n/a	11279	responseLargeH	correct	n/a	0.41797	no	n/a	n/a
45.13671875	n/a	11555	largeHSmallT	correct	incongruent	0.39062	no	H	T
45.52734375	n/a	11655	responseLargeH	correct	n/a	0.39062	no	n/a	n/a
46.6015625	n/a	11930	largeTSmallT	correct	congruent	0.46094	no	T	T
47.0625	n/a	12048	responseLargeT	correct	n/a	0.46094	no	n/a	n/a
48.13671875	n/a	12323	largeHSmallT	correct	incongruent	0.5	no	H	T
48.63671875	n/a	12451	responseLargeH	correct	n/a	0.5	no	n/a	n/a
49.70703125	n/a	12725	largeTSmallH	correct	incongruent	0.47656	no	T	H
50.18359375	n/a	12847	responseLargeT	correct	n/a	0.47656	no	n/a	n/a
51.25390625	n/a	13121	largeTSmallH	correct	incongruent	0.55469	no	T	H
51.80859375	n/a	13263	responseLargeT	correct	n/a	0.55469	no	n/a	n/a
52.8671875	n/a	13534	largeHSmallH	correct	congruent	0.42578	no	H	H
53.29296875	n/a	13643	responseLargeH	correct	n/a	0.42578	no	n/a	n/a
54.375	n/a	13920	largeTSmallH	correct	incongruent	0.48047	no	T	H
54.85546875	n/a	14043	responseLargeT	correct	n/a	0.48047	no	n/a	n/a
55.93359375	n/a	14319	largeTSmallH	correct	incongruent	0.57031	no	T	H
56.50390625	n/a	14465	responseLargeT	correct	n/a	0.57031	no	n/a	n/a
57.57421875	n/a	14739	largeHSmallT	correct	incongruent	0.53125	no	H	T
58.10546875	n/a	14875	responseLargeH	correct	n/a	0.53125	no	n/a	n/a
59.17578125	n/a	15149	largeHSmallT	correct	incongruent	0.45312	no	H	T
59.62890625	n/a	15265	responseLargeH	correct	n/a	0.45312	no	n/a	n/a
60.70703125	n/a	15541	largeHSmallT	correct	incongruent	0.41406	no	H	T
61.12109375	n/a	15647	responseLargeH	correct	n/a	0.41406	no	n/a	n/a
62.1875	n/a	15920	largeTSmallT	correct	congruent	0.53906	no	T	T
62.7265625	n/a	16058	responseLargeT	correct	n/a	0.53906	no	n/a	n/a
63.7890625	n/a	16330	largeHSmallH	correct	congruent	0.42188	no	H	H
64.2109375	n/a	16438	responseLargeH	correct	n/a	0.42188	no	n/a	n/a
65.26953125	n/a	16709	largeHSmallH	correct	congruent	0.44141	no	H	H
65.7109375	n/a	16822	responseLargeH	correct	n/a	0.44141	no	n/a	n/a
66.7734375	n/a	17094	largeHSmallT	correct	incongruent	0.41406	no	H	T
67.1875	n/a	17200	responseLargeH	correct	n/a	0.41406	no	n/a	n/a
68.25390625	n/a	17473	largeHSmallH	correct	congruent	0.40234	no	H	H
68.65625	n/a	17576	responseLargeH	correct	n/a	0.40234	no	n/a	n/a
69.72265625	n/a	17849	largeTSmallH	correct	incongruent	0.46094	no	T	H
70.18359375	n/a	17967	responseLargeT	correct	n/a	0.46094	no	n/a	n/a
71.25390625	n/a	18241	largeHSmallH	correct	congruent	0.47266	no	H	H
71.7265625	n/a	18362	responseLargeH	correct	n/a	0.47266	no	n/a	n/a
72.7890625	n/a	18634	largeHSmallH	correct	congruent	0.40625	no	H	H
73.1953125	n/a	18738	responseLargeH	correct	n/a	0.40625	no	n/a	n/a
74.26953125	n/a	19013	largeTSmallT	correct	congruent	0.44531	no	T	T
74.71484375	n/a	19127	responseLargeT	correct	n/a	0.44531	no	n/a	n/a
75.7890625	n/a	19402	largeTSmallH	correct	incongruent	0.58203	no	T	H
76.37109375	n/a	19551	responseLargeT	correct	n/a	0.58203	no	n/a	n/a
77.44140625	n/a	19825	largeHSmallH	correct	congruent	0.49219	no	H	H
77.93359375	n/a	19951	responseLargeH	correct	n/a	0.49219	no	n/a	n/a
79	n/a	20224	largeTSmallT	correct	congruent	0.48047	no	T	T
79.48046875	n/a	20347	responseLargeT	correct	n/a	0.48047	no	n/a	n/a
80.546875	n/a	20620	largeHSmallH	correct	congruent	0.48047	no	H	H
81.02734375	n/a	20743	responseLargeH	correct	n/a	0.48047	no	n/a	n/a
82.09375	n/a	21016	largeTSmallH	correct	incongruent	0.52734	no	T	H
82.62109375	n/a	21151	responseLargeT	correct	n/a	0.52734	no	n/a	n/a
83.6953125	n/a	21426	largeTSmallT	correct	congruent	0.47656	no	T	T
84.171875	n/a	21548	responseLargeT	correct	n/a	0.47656	no	n/a	n/a
85.2421875	n/a	21822	largeTSmallH	correct	incongruent	0.45703	no	T	H
85.69921875	n/a	21939	responseLargeT	correct	n/a	0.45703	no	n/a	n/a
86.7734375	n/a	22214	largeHSmallH	correct	congruent	0.51172	no	H	H
87.28515625	n/a	22345	responseLargeH	correct	n/a	0.51172	no	n/a	n/a
88.359375	n/a	22620	largeTSmallH	correct	incongruent	0.42969	no	T	H
88.7890625	n/a	22730	responseLargeT	correct	n/a	0.42969	no	n/a	n/a
89.8671875	n/a	23006	largeHSmallT	correct	incongruent	0.38281	no	H	T
90.25	n/a	23104	responseLargeH	correct	n/a	0.38281	no	n/a	n/a
91.3203125	n/a	23378	largeHSmallH	correct	congruent	0.41016	no	H	H
91.73046875	n/a	23483	responseLargeH	correct	n/a	0.41016	no	n/a	n/a
92.80078125	n/a	23757	largeTSmallT	correct	congruent	0.45703	no	T	T
93.2578125	n/a	23874	responseLargeT	correct	n/a	0.45703	no	n/a	n/a
94.3203125	n/a	24146	largeHSmallH	correct	congruent	0.4375	no	H	H
94.7578125	n/a	24258	responseLargeH	correct	n/a	0.4375	no	n/a	n/a
95.828125	n/a	24532	largeHSmallT	error	incongruent	0.40625	no	H	T
96.234375	n/a	24636	responseLargeT	error	n/a	0.40625	no	n/a	n/a
97.30859375	n/a	24911	largeHSmallT	correct	incongruent	0.53906	no	H	T
97.84765625	n/a	25049	responseLargeH	correct	n/a	0.53906	no	n/a	n/a
98.921875	n/a	25324	largeHSmallH	correct	congruent	0.48438	no	H	H
99.40625	n/a	25448	responseLargeH	correct	n/a	0.48438	no	n/a	n/a
100.4804688	n/a	25723	largeTSmallT	correct	congruent	0.46484	no	T	T
100.9453125	n/a	25842	responseLargeT	correct	n/a	0.46484	no	n/a	n/a
102.015625	n/a	26116	largeHSmallH	correct	congruent	0.48047	no	H	H
102.4960938	n/a	26239	responseLargeH	correct	n/a	0.48047	no	n/a	n/a
103.5742188	n/a	26515	largeTSmallH	correct	incongruent	0.41406	no	T	H
103.9882812	n/a	26621	responseLargeT	correct	n/a	0.41406	no	n/a	n/a
105.0546875	n/a	26894	largeTSmallT	correct	congruent	0.4375	no	T	T
105.4921875	n/a	27006	responseLargeT	correct	n/a	0.4375	no	n/a	n/a
106.5742188	n/a	27283	largeTSmallH	correct	incongruent	0.44922	no	T	H
107.0234375	n/a	27398	responseLargeT	correct	n/a	0.44922	no	n/a	n/a
108.09375	n/a	27672	largeTSmallT	correct	congruent	0.39453	no	T	T
108.4882812	n/a	27773	responseLargeT	correct	n/a	0.39453	no	n/a	n/a
109.5585938	n/a	28047	largeTSmallH	correct	incongruent	0.38281	no	T	H
109.9414062	n/a	28145	responseLargeT	correct	n/a	0.38281	no	n/a	n/a
111.015625	n/a	28420	largeHSmallH	correct	congruent	0.53906	no	H	H
111.5546875	n/a	28558	responseLargeH	correct	n/a	0.53906	no	n/a	n/a
112.6289062	n/a	28833	largeHSmallT	error	incongruent	0.56641	no	H	T
113.1953125	n/a	28978	responseLargeT	error	n/a	0.56641	no	n/a	n/a
114.265625	n/a	29252	largeHSmallH	correct	congruent	0.50781	no	H	H
114.7734375	n/a	29382	responseLargeH	correct	n/a	0.50781	no	n/a	n/a
115.8515625	n/a	29658	largeHSmallH	correct	congruent	0.45312	no	H	H
116.3046875	n/a	29774	responseLargeH	correct	n/a	0.45312	no	n/a	n/a
117.3867188	n/a	30051	largeTSmallH	correct	incongruent	0.50391	no	T	H
117.890625	n/a	30180	responseLargeT	correct	n/a	0.50391	no	n/a	n/a
118.9609375	n/a	30454	largeTSmallT	correct	congruent	0.46094	no	T	T
119.421875	n/a	30572	responseLargeT	correct	n/a	0.46094	no	n/a	n/a
120.5078125	n/a	30850	largeTSmallH	correct	incongruent	0.39062	no	T	H
120.8984375	n/a	30950	responseLargeT	correct	n/a	0.39062	no	n/a	n/a
121.9609375	n/a	31222	largeTSmallH	correct	incongruent	0.42578	no	T	H
122.3867188	n/a	31331	responseLargeT	correct	n/a	0.42578	no	n/a	n/a
123.4648438	n/a	31607	largeTSmallT	correct	congruent	0.41406	no	T	T
123.8789062	n/a	31713	responseLargeT	correct	n/a	0.41406	no	n/a	n/a
124.9453125	n/a	31986	largeHSmallH	correct	congruent	0.46875	no	H	H
125.4140625	n/a	32106	responseLargeH	correct	n/a	0.46875	no	n/a	n/a
126.4921875	n/a	32382	largeTSmallH	correct	incongruent	0.52734	no	T	H
127.0195312	n/a	32517	responseLargeT	correct	n/a	0.52734	no	n/a	n/a
128.09375	n/a	32792	largeTSmallT	correct	congruent	0.47656	no	T	T
128.5703125	n/a	32914	responseLargeT	correct	n/a	0.47656	no	n/a	n/a
129.640625	n/a	33188	largeTSmallH	correct	incongruent	0.55078	no	T	H
130.1914062	n/a	33329	responseLargeT	correct	n/a	0.55078	no	n/a	n/a
131.265625	n/a	33604	largeHSmallH	correct	congruent	0.49219	no	H	H
131.7578125	n/a	33730	responseLargeH	correct	n/a	0.49219	no	n/a	n/a
132.828125	n/a	34004	largeHSmallH	correct	congruent	0.45312	no	H	H
133.28125	n/a	34120	responseLargeH	correct	n/a	0.45312	no	n/a	n/a
134.359375	n/a	34396	largeTSmallH	correct	incongruent	0.53516	no	T	H
134.8945312	n/a	34533	responseLargeT	correct	n/a	0.53516	no	n/a	n/a
135.9609375	n/a	34806	largeTSmallH	correct	incongruent	0.46875	no	T	H
136.4296875	n/a	34926	responseLargeT	correct	n/a	0.46875	no	n/a	n/a
137.5078125	n/a	35202	largeHSmallT	correct	incongruent	0.45312	no	H	T
137.9609375	n/a	35318	responseLargeH	correct	n/a	0.45312	no	n/a	n/a
139.0273438	n/a	35591	largeHSmallT	correct	incongruent	0.40234	no	H	T
139.4296875	n/a	35694	responseLargeH	correct	n/a	0.40234	no	n/a	n/a
140.4921875	n/a	35966	largeHSmallH	correct	congruent	0.46094	no	H	H
140.953125	n/a	36084	responseLargeH	correct	n/a	0.46094	no	n/a	n/a
142.0273438	n/a	36359	largeTSmallT	correct	congruent	0.45312	no	T	T
142.4804688	n/a	36475	responseLargeT	correct	n/a	0.45312	no	n/a	n/a
143.5585938	n/a	36751	largeHSmallH	correct	congruent	0.70703	no	H	H
144.265625	n/a	36932	responseLargeH	correct	n/a	0.70703	no	n/a	n/a
145.3320312	n/a	37205	largeHSmallH	correct	congruent	0.41016	no	H	H
145.7421875	n/a	37310	responseLargeH	correct	n/a	0.41016	no	n/a	n/a
146.8125	n/a	37584	largeTSmallH	correct	incongruent	0.47266	no	T	H
147.2851562	n/a	37705	responseLargeT	correct	n/a	0.47266	no	n/a	n/a
148.359375	n/a	37980	largeHSmallT	correct	incongruent	0.76953	no	H	T
149.1289062	n/a	38177	responseLargeH	correct	n/a	0.76953	no	n/a	n/a
150.1992188	n/a	38451	largeTSmallH	correct	incongruent	0.60938	no	T	H
150.8085938	n/a	38607	responseLargeT	correct	n/a	0.60938	no	n/a	n/a
151.8671875	n/a	38878	largeTSmallT	correct	congruent	0.42188	no	T	T
152.2890625	n/a	38986	responseLargeT	correct	n/a	0.42188	no	n/a	n/a
153.359375	n/a	39260	largeTSmallH	correct	incongruent	0.42969	no	T	H
153.7890625	n/a	39370	responseLargeT	correct	n/a	0.42969	no	n/a	n/a
154.8671875	n/a	39646	largeTSmallT	correct	congruent	0.42969	no	T	T
155.296875	n/a	39756	responseLargeT	correct	n/a	0.42969	no	n/a	n/a
156.359375	n/a	40028	largeTSmallH	correct	incongruent	0.41016	no	T	H
156.7695312	n/a	40133	responseLargeT	correct	n/a	0.41016	no	n/a	n/a
157.8515625	n/a	40410	largeHSmallH	correct	congruent	0.46875	no	H	H
158.3203125	n/a	40530	responseLargeH	correct	n/a	0.46875	no	n/a	n/a
159.3867188	n/a	40803	largeHSmallH	correct	congruent	0.39844	no	H	H
159.7851562	n/a	40905	responseLargeH	correct	n/a	0.39844	no	n/a	n/a
160.8515625	n/a	41178	largeHSmallT	correct	incongruent	0.42969	no	H	T
161.28125	n/a	41288	responseLargeH	correct	n/a	0.42969	no	n/a	n/a
162.359375	n/a	41564	largeHSmallT	correct	incongruent	0.40234	no	H	T
162.7617188	n/a	41667	responseLargeH	correct	n/a	0.40234	no	n/a	n/a
163.8398438	n/a	41943	largeTSmallH	correct	incongruent	0.44531	no	T	H
164.2851562	n/a	42057	responseLargeT	correct	n/a	0.44531	no	n/a	n/a
165.34375	n/a	42328	largeTSmallT	correct	congruent	0.4375	no	T	T
165.78125	n/a	42440	responseLargeT	correct	n/a	0.4375	no	n/a	n/a
166.8515625	n/a	42714	largeHSmallT	correct	incongruent	0.46094	no	H	T
167.3125	n/a	42832	responseLargeH	correct	n/a	0.46094	no	n/a	n/a
168.3984375	n/a	43110	largeTSmallT	correct	congruent	0.41797	no	T	T
168.8164062	n/a	43217	responseLargeT	correct	n/a	0.41797	no	n/a	n/a
169.890625	n/a	43492	largeHSmallT	correct	incongruent	0.4375	no	H	T
170.328125	n/a	43604	responseLargeH	correct	n/a	0.4375	no	n/a	n/a
171.3984375	n/a	43878	largeTSmallH	correct	incongruent	0.42578	no	T	H
171.8242188	n/a	43987	responseLargeT	correct	n/a	0.42578	no	n/a	n/a
172.90625	n/a	44264	largeHSmallH	correct	congruent	0.39844	no	H	H
173.3046875	n/a	44366	responseLargeH	correct	n/a	0.39844	no	n/a	n/a
174.3867188	n/a	44643	largeTSmallH	correct	incongruent	0.40625	no	T	H
174.7929688	n/a	44747	responseLargeT	correct	n/a	0.40625	no	n/a	n/a
175.8671875	n/a	45022	largeTSmallH	correct	incongruent	0.4375	no	T	H
176.3046875	n/a	45134	responseLargeT	correct	n/a	0.4375	no	n/a	n/a
177.3710938	n/a	45407	largeHSmallH	correct	congruent	0.46094	no	H	H
177.8320312	n/a	45525	responseLargeH	correct	n/a	0.46094	no	n/a	n/a
178.90625	n/a	45800	largeTSmallT	correct	congruent	0.42188	no	T	T
179.328125	n/a	45908	responseLargeT	correct	n/a	0.42188	no	n/a	n/a
180.4101562	n/a	46185	largeTSmallT	correct	congruent	0.42578	no	T	T
180.8359375	n/a	46294	responseLargeT	correct	n/a	0.42578	no	n/a	n/a
181.90625	n/a	46568	largeTSmallH	correct	incongruent	0.39062	no	T	H
182.296875	n/a	46668	responseLargeT	correct	n/a	0.39062	no	n/a	n/a
183.3710938	n/a	46943	largeTSmallT	correct	congruent	0.41016	no	T	T
183.78125	n/a	47048	responseLargeT	correct	n/a	0.41016	no	n/a	n/a
184.8515625	n/a	47322	largeHSmallT	correct	incongruent	0.47656	no	H	T
185.328125	n/a	47444	responseLargeH	correct	n/a	0.47656	no	n/a	n/a
186.4023438	n/a	47719	largeHSmallT	correct	incongruent	0.41016	no	H	T
186.8125	n/a	47824	responseLargeH	correct	n/a	0.41016	no	n/a	n/a
187.8789062	n/a	48097	largeHSmallH	correct	congruent	0.40234	no	H	H
188.28125	n/a	48200	responseLargeH	correct	n/a	0.40234	no	n/a	n/a
189.34375	n/a	48472	largeHSmallH	correct	congruent	0.39062	no	H	H
189.734375	n/a	48572	responseLargeH	correct	n/a	0.39062	no	n/a	n/a
190.8125	n/a	48848	largeHSmallT	correct	incongruent	0.42578	no	H	T
191.2382812	n/a	48957	responseLargeH	correct	n/a	0.42578	no	n/a	n/a
192.3046875	n/a	49230	largeHSmallT	correct	incongruent	0.64844	no	H	T
192.953125	n/a	49396	responseLargeH	correct	n/a	0.64844	no	n/a	n/a
194.0234375	n/a	49670	largeTSmallT	correct	congruent	0.46875	no	T	T
194.4921875	n/a	49790	responseLargeT	correct	n/a	0.46875	no	n/a	n/a
195.5703125	n/a	50066	largeTSmallH	correct	incongruent	0.5625	no	T	H
196.1328125	n/a	50210	responseLargeT	correct	n/a	0.5625	no	n/a	n/a
197.2109375	n/a	50486	largeHSmallT	correct	incongruent	0.51172	no	H	T
197.7226562	n/a	50617	responseLargeH	correct	n/a	0.51172	no	n/a	n/a
198.796875	n/a	50892	largeTSmallT	correct	congruent	0.88281	no	T	T
199.6796875	n/a	51118	responseLargeT	correct	n/a	0.88281	no	n/a	n/a
200.7460938	n/a	51391	largeTSmallT	correct	congruent	0.40625	no	T	T
201.1523438	n/a	51495	responseLargeT	correct	n/a	0.40625	no	n/a	n/a
202.2265625	n/a	51770	largeTSmallT	correct	congruent	0.39844	no	T	T
202.625	n/a	51872	responseLargeT	correct	n/a	0.39844	no	n/a	n/a
203.6914062	n/a	52145	largeTSmallT	correct	congruent	0.42969	no	T	T
204.1210938	n/a	52255	responseLargeT	correct	n/a	0.42969	no	n/a	n/a
205.1992188	n/a	52531	largeTSmallT	correct	congruent	0.39453	no	T	T
205.59375	n/a	52632	responseLargeT	correct	n/a	0.39453	no	n/a	n/a
206.6640625	n/a	52906	largeHSmallT	correct	incongruent	0.56641	no	H	T
207.2304688	n/a	53051	responseLargeH	correct	n/a	0.56641	no	n/a	n/a
208.2929688	n/a	53323	largeHSmallH	correct	congruent	0.36328	no	H	H
208.65625	n/a	53416	responseLargeH	correct	n/a	0.36328	no	n/a	n/a
209.7304688	n/a	53691	largeHSmallH	correct	congruent	0.40234	no	H	H
210.1328125	n/a	53794	responseLargeH	correct	n/a	0.40234	no	n/a	n/a
211.1992188	n/a	54067	largeTSmallT	correct	congruent	0.44141	no	T	T
211.640625	n/a	54180	responseLargeT	correct	n/a	0.44141	no	n/a	n/a
212.71875	n/a	54456	largeHSmallH	correct	congruent	0.46484	no	H	H
213.1835938	n/a	54575	responseLargeH	correct	n/a	0.46484	no	n/a	n/a
214.25	n/a	54848	largeTSmallT	correct	congruent	0.41797	no	T	T
214.6679688	n/a	54955	responseLargeT	correct	n/a	0.41797	no	n/a	n/a
215.7460938	n/a	55231	largeHSmallH	correct	congruent	0.44141	no	H	H
216.1875	n/a	55344	responseLargeH	correct	n/a	0.44141	no	n/a	n/a
217.25	n/a	55616	largeTSmallT	correct	congruent	0.44922	no	T	T
217.6992188	n/a	55731	responseLargeT	correct	n/a	0.44922	no	n/a	n/a
218.7695312	n/a	56005	largeHSmallT	correct	incongruent	0.37891	no	H	T
219.1484375	n/a	56102	responseLargeH	correct	n/a	0.37891	no	n/a	n/a
220.2109375	n/a	56374	largeTSmallH	correct	incongruent	0.38281	no	T	H
220.59375	n/a	56472	responseLargeT	correct	n/a	0.38281	no	n/a	n/a
221.6640625	n/a	56746	largeTSmallT	error	congruent	0.33203	no	T	T
221.9960938	n/a	56831	responseLargeH	error	n/a	0.33203	no	n/a	n/a
223.0625	n/a	57104	largeTSmallH	correct	incongruent	0.46875	no	T	H
223.53125	n/a	57224	responseLargeT	correct	n/a	0.46875	no	n/a	n/a
224.5976562	n/a	57497	largeHSmallT	correct	incongruent	0.47266	no	H	T
225.0703125	n/a	57618	responseLargeH	correct	n/a	0.47266	no	n/a	n/a
226.1445312	n/a	57893	largeHSmallH	correct	congruent	0.48438	no	H	H
226.6289062	n/a	58017	responseLargeH	correct	n/a	0.48438	no	n/a	n/a
227.703125	n/a	58292	largeHSmallH	correct	congruent	0.41797	no	H	H
228.1210938	n/a	58399	responseLargeH	correct	n/a	0.41797	no	n/a	n/a
229.1835938	n/a	58671	largeTSmallT	correct	congruent	0.59766	no	T	T
229.78125	n/a	58824	responseLargeT	correct	n/a	0.59766	no	n/a	n/a
230.8515625	n/a	59098	largeTSmallT	correct	congruent	0.42578	no	T	T
231.2773438	n/a	59207	responseLargeT	correct	n/a	0.42578	no	n/a	n/a
232.3554688	n/a	59483	largeTSmallT	correct	congruent	0.38281	no	T	T
232.7382812	n/a	59581	responseLargeT	correct	n/a	0.38281	no	n/a	n/a
233.8085938	n/a	59855	largeTSmallT	correct	congruent	0.41406	no	T	T
234.2226562	n/a	59961	responseLargeT	correct	n/a	0.41406	no	n/a	n/a
235.2890625	n/a	60234	largeTSmallH	correct	incongruent	0.41016	no	T	H
235.6992188	n/a	60339	responseLargeT	correct	n/a	0.41016	no	n/a	n/a
236.7695312	n/a	60613	largeTSmallH	correct	incongruent	0.40625	no	T	H
237.1757812	n/a	60717	responseLargeT	correct	n/a	0.40625	no	n/a	n/a
238.25	n/a	60992	largeHSmallH	correct	congruent	0.44141	no	H	H
238.6914062	n/a	61105	responseLargeH	correct	n/a	0.44141	no	n/a	n/a
239.7695312	n/a	61381	largeTSmallT	correct	congruent	0.44141	no	T	T
240.2109375	n/a	61494	responseLargeT	correct	n/a	0.44141	no	n/a	n/a
241.2773438	n/a	61767	largeTSmallT	correct	congruent	0.46875	no	T	T
241.7460938	n/a	61887	responseLargeT	correct	n/a	0.46875	no	n/a	n/a
242.8242188	n/a	62163	largeHSmallT	correct	incongruent	0.47656	no	H	T
243.3007812	n/a	62285	responseLargeH	correct	n/a	0.47656	no	n/a	n/a
244.3710938	n/a	62559	largeHSmallT	correct	incongruent	0.42969	no	H	T
244.8007812	n/a	62669	responseLargeH	correct	n/a	0.42969	no	n/a	n/a
245.875	n/a	62944	largeTSmallH	correct	incongruent	0.4375	no	T	H
246.3125	n/a	63056	responseLargeT	correct	n/a	0.4375	no	n/a	n/a
247.3710938	n/a	63327	largeHSmallH	correct	congruent	0.48438	no	H	H
247.8554688	n/a	63451	responseLargeH	correct	n/a	0.48438	no	n/a	n/a
248.9179688	n/a	63723	largeHSmallH	correct	congruent	0.48047	no	H	H
249.3984375	n/a	63846	responseLargeH	correct	n/a	0.48047	no	n/a	n/a
250.4648438	n/a	64119	largeTSmallT	correct	congruent	0.45312	no	T	T
250.9179688	n/a	64235	responseLargeT	correct	n/a	0.45312	no	n/a	n/a
251.9960938	n/a	64511	largeHSmallT	correct	incongruent	0.43359	no	H	T
252.4296875	n/a	64622	responseLargeH	correct	n/a	0.43359	no	n/a	n/a
253.5039062	n/a	64897	largeHSmallT	correct	incongruent	0.42578	no	H	T
253.9296875	n/a	65006	responseLargeH	correct	n/a	0.42578	no	n/a	n/a
254.9960938	n/a	65279	largeTSmallH	correct	incongruent	0.42969	no	T	H
255.4257812	n/a	65389	responseLargeT	correct	n/a	0.42969	no	n/a	n/a
256.5039062	n/a	65665	largeTSmallT	correct	congruent	0.41797	no	T	T
256.921875	n/a	65772	responseLargeT	correct	n/a	0.41797	no	n/a	n/a
257.984375	n/a	66044	largeTSmallH	correct	incongruent	0.53906	no	T	H
258.5234375	n/a	66182	responseLargeT	correct	n/a	0.53906	no	n/a	n/a
259.5976562	n/a	66457	largeTSmallT	correct	congruent	0.44922	no	T	T
260.046875	n/a	66572	responseLargeT	correct	n/a	0.44922	no	n/a	n/a
261.1171875	n/a	66846	largeTSmallT	correct	congruent	0.48828	no	T	T
261.6054688	n/a	66971	responseLargeT	correct	n/a	0.48828	no	n/a	n/a
262.6757812	n/a	67245	largeHSmallH	correct	congruent	0.53125	no	H	H
263.2070312	n/a	67381	responseLargeH	correct	n/a	0.53125	no	n/a	n/a
264.2773438	n/a	67655	largeTSmallT	correct	congruent	0.47656	no	T	T
264.7539062	n/a	67777	responseLargeT	correct	n/a	0.47656	no	n/a	n/a
265.8359375	n/a	68054	largeTSmallH	correct	incongruent	0.49609	no	T	H
266.3320312	n/a	68181	responseLargeT	correct	n/a	0.49609	no	n/a	n/a
267.4101562	n/a	68457	largeHSmallT	correct	incongruent	0.77734	no	H	T
268.1875	n/a	68656	responseLargeH	correct	n/a	0.77734	no	n/a	n/a
269.2617188	n/a	68931	largeHSmallT	correct	incongruent	0.43359	no	H	T
269.6953125	n/a	69042	responseLargeH	correct	n/a	0.43359	no	n/a	n/a
270.7578125	n/a	69314	largeHSmallT	correct	incongruent	0.375	no	H	T
271.1328125	n/a	69410	responseLargeH	correct	n/a	0.375	no	n/a	n/a
272.2109375	n/a	69686	largeHSmallH	correct	congruent	0.44531	no	H	H
272.65625	n/a	69800	responseLargeH	correct	n/a	0.44531	no	n/a	n/a
273.7304688	n/a	70075	largeTSmallH	error	incongruent	0.39453	no	T	H
274.125	n/a	70176	responseLargeH	error	n/a	0.39453	no	n/a	n/a
275.1953125	n/a	70450	largeHSmallH	correct	congruent	0.45312	no	H	H
275.6484375	n/a	70566	responseLargeH	correct	n/a	0.45312	no	n/a	n/a
276.7148438	n/a	70839	largeTSmallH	correct	incongruent	0.41797	no	T	H
277.1328125	n/a	70946	responseLargeT	correct	n/a	0.41797	no	n/a	n/a
278.1953125	n/a	71218	largeHSmallT	correct	incongruent	0.38672	no	H	T
278.5820312	n/a	71317	responseLargeH	correct	n/a	0.38672	no	n/a	n/a
279.6484375	n/a	71590	largeHSmallH	correct	congruent	0.41797	no	H	H
280.0664062	n/a	71697	responseLargeH	correct	n/a	0.41797	no	n/a	n/a
281.1289062	n/a	71969	largeTSmallH	correct	incongruent	0.48047	no	T	H
281.609375	n/a	72092	responseLargeT	correct	n/a	0.48047	no	n/a	n/a
282.6757812	n/a	72365	largeTSmallT	correct	congruent	0.47656	no	T	T
283.1523438	n/a	72487	responseLargeT	correct	n/a	0.47656	no	n/a	n/a
284.2226562	n/a	72761	largeHSmallT	correct	incongruent	0.82422	no	H	T
285.046875	n/a	72972	responseLargeH	correct	n/a	0.82422	no	n/a	n/a
286.1171875	n/a	73246	largeTSmallH	correct	incongruent	0.5	no	T	H
286.6171875	n/a	73374	responseLargeT	correct	n/a	0.5	no	n/a	n/a
287.6875	n/a	73648	largeTSmallH	correct	incongruent	0.4375	no	T	H
288.125	n/a	73760	responseLargeT	correct	n/a	0.4375	no	n/a	n/a
289.1953125	n/a	74034	largeHSmallH	correct	congruent	0.41797	no	H	H
289.6132812	n/a	74141	responseLargeH	correct	n/a	0.41797	no	n/a	n/a
290.6757812	n/a	74413	largeTSmallT	correct	congruent	0.46484	no	T	T
291.140625	n/a	74532	responseLargeT	correct	n/a	0.46484	no	n/a	n/a
292.2109375	n/a	74806	largeHSmallT	correct	incongruent	0.51562	no	H	T
292.7265625	n/a	74938	responseLargeH	correct	n/a	0.51562	no	n/a	n/a
293.796875	n/a	75212	largeHSmallT	correct	incongruent	0.52344	no	H	T
294.3203125	n/a	75346	responseLargeH	correct	n/a	0.52344	no	n/a	n/a
295.3945312	n/a	75621	largeTSmallT	correct	congruent	0.49219	no	T	T
295.8867188	n/a	75747	responseLargeT	correct	n/a	0.49219	no	n/a	n/a
296.9570312	n/a	76021	largeHSmallT	correct	incongruent	0.46094	no	H	T
297.4179688	n/a	76139	responseLargeH	correct	n/a	0.46094	no	n/a	n/a
298.5039062	n/a	76417	largeTSmallH	correct	incongruent	0.45703	no	T	H
298.9609375	n/a	76534	responseLargeT	correct	n/a	0.45703	no	n/a	n/a
300.0234375	n/a	76806	largeHSmallH	correct	congruent	0.46094	no	H	H
300.484375	n/a	76924	responseLargeH	correct	n/a	0.46094	no	n/a	n/a
301.5546875	n/a	77198	largeHSmallH	correct	congruent	0.42969	no	H	H
301.984375	n/a	77308	responseLargeH	correct	n/a	0.42969	no	n/a	n/a
303.046875	n/a	77580	largeHSmallT	correct	incongruent	0.5	no	H	T
303.546875	n/a	77708	responseLargeH	correct	n/a	0.5	no	n/a	n/a
304.609375	n/a	77980	largeTSmallT	correct	congruent	0.42578	no	T	T
305.0351562	n/a	78089	responseLargeT	correct	n/a	0.42578	no	n/a	n/a
306.1171875	n/a	78366	largeHSmallT	correct	incongruent	0.47266	no	H	T
306.5898438	n/a	78487	responseLargeH	correct	n/a	0.47266	no	n/a	n/a
307.6484375	n/a	78758	largeTSmallT	correct	congruent	0.46484	no	T	T
308.1132812	n/a	78877	responseLargeT	correct	n/a	0.46484	no	n/a	n/a
309.1835938	n/a	79151	largeTSmallH	correct	incongruent	0.55469	no	T	H
309.7382812	n/a	79293	responseLargeT	correct	n/a	0.55469	no	n/a	n/a
310.8085938	n/a	79567	largeHSmallT	correct	incongruent	0.46875	no	H	T
311.2773438	n/a	79687	responseLargeH	correct	n/a	0.46875	no	n/a	n/a
312.3554688	n/a	79963	largeTSmallH	correct	incongruent	0.52734	no	T	H
312.8828125	n/a	80098	responseLargeT	correct	n/a	0.52734	no	n/a	n/a
313.9570312	n/a	80373	largeTSmallH	correct	incongruent	0.55469	no	T	H
314.5117188	n/a	80515	responseLargeT	correct	n/a	0.55469	no	n/a	n/a
315.5820312	n/a	80789	largeHSmallT	correct	incongruent	0.50781	no	H	T
316.0898438	n/a	80919	responseLargeH	correct	n/a	0.50781	no	n/a	n/a
317.1679688	n/a	81195	largeHSmallT	correct	incongruent	0.38672	no	H	T
317.5546875	n/a	81294	responseLargeH	correct	n/a	0.38672	no	n/a	n/a
318.6210938	n/a	81567	largeTSmallH	correct	incongruent	0.50391	no	T	H
319.125	n/a	81696	responseLargeT	correct	n/a	0.50391	no	n/a	n/a
320.1953125	n/a	81970	largeHSmallT	correct	incongruent	0.44531	no	H	T
320.640625	n/a	82084	responseLargeH	correct	n/a	0.44531	no	n/a	n/a
321.7148438	n/a	82359	largeTSmallT	correct	congruent	0.44531	no	T	T
322.1601562	n/a	82473	responseLargeT	correct	n/a	0.44531	no	n/a	n/a
323.234375	n/a	82748	largeHSmallH	correct	congruent	0.46484	no	H	H
323.6992188	n/a	82867	responseLargeH	correct	n/a	0.46484	no	n/a	n/a
324.7695312	n/a	83141	largeTSmallT	correct	congruent	0.45312	no	T	T
325.2226562	n/a	83257	responseLargeT	correct	n/a	0.45312	no	n/a	n/a
326.3007812	n/a	83533	largeHSmallH	correct	congruent	0.44141	no	H	H
326.7421875	n/a	83646	responseLargeH	correct	n/a	0.44141	no	n/a	n/a
327.8085938	n/a	83919	largeHSmallT	correct	incongruent	0.43359	no	H	T
328.2421875	n/a	84030	responseLargeH	correct	n/a	0.43359	no	n/a	n/a
329.3007812	n/a	84301	largeTSmallH	correct	incongruent	0.48438	no	T	H
329.7851562	n/a	84425	responseLargeT	correct	n/a	0.48438	no	n/a	n/a
330.8476562	n/a	84697	largeHSmallH	correct	congruent	0.43359	no	H	H
331.28125	n/a	84808	responseLargeH	correct	n/a	0.43359	no	n/a	n/a
332.3554688	n/a	85083	largeHSmallT	correct	incongruent	0.45312	no	H	T
332.8085938	n/a	85199	responseLargeH	correct	n/a	0.45312	no	n/a	n/a
337.0078125	n/a	86274	largeTSmallH	correct	incongruent	0.91406	no	T	H
337.921875	n/a	86508	responseSmallH	correct	n/a	0.91406	no	n/a	n/a
338.9960938	n/a	86783	largeHSmallH	correct	congruent	0.46875	no	H	H
339.4648438	n/a	86903	responseSmallH	correct	n/a	0.46875	no	n/a	n/a
340.5429688	n/a	87179	largeTSmallH	correct	incongruent	0.43359	no	T	H
340.9765625	n/a	87290	responseSmallH	correct	n/a	0.43359	no	n/a	n/a
342.046875	n/a	87564	largeHSmallH	correct	congruent	0.41016	no	H	H
342.4570312	n/a	87669	responseSmallH	correct	n/a	0.41016	no	n/a	n/a
343.5390625	n/a	87946	largeTSmallT	correct	congruent	0.4375	no	T	T
343.9765625	n/a	88058	responseSmallT	correct	n/a	0.4375	no	n/a	n/a
345.046875	n/a	88332	largeHSmallT	correct	incongruent	0.42969	no	H	T
345.4765625	n/a	88442	responseSmallT	correct	n/a	0.42969	no	n/a	n/a
346.5390625	n/a	88714	largeTSmallH	correct	incongruent	0.42578	no	T	H
346.9648438	n/a	88823	responseSmallH	correct	n/a	0.42578	no	n/a	n/a
348.046875	n/a	89100	largeTSmallH	correct	incongruent	0.38281	no	T	H
348.4296875	n/a	89198	responseSmallH	correct	n/a	0.38281	no	n/a	n/a
349.4882812	n/a	89469	largeHSmallH	correct	congruent	0.41797	no	H	H
349.90625	n/a	89576	responseSmallH	correct	n/a	0.41797	no	n/a	n/a
350.9804688	n/a	89851	largeHSmallT	correct	incongruent	0.42969	no	H	T
351.4101562	n/a	89961	responseSmallT	correct	n/a	0.42969	no	n/a	n/a
352.4882812	n/a	90237	largeTSmallH	correct	incongruent	0.44141	no	T	H
352.9296875	n/a	90350	responseSmallH	correct	n/a	0.44141	no	n/a	n/a
354.0078125	n/a	90626	largeHSmallT	error	incongruent	0.42969	no	H	T
354.4375	n/a	90736	responseSmallH	error	n/a	0.42969	no	n/a	n/a
355.5	n/a	91008	largeHSmallH	correct	congruent	0.51172	no	H	H
356.0117188	n/a	91139	responseSmallH	correct	n/a	0.51172	no	n/a	n/a
357.0859375	n/a	91414	largeHSmallT	correct	incongruent	0.44531	no	H	T
357.53125	n/a	91528	responseSmallT	correct	n/a	0.44531	no	n/a	n/a
358.6054688	n/a	91803	largeTSmallT	correct	congruent	0.44141	no	T	T
359.046875	n/a	91916	responseSmallT	correct	n/a	0.44141	no	n/a	n/a
360.1132812	n/a	92189	largeTSmallH	correct	incongruent	0.44141	no	T	H
360.5546875	n/a	92302	responseSmallH	correct	n/a	0.44141	no	n/a	n/a
361.6328125	n/a	92578	largeHSmallT	correct	incongruent	0.48438	no	H	T
362.1171875	n/a	92702	responseSmallT	correct	n/a	0.48438	no	n/a	n/a
363.1953125	n/a	92978	largeTSmallT	correct	congruent	0.44922	no	T	T
363.6445312	n/a	93093	responseSmallT	correct	n/a	0.44922	no	n/a	n/a
364.7148438	n/a	93367	largeHSmallT	correct	incongruent	0.45703	no	H	T
365.171875	n/a	93484	responseSmallT	correct	n/a	0.45703	no	n/a	n/a
366.2460938	n/a	93759	largeHSmallH	correct	congruent	0.53516	no	H	H
366.78125	n/a	93896	responseSmallH	correct	n/a	0.53516	no	n/a	n/a
367.859375	n/a	94172	largeTSmallH	correct	incongruent	0.52734	no	T	H
368.3867188	n/a	94307	responseSmallH	correct	n/a	0.52734	no	n/a	n/a
369.4609375	n/a	94582	largeHSmallT	correct	incongruent	0.625	no	H	T
370.0859375	n/a	94742	responseSmallT	correct	n/a	0.625	no	n/a	n/a
371.1679688	n/a	95019	largeTSmallT	correct	congruent	0.50781	no	T	T
371.6757812	n/a	95149	responseSmallT	correct	n/a	0.50781	no	n/a	n/a
372.7539062	n/a	95425	largeTSmallT	correct	congruent	0.41016	no	T	T
373.1640625	n/a	95530	responseSmallT	correct	n/a	0.41016	no	n/a	n/a
374.234375	n/a	95804	largeHSmallH	correct	congruent	0.52344	no	H	H
374.7578125	n/a	95938	responseSmallH	correct	n/a	0.52344	no	n/a	n/a
375.8320312	n/a	96213	largeHSmallT	correct	incongruent	0.45312	no	H	T
376.2851562	n/a	96329	responseSmallT	correct	n/a	0.45312	no	n/a	n/a
377.3515625	n/a	96602	largeHSmallH	correct	congruent	0.48828	no	H	H
377.8398438	n/a	96727	responseSmallH	correct	n/a	0.48828	no	n/a	n/a
378.9140625	n/a	97002	largeHSmallH	correct	congruent	0.44922	no	H	H
379.3632812	n/a	97117	responseSmallH	correct	n/a	0.44922	no	n/a	n/a
380.4335938	n/a	97391	largeHSmallH	correct	congruent	0.38672	no	H	H
380.8203125	n/a	97490	responseSmallH	correct	n/a	0.38672	no	n/a	n/a
381.8984375	n/a	97766	largeHSmallT	correct	incongruent	0.45703	no	H	T
382.3554688	n/a	97883	responseSmallT	correct	n/a	0.45703	no	n/a	n/a
383.421875	n/a	98156	largeTSmallT	correct	congruent	0.39453	no	T	T
383.8164062	n/a	98257	responseSmallT	correct	n/a	0.39453	no	n/a	n/a
384.8867188	n/a	98531	largeHSmallH	correct	congruent	0.51953	no	H	H
385.40625	n/a	98664	responseSmallH	correct	n/a	0.51953	no	n/a	n/a
386.4726562	n/a	98937	largeTSmallH	correct	incongruent	0.47266	no	T	H
386.9453125	n/a	99058	responseSmallH	correct	n/a	0.47266	no	n/a	n/a
388.0078125	n/a	99330	largeTSmallH	correct	incongruent	0.49219	no	T	H
388.5	n/a	99456	responseSmallH	correct	n/a	0.49219	no	n/a	n/a
389.5664062	n/a	99729	largeTSmallT	correct	congruent	0.52734	no	T	T
390.09375	n/a	99864	responseSmallT	correct	n/a	0.52734	no	n/a	n/a
391.1679688	n/a	100139	largeHSmallT	error	incongruent	0.44922	no	H	T
391.6171875	n/a	100254	responseSmallH	error	n/a	0.44922	no	n/a	n/a
392.6875	n/a	100528	largeTSmallT	correct	congruent	0.42969	no	T	T
393.1171875	n/a	100638	responseSmallT	correct	n/a	0.42969	no	n/a	n/a
394.1914062	n/a	100913	largeHSmallH	correct	congruent	0.49219	no	H	H
394.6835938	n/a	101039	responseSmallH	correct	n/a	0.49219	no	n/a	n/a
395.7539062	n/a	101313	largeTSmallT	correct	congruent	0.46875	no	T	T
396.2226562	n/a	101433	responseSmallT	correct	n/a	0.46875	no	n/a	n/a
397.2851562	n/a	101705	largeHSmallH	correct	congruent	0.46484	no	H	H
397.75	n/a	101824	responseSmallH	correct	n/a	0.46484	no	n/a	n/a
398.8203125	n/a	102098	largeHSmallH	correct	congruent	0.4375	no	H	H
399.2578125	n/a	102210	responseSmallH	correct	n/a	0.4375	no	n/a	n/a
400.3398438	n/a	102487	largeTSmallH	correct	incongruent	0.56641	no	T	H
400.90625	n/a	102632	responseSmallH	correct	n/a	0.56641	no	n/a	n/a
401.9648438	n/a	102903	largeTSmallH	correct	incongruent	0.57031	no	T	H
402.5351562	n/a	103049	responseSmallH	correct	n/a	0.57031	no	n/a	n/a
403.6054688	n/a	103323	largeTSmallT	correct	congruent	0.53516	no	T	T
404.140625	n/a	103460	responseSmallT	correct	n/a	0.53516	no	n/a	n/a
405.21875	n/a	103736	largeHSmallH	correct	congruent	0.51172	no	H	H
405.7304688	n/a	103867	responseSmallH	correct	n/a	0.51172	no	n/a	n/a
406.7929688	n/a	104139	largeTSmallT	correct	congruent	0.45312	no	T	T
407.2460938	n/a	104255	responseSmallT	correct	n/a	0.45312	no	n/a	n/a
408.3242188	n/a	104531	largeHSmallH	correct	congruent	0.47656	no	H	H
408.8007812	n/a	104653	responseSmallH	correct	n/a	0.47656	no	n/a	n/a
409.859375	n/a	104924	largeHSmallT	correct	incongruent	0.40625	no	H	T
410.265625	n/a	105028	responseSmallT	correct	n/a	0.40625	no	n/a	n/a
411.3242188	n/a	105299	largeTSmallT	correct	congruent	0.48047	no	T	T
411.8046875	n/a	105422	responseSmallT	correct	n/a	0.48047	no	n/a	n/a
412.8710938	n/a	105695	largeTSmallT	correct	congruent	0.40625	no	T	T
413.2773438	n/a	105799	responseSmallT	correct	n/a	0.40625	no	n/a	n/a
414.3398438	n/a	106071	largeTSmallH	correct	incongruent	0.47266	no	T	H
414.8125	n/a	106192	responseSmallH	correct	n/a	0.47266	no	n/a	n/a
415.8867188	n/a	106467	largeTSmallT	correct	congruent	0.37109	no	T	T
416.2578125	n/a	106562	responseSmallT	correct	n/a	0.37109	no	n/a	n/a
417.3242188	n/a	106835	largeHSmallT	correct	incongruent	0.51562	no	H	T
417.8398438	n/a	106967	responseSmallT	correct	n/a	0.51562	no	n/a	n/a
418.9140625	n/a	107242	largeTSmallH	error	incongruent	0.40625	no	T	H
419.3203125	n/a	107346	responseSmallT	error	n/a	0.40625	no	n/a	n/a
420.390625	n/a	107620	largeHSmallT	correct	incongruent	0.94922	no	H	T
421.3398438	n/a	107863	responseSmallT	correct	n/a	0.94922	no	n/a	n/a
422.40625	n/a	108136	largeTSmallT	correct	congruent	0.53125	no	T	T
422.9375	n/a	108272	responseSmallT	correct	n/a	0.53125	no	n/a	n/a
424.0195312	n/a	108549	largeTSmallT	correct	congruent	0.42578	no	T	T
424.4453125	n/a	108658	responseSmallT	correct	n/a	0.42578	no	n/a	n/a
425.5117188	n/a	108931	largeHSmallT	correct	incongruent	0.47266	no	H	T
425.984375	n/a	109052	responseSmallT	correct	n/a	0.47266	no	n/a	n/a
427.0585938	n/a	109327	largeTSmallH	correct	incongruent	0.51953	no	T	H
427.578125	n/a	109460	responseSmallH	correct	n/a	0.51953	no	n/a	n/a
428.6445312	n/a	109733	largeHSmallH	correct	congruent	0.49609	no	H	H
429.140625	n/a	109860	responseSmallH	correct	n/a	0.49609	no	n/a	n/a
430.2070312	n/a	110133	largeHSmallH	correct	congruent	0.5	no	H	H
430.7070312	n/a	110261	responseSmallH	correct	n/a	0.5	no	n/a	n/a
431.7773438	n/a	110535	largeTSmallT	correct	congruent	0.53906	no	T	T
432.3164062	n/a	110673	responseSmallT	correct	n/a	0.53906	no	n/a	n/a
433.390625	n/a	110948	largeTSmallT	correct	congruent	0.55469	no	T	T
433.9453125	n/a	111090	responseSmallT	correct	n/a	0.55469	no	n/a	n/a
435.0195312	n/a	111365	largeTSmallT	correct	congruent	0.49609	no	T	T
435.515625	n/a	111492	responseSmallT	correct	n/a	0.49609	no	n/a	n/a
436.5898438	n/a	111767	largeTSmallT	correct	congruent	0.42578	no	T	T
437.015625	n/a	111876	responseSmallT	correct	n/a	0.42578	no	n/a	n/a
438.0859375	n/a	112150	largeHSmallH	correct	congruent	0.45703	no	H	H
438.5429688	n/a	112267	responseSmallH	correct	n/a	0.45703	no	n/a	n/a
439.6171875	n/a	112542	largeTSmallH	correct	incongruent	0.46094	no	T	H
440.078125	n/a	112660	responseSmallH	correct	n/a	0.46094	no	n/a	n/a
441.1367188	n/a	112931	largeHSmallH	correct	congruent	0.46875	no	H	H
441.6054688	n/a	113051	responseSmallH	correct	n/a	0.46875	no	n/a	n/a
442.671875	n/a	113324	largeTSmallT	correct	congruent	0.47656	no	T	T
443.1484375	n/a	113446	responseSmallT	correct	n/a	0.47656	no	n/a	n/a
444.21875	n/a	113720	largeHSmallH	correct	congruent	0.51953	no	H	H
444.7382812	n/a	113853	responseSmallH	correct	n/a	0.51953	no	n/a	n/a
445.8046875	n/a	114126	largeTSmallT	correct	congruent	0.47266	no	T	T
446.2773438	n/a	114247	responseSmallT	correct	n/a	0.47266	no	n/a	n/a
447.3515625	n/a	114522	largeHSmallT	correct	incongruent	0.44531	no	H	T
447.796875	n/a	114636	responseSmallT	correct	n/a	0.44531	no	n/a	n/a
448.859375	n/a	114908	largeHSmallH	correct	congruent	0.48438	no	H	H
449.34375	n/a	115032	responseSmallH	correct	n/a	0.48438	no	n/a	n/a
450.40625	n/a	115304	largeTSmallT	correct	congruent	0.57422	no	T	T
450.9804688	n/a	115451	responseSmallT	correct	n/a	0.57422	no	n/a	n/a
452.0429688	n/a	115723	largeHSmallH	correct	congruent	0.48828	no	H	H
452.53125	n/a	115848	responseSmallH	correct	n/a	0.48828	no	n/a	n/a
453.6054688	n/a	116123	largeHSmallH	correct	congruent	0.46875	no	H	H
454.0742188	n/a	116243	responseSmallH	correct	n/a	0.46875	no	n/a	n/a
455.1523438	n/a	116519	largeHSmallT	correct	incongruent	0.4375	no	H	T
455.5898438	n/a	116631	responseSmallT	correct	n/a	0.4375	no	n/a	n/a
456.671875	n/a	116908	largeHSmallH	correct	congruent	0.44531	no	H	H
457.1171875	n/a	117022	responseSmallH	correct	n/a	0.44531	no	n/a	n/a
458.1914062	n/a	117297	largeHSmallT	correct	incongruent	0.46484	no	H	T
458.65625	n/a	117416	responseSmallT	correct	n/a	0.46484	no	n/a	n/a
459.7226562	n/a	117689	largeTSmallH	correct	incongruent	0.51562	no	T	H
460.2382812	n/a	117821	responseSmallH	correct	n/a	0.51562	no	n/a	n/a
461.3125	n/a	118096	largeHSmallT	correct	incongruent	0.44141	no	H	T
461.7539062	n/a	118209	responseSmallT	correct	n/a	0.44141	no	n/a	n/a
462.8320312	n/a	118485	largeHSmallT	correct	incongruent	0.48047	no	H	T
463.3125	n/a	118608	responseSmallT	correct	n/a	0.48047	no	n/a	n/a
464.390625	n/a	118884	largeTSmallH	correct	incongruent	0.4375	no	T	H
464.828125	n/a	118996	responseSmallH	correct	n/a	0.4375	no	n/a	n/a
465.8984375	n/a	119270	largeHSmallH	correct	congruent	0.51953	no	H	H
466.4179688	n/a	119403	responseSmallH	correct	n/a	0.51953	no	n/a	n/a
467.4960938	n/a	119679	largeHSmallH	correct	congruent	0.49219	no	H	H
467.9882812	n/a	119805	responseSmallH	correct	n/a	0.49219	no	n/a	n/a
469.0585938	n/a	120079	largeTSmallH	correct	incongruent	0.46484	no	T	H
469.5234375	n/a	120198	responseSmallH	correct	n/a	0.46484	no	n/a	n/a
470.5898438	n/a	120471	largeTSmallT	correct	congruent	0.47656	no	T	T
471.0664062	n/a	120593	responseSmallT	correct	n/a	0.47656	no	n/a	n/a
472.1367188	n/a	120867	largeTSmallH	correct	incongruent	0.44922	no	T	H
472.5859375	n/a	120982	responseSmallH	correct	n/a	0.44922	no	n/a	n/a
473.65625	n/a	121256	largeHSmallT	correct	incongruent	0.4375	no	H	T
474.09375	n/a	121368	responseSmallT	correct	n/a	0.4375	no	n/a	n/a
475.1640625	n/a	121642	largeTSmallT	correct	congruent	0.47266	no	T	T
475.6367188	n/a	121763	responseSmallT	correct	n/a	0.47266	no	n/a	n/a
476.7109375	n/a	122038	largeTSmallH	correct	incongruent	0.48828	no	T	H
477.1992188	n/a	122163	responseSmallH	correct	n/a	0.48828	no	n/a	n/a
478.2695312	n/a	122437	largeTSmallT	correct	congruent	0.48828	no	T	T
478.7578125	n/a	122562	responseSmallT	correct	n/a	0.48828	no	n/a	n/a
479.8320312	n/a	122837	largeTSmallH	correct	incongruent	0.52344	no	T	H
480.3554688	n/a	122971	responseSmallH	correct	n/a	0.52344	no	n/a	n/a
481.4179688	n/a	123243	largeHSmallH	correct	congruent	0.55078	no	H	H
481.96875	n/a	123384	responseSmallH	correct	n/a	0.55078	no	n/a	n/a
483.0429688	n/a	123659	largeHSmallT	correct	incongruent	0.5	no	H	T
483.5429688	n/a	123787	responseSmallT	correct	n/a	0.5	no	n/a	n/a
484.6171875	n/a	124062	largeTSmallT	correct	congruent	0.49609	no	T	T
485.1132812	n/a	124189	responseSmallT	correct	n/a	0.49609	no	n/a	n/a
486.1757812	n/a	124461	largeHSmallH	correct	congruent	0.5	no	H	H
486.6757812	n/a	124589	responseSmallH	correct	n/a	0.5	no	n/a	n/a
487.7382812	n/a	124861	largeHSmallT	correct	incongruent	0.47656	no	H	T
488.2148438	n/a	124983	responseSmallT	correct	n/a	0.47656	no	n/a	n/a
489.2851562	n/a	125257	largeTSmallH	correct	incongruent	0.47266	no	T	H
489.7578125	n/a	125378	responseSmallH	correct	n/a	0.47266	no	n/a	n/a
490.8320312	n/a	125653	largeHSmallH	correct	congruent	0.44922	no	H	H
491.28125	n/a	125768	responseSmallH	correct	n/a	0.44922	no	n/a	n/a
492.3632812	n/a	126045	largeTSmallH	correct	incongruent	0.54297	no	T	H
492.90625	n/a	126184	responseSmallH	correct	n/a	0.54297	no	n/a	n/a
493.9765625	n/a	126458	largeTSmallT	correct	congruent	0.50391	no	T	T
494.4804688	n/a	126587	responseSmallT	correct	n/a	0.50391	no	n/a	n/a
495.5507812	n/a	126861	largeTSmallT	correct	congruent	0.4375	no	T	T
495.9882812	n/a	126973	responseSmallT	correct	n/a	0.4375	no	n/a	n/a
497.0585938	n/a	127247	largeHSmallH	correct	congruent	0.49219	no	H	H
497.5507812	n/a	127373	responseSmallH	correct	n/a	0.49219	no	n/a	n/a
498.6289062	n/a	127649	largeHSmallT	correct	incongruent	0.45703	no	H	T
499.0859375	n/a	127766	responseSmallT	correct	n/a	0.45703	no	n/a	n/a
500.1640625	n/a	128042	largeTSmallT	correct	congruent	0.42188	no	T	T
500.5859375	n/a	128150	responseSmallT	correct	n/a	0.42188	no	n/a	n/a
501.65625	n/a	128424	largeHSmallT	correct	incongruent	0.45703	no	H	T
502.1132812	n/a	128541	responseSmallT	correct	n/a	0.45703	no	n/a	n/a
503.1914062	n/a	128817	largeTSmallT	correct	congruent	0.47266	no	T	T
503.6640625	n/a	128938	responseSmallT	correct	n/a	0.47266	no	n/a	n/a
504.7226562	n/a	129209	largeTSmallT	correct	congruent	0.42578	no	T	T
505.1484375	n/a	129318	responseSmallT	correct	n/a	0.42578	no	n/a	n/a
506.2304688	n/a	129595	largeTSmallH	correct	incongruent	0.44141	no	T	H
506.671875	n/a	129708	responseSmallH	correct	n/a	0.44141	no	n/a	n/a
507.7382812	n/a	129981	largeHSmallT	correct	incongruent	0.5	no	H	T
508.2382812	n/a	130109	responseSmallT	correct	n/a	0.5	no	n/a	n/a
509.3085938	n/a	130383	largeTSmallT	correct	congruent	0.39844	no	T	T
509.7070312	n/a	130485	responseSmallT	correct	n/a	0.39844	no	n/a	n/a
510.7773438	n/a	130759	largeHSmallT	correct	incongruent	0.52734	no	H	T
511.3046875	n/a	130894	responseSmallT	correct	n/a	0.52734	no	n/a	n/a
512.375	n/a	131168	largeTSmallH	correct	incongruent	0.53125	no	T	H
512.90625	n/a	131304	responseSmallH	correct	n/a	0.53125	no	n/a	n/a
513.9765625	n/a	131578	largeTSmallH	correct	incongruent	0.43359	no	T	H
514.4101562	n/a	131689	responseSmallH	correct	n/a	0.43359	no	n/a	n/a
515.484375	n/a	131964	largeTSmallT	correct	congruent	0.52344	no	T	T
516.0078125	n/a	132098	responseSmallT	correct	n/a	0.52344	no	n/a	n/a
517.0820312	n/a	132373	largeTSmallT	correct	congruent	0.53516	no	T	T
517.6171875	n/a	132510	responseSmallT	correct	n/a	0.53516	no	n/a	n/a
518.6953125	n/a	132786	largeHSmallT	correct	incongruent	0.48438	no	H	T
519.1796875	n/a	132910	responseSmallT	correct	n/a	0.48438	no	n/a	n/a
520.2578125	n/a	133186	largeTSmallT	correct	congruent	0.42188	no	T	T
520.6796875	n/a	133294	responseSmallT	correct	n/a	0.42188	no	n/a	n/a
521.75	n/a	133568	largeHSmallH	correct	congruent	0.48438	no	H	H
522.234375	n/a	133692	responseSmallH	correct	n/a	0.48438	no	n/a	n/a
523.3085938	n/a	133967	largeHSmallH	correct	congruent	0.45703	no	H	H
523.765625	n/a	134084	responseSmallH	correct	n/a	0.45703	no	n/a	n/a
524.84375	n/a	134360	largeHSmallT	correct	incongruent	0.57031	no	H	T
525.4140625	n/a	134506	responseSmallT	correct	n/a	0.57031	no	n/a	n/a
526.46875	n/a	134776	largeHSmallH	correct	congruent	0.52734	no	H	H
526.9960938	n/a	134911	responseSmallH	correct	n/a	0.52734	no	n/a	n/a
528.0703125	n/a	135186	largeTSmallT	correct	congruent	0.49609	no	T	T
528.5664062	n/a	135313	responseSmallT	correct	n/a	0.49609	no	n/a	n/a
529.6445312	n/a	135589	largeTSmallT	correct	congruent	0.42188	no	T	T
530.0664062	n/a	135697	responseSmallT	correct	n/a	0.42188	no	n/a	n/a
531.1367188	n/a	135971	largeTSmallT	correct	congruent	0.41406	no	T	T
531.5507812	n/a	136077	responseSmallT	correct	n/a	0.41406	no	n/a	n/a
532.6171875	n/a	136350	largeHSmallH	correct	congruent	0.53125	no	H	H
533.1484375	n/a	136486	responseSmallH	correct	n/a	0.53125	no	n/a	n/a
534.2148438	n/a	136759	largeTSmallH	correct	incongruent	0.42578	no	T	H
534.640625	n/a	136868	responseSmallH	correct	n/a	0.42578	no	n/a	n/a
535.7109375	n/a	137142	largeTSmallT	correct	congruent	0.53906	no	T	T
536.25	n/a	137280	responseSmallT	correct	n/a	0.53906	no	n/a	n/a
537.3242188	n/a	137555	largeTSmallH	correct	incongruent	0.42969	no	T	H
537.7539062	n/a	137665	responseSmallH	correct	n/a	0.42969	no	n/a	n/a
538.828125	n/a	137940	largeTSmallH	correct	incongruent	0.60156	no	T	H
539.4296875	n/a	138094	responseSmallH	correct	n/a	0.60156	no	n/a	n/a
540.4960938	n/a	138367	largeHSmallH	correct	congruent	0.61328	no	H	H
541.109375	n/a	138524	responseSmallH	correct	n/a	0.61328	no	n/a	n/a
542.1875	n/a	138800	largeTSmallT	correct	congruent	0.46875	no	T	T
542.65625	n/a	138920	responseSmallT	correct	n/a	0.46875	no	n/a	n/a
543.734375	n/a	139196	largeHSmallT	correct	incongruent	0.51562	no	H	T
544.25	n/a	139328	responseSmallT	correct	n/a	0.51562	no	n/a	n/a
545.3242188	n/a	139603	largeTSmallH	correct	incongruent	0.47656	no	T	H
545.8007812	n/a	139725	responseSmallH	correct	n/a	0.47656	no	n/a	n/a
546.8671875	n/a	139998	largeTSmallT	correct	congruent	0.60547	no	T	T
547.4726562	n/a	140153	responseSmallT	correct	n/a	0.60547	no	n/a	n/a
548.5507812	n/a	140429	largeHSmallH	correct	congruent	0.53906	no	H	H
549.0898438	n/a	140567	responseSmallH	correct	n/a	0.53906	no	n/a	n/a
550.1640625	n/a	140842	largeTSmallH	correct	incongruent	0.42188	no	T	H
550.5859375	n/a	140950	responseSmallH	correct	n/a	0.42188	no	n/a	n/a
551.65625	n/a	141224	largeHSmallT	correct	incongruent	0.47266	no	H	T
552.1289062	n/a	141345	responseSmallT	correct	n/a	0.47266	no	n/a	n/a
553.203125	n/a	141620	largeHSmallH	correct	congruent	0.53125	no	H	H
553.734375	n/a	141756	responseSmallH	correct	n/a	0.53125	no	n/a	n/a
554.8007812	n/a	142029	largeTSmallH	correct	incongruent	0.42578	no	T	H
555.2265625	n/a	142138	responseSmallH	correct	n/a	0.42578	no	n/a	n/a
556.3085938	n/a	142415	largeHSmallH	correct	congruent	0.45703	no	H	H
556.765625	n/a	142532	responseSmallH	correct	n/a	0.45703	no	n/a	n/a
557.828125	n/a	142804	largeHSmallT	correct	incongruent	0.42578	no	H	T
558.2539062	n/a	142913	responseSmallT	correct	n/a	0.42578	no	n/a	n/a
559.3359375	n/a	143190	largeHSmallH	correct	congruent	0.45703	no	H	H
559.7929688	n/a	143307	responseSmallH	correct	n/a	0.45703	no	n/a	n/a
560.8554688	n/a	143579	largeTSmallT	correct	congruent	0.39844	no	T	T
561.2539062	n/a	143681	responseSmallT	correct	n/a	0.39844	no	n/a	n/a
562.3203125	n/a	143954	largeHSmallT	correct	incongruent	0.41406	no	H	T
562.734375	n/a	144060	responseSmallT	correct	n/a	0.41406	no	n/a	n/a
563.8007812	n/a	144333	largeHSmallT	correct	incongruent	0.44531	no	H	T
564.2460938	n/a	144447	responseSmallT	correct	n/a	0.44531	no	n/a	n/a
565.3203125	n/a	144722	largeHSmallH	correct	congruent	0.5	no	H	H
565.8203125	n/a	144850	responseSmallH	correct	n/a	0.5	no	n/a	n/a
566.8945312	n/a	145125	largeHSmallT	correct	incongruent	0.53906	no	H	T
567.4335938	n/a	145263	responseSmallT	correct	n/a	0.53906	no	n/a	n/a
568.4960938	n/a	145535	largeTSmallT	correct	congruent	0.42969	no	T	T
568.9257812	n/a	145645	responseSmallT	correct	n/a	0.42969	no	n/a	n/a
570	n/a	145920	largeTSmallT	correct	congruent	0.53125	no	T	T
570.53125	n/a	146056	responseSmallT	correct	n/a	0.53125	no	n/a	n/a
571.6015625	n/a	146330	largeHSmallH	correct	congruent	0.42188	no	H	H
572.0234375	n/a	146438	responseSmallH	correct	n/a	0.42188	no	n/a	n/a
573.09375	n/a	146712	largeTSmallH	correct	incongruent	0.40234	no	T	H
573.4960938	n/a	146815	responseSmallH	correct	n/a	0.40234	no	n/a	n/a
574.5742188	n/a	147091	largeTSmallH	correct	incongruent	0.41016	no	T	H
574.984375	n/a	147196	responseSmallH	correct	n/a	0.41016	no	n/a	n/a
576.0546875	n/a	147470	largeHSmallH	correct	congruent	0.41797	no	H	H
576.4726562	n/a	147577	responseSmallH	correct	n/a	0.41797	no	n/a	n/a
577.546875	n/a	147852	largeTSmallT	correct	congruent	0.35938	no	T	T
577.90625	n/a	147944	responseSmallT	correct	n/a	0.35938	no	n/a	n/a
578.9882812	n/a	148221	largeHSmallT	correct	incongruent	0.46875	no	H	T
579.4570312	n/a	148341	responseSmallT	correct	n/a	0.46875	no	n/a	n/a
580.5351562	n/a	148617	largeTSmallH	correct	incongruent	0.42188	no	T	H
580.9570312	n/a	148725	responseSmallH	correct	n/a	0.42188	no	n/a	n/a
582.0273438	n/a	148999	largeHSmallT	correct	incongruent	0.41016	no	H	T
582.4375	n/a	149104	responseSmallT	correct	n/a	0.41016	no	n/a	n/a
583.5078125	n/a	149378	largeTSmallH	correct	incongruent	0.40234	no	T	H
583.9101562	n/a	149481	responseSmallH	correct	n/a	0.40234	no	n/a	n/a
584.9726562	n/a	149753	largeTSmallH	correct	incongruent	0.47656	no	T	H
585.4492188	n/a	149875	responseSmallH	correct	n/a	0.47656	no	n/a	n/a
586.5195312	n/a	150149	largeTSmallH	correct	incongruent	0.4375	no	T	H
586.9570312	n/a	150261	responseSmallH	correct	n/a	0.4375	no	n/a	n/a
588.0273438	n/a	150535	largeHSmallT	correct	incongruent	0.46484	no	H	T
588.4921875	n/a	150654	responseSmallT	correct	n/a	0.46484	no	n/a	n/a
589.5625	n/a	150928	largeTSmallH	correct	incongruent	0.39062	no	T	H
589.953125	n/a	151028	responseSmallH	correct	n/a	0.39062	no	n/a	n/a
591.0273438	n/a	151303	largeHSmallT	correct	incongruent	0.51953	no	H	T
591.546875	n/a	151436	responseSmallT	correct	n/a	0.51953	no	n/a	n/a
592.6289062	n/a	151713	largeHSmallT	correct	incongruent	0.42578	no	H	T
593.0546875	n/a	151822	responseSmallT	correct	n/a	0.42578	no	n/a	n/a
594.1210938	n/a	152095	largeTSmallH	correct	incongruent	0.54297	no	T	H
594.6640625	n/a	152234	responseSmallH	correct	n/a	0.54297	no	n/a	n/a
595.7460938	n/a	152511	largeTSmallT	correct	congruent	0.38672	no	T	T
596.1328125	n/a	152610	responseSmallT	correct	n/a	0.38672	no	n/a	n/a
597.1992188	n/a	152883	largeTSmallH	correct	incongruent	0.46875	no	T	H
597.6679688	n/a	153003	responseSmallH	correct	n/a	0.46875	no	n/a	n/a
598.734375	n/a	153276	largeHSmallT	correct	incongruent	0.39453	no	H	T
599.1289062	n/a	153377	responseSmallT	correct	n/a	0.39453	no	n/a	n/a
600.1992188	n/a	153651	largeHSmallH	correct	congruent	0.45312	no	H	H
600.6523438	n/a	153767	responseSmallH	correct	n/a	0.45312	no	n/a	n/a
601.7070312	n/a	154037	largeTSmallH	correct	incongruent	0.38281	no	T	H
602.0898438	n/a	154135	responseSmallH	correct	n/a	0.38281	no	n/a	n/a
603.1601562	n/a	154409	largeHSmallT	correct	incongruent	0.50781	no	H	T
603.6679688	n/a	154539	responseSmallT	correct	n/a	0.50781	no	n/a	n/a
604.7460938	n/a	154815	largeTSmallH	correct	incongruent	0.46875	no	T	H
605.2148438	n/a	154935	responseSmallH	correct	n/a	0.46875	no	n/a	n/a
606.28125	n/a	155208	largeHSmallT	correct	incongruent	0.49219	no	H	T
606.7734375	n/a	155334	responseSmallT	correct	n/a	0.49219	no	n/a	n/a
607.8398438	n/a	155607	largeTSmallH	correct	incongruent	0.43359	no	T	H
608.2734375	n/a	155718	responseSmallH	correct	n/a	0.43359	no	n/a	n/a
609.3476562	n/a	155993	largeHSmallT	correct	incongruent	0.48047	no	H	T
609.828125	n/a	156116	responseSmallT	correct	n/a	0.48047	no	n/a	n/a
610.90625	n/a	156392	largeHSmallH	correct	congruent	0.44141	no	H	H
611.3476562	n/a	156505	responseSmallH	correct	n/a	0.44141	no	n/a	n/a
612.4140625	n/a	156778	largeHSmallT	correct	incongruent	0.44531	no	H	T
612.859375	n/a	156892	responseSmallT	correct	n/a	0.44531	no	n/a	n/a
613.9335938	n/a	157167	largeHSmallT	correct	incongruent	0.51953	no	H	T
614.453125	n/a	157300	responseSmallT	correct	n/a	0.51953	no	n/a	n/a
615.5195312	n/a	157573	largeTSmallH	correct	incongruent	0.42188	no	T	H
615.9414062	n/a	157681	responseSmallH	correct	n/a	0.42188	no	n/a	n/a
617	n/a	157952	largeHSmallT	correct	incongruent	0.48047	no	H	T
617.4804688	n/a	158075	responseSmallT	correct	n/a	0.48047	no	n/a	n/a
618.546875	n/a	158348	largeTSmallH	correct	incongruent	0.44531	no	T	H
618.9921875	n/a	158462	responseSmallH	correct	n/a	0.44531	no	n/a	n/a
620.0664062	n/a	158737	largeTSmallT	correct	congruent	0.48047	no	T	T
620.546875	n/a	158860	responseSmallT	correct	n/a	0.48047	no	n/a	n/a
621.6132812	n/a	159133	largeTSmallH	correct	incongruent	0.46094	no	T	H
622.0742188	n/a	159251	responseSmallH	correct	n/a	0.46094	no	n/a	n/a
623.1484375	n/a	159526	largeHSmallH	error	congruent	0.34766	no	H	H
623.4960938	n/a	159615	responseSmallT	error	n/a	0.34766	no	n/a	n/a
624.5742188	n/a	159891	largeHSmallH	correct	congruent	0.39844	no	H	H
624.9726562	n/a	159993	responseSmallH	correct	n/a	0.39844	no	n/a	n/a
626.0390625	n/a	160266	largeHSmallT	correct	incongruent	0.48438	no	H	T
626.5234375	n/a	160390	responseSmallT	correct	n/a	0.48438	no	n/a	n/a
627.6015625	n/a	160666	largeTSmallH	correct	incongruent	0.41797	no	T	H
628.0195312	n/a	160773	responseSmallH	correct	n/a	0.41797	no	n/a	n/a
629.09375	n/a	161048	largeHSmallT	correct	incongruent	0.42188	no	H	T
629.515625	n/a	161156	responseSmallT	correct	n/a	0.42188	no	n/a	n/a
630.5859375	n/a	161430	largeTSmallT	correct	congruent	0.46094	no	T	T
631.046875	n/a	161548	responseSmallT	correct	n/a	0.46094	no	n/a	n/a
632.1210938	n/a	161823	largeHSmallH	correct	congruent	0.42188	no	H	H
632.5429688	n/a	161931	responseSmallH	correct	n/a	0.42188	no	n/a	n/a
633.6132812	n/a	162205	largeHSmallH	correct	congruent	0.41797	no	H	H
634.03125	n/a	162312	responseSmallH	correct	n/a	0.41797	no	n/a	n/a
635.09375	n/a	162584	largeHSmallH	correct	congruent	0.63672	no	H	H
635.7304688	n/a	162747	responseSmallH	correct	n/a	0.63672	no	n/a	n/a
636.8007812	n/a	163021	largeHSmallT	correct	incongruent	0.44531	no	H	T
637.2460938	n/a	163135	responseSmallT	correct	n/a	0.44531	no	n/a	n/a
638.3046875	n/a	163406	largeHSmallH	correct	congruent	0.41406	no	H	H
638.71875	n/a	163512	responseSmallH	correct	n/a	0.41406	no	n/a	n/a
639.8007812	n/a	163789	largeTSmallT	correct	congruent	0.42188	no	T	T
640.2226562	n/a	163897	responseSmallT	correct	n/a	0.42188	no	n/a	n/a
641.2929688	n/a	164171	largeHSmallT	error	incongruent	0.44922	no	H	T
641.7421875	n/a	164286	responseSmallH	error	n/a	0.44922	no	n/a	n/a
642.828125	n/a	164564	largeTSmallH	correct	incongruent	0.44141	no	T	H
643.2695312	n/a	164677	responseSmallH	correct	n/a	0.44141	no	n/a	n/a
644.3320312	n/a	164949	largeTSmallH	correct	incongruent	0.46094	no	T	H
644.7929688	n/a	165067	responseSmallH	correct	n/a	0.46094	no	n/a	n/a
649.1445312	n/a	166181	largeTSmallT	correct	congruent	0.50391	no	T	T
649.6484375	n/a	166310	responseLargeT	correct	n/a	0.50391	no	n/a	n/a
650.71875	n/a	166584	largeHSmallH	correct	congruent	0.42969	no	H	H
651.1484375	n/a	166694	responseLargeH	correct	n/a	0.42969	no	n/a	n/a
652.2265625	n/a	166970	largeTSmallH	correct	incongruent	0.57031	no	T	H
652.796875	n/a	167116	responseLargeT	correct	n/a	0.57031	no	n/a	n/a
653.8671875	n/a	167390	largeHSmallH	correct	congruent	0.57422	no	H	H
654.4414062	n/a	167537	responseLargeH	correct	n/a	0.57422	no	n/a	n/a
655.5195312	n/a	167813	largeHSmallH	correct	congruent	0.95703	no	H	H
656.4765625	n/a	168058	responseLargeH	correct	n/a	0.95703	no	n/a	n/a
657.546875	n/a	168332	largeHSmallT	correct	incongruent	0.36328	no	H	T
657.9101562	n/a	168425	responseLargeH	correct	n/a	0.36328	no	n/a	n/a
658.984375	n/a	168700	largeHSmallH	correct	congruent	0.36328	no	H	H
659.3476562	n/a	168793	responseLargeH	correct	n/a	0.36328	no	n/a	n/a
660.4140625	n/a	169066	largeTSmallH	correct	incongruent	0.44922	no	T	H
660.8632812	n/a	169181	responseLargeT	correct	n/a	0.44922	no	n/a	n/a
661.9335938	n/a	169455	largeHSmallH	correct	congruent	0.48047	no	H	H
662.4140625	n/a	169578	responseLargeH	correct	n/a	0.48047	no	n/a	n/a
663.4921875	n/a	169854	largeHSmallH	correct	congruent	0.42969	no	H	H
663.921875	n/a	169964	responseLargeH	correct	n/a	0.42969	no	n/a	n/a
664.984375	n/a	170236	largeTSmallT	correct	congruent	0.42969	no	T	T
665.4140625	n/a	170346	responseLargeT	correct	n/a	0.42969	no	n/a	n/a
666.4921875	n/a	170622	largeHSmallH	correct	congruent	0.41406	no	H	H
666.90625	n/a	170728	responseLargeH	correct	n/a	0.41406	no	n/a	n/a
667.984375	n/a	171004	largeHSmallT	correct	incongruent	0.375	no	H	T
668.359375	n/a	171100	responseLargeH	correct	n/a	0.375	no	n/a	n/a
669.4375	n/a	171376	largeHSmallT	correct	incongruent	0.37109	no	H	T
669.8085938	n/a	171471	responseLargeH	correct	n/a	0.37109	no	n/a	n/a
670.8789062	n/a	171745	largeHSmallH	correct	congruent	0.43359	no	H	H
671.3125	n/a	171856	responseLargeH	correct	n/a	0.43359	no	n/a	n/a
672.3867188	n/a	172131	largeTSmallH	correct	incongruent	0.47266	no	T	H
672.859375	n/a	172252	responseLargeT	correct	n/a	0.47266	no	n/a	n/a
673.9335938	n/a	172527	largeHSmallH	correct	congruent	0.48828	no	H	H
674.421875	n/a	172652	responseLargeH	correct	n/a	0.48828	no	n/a	n/a
675.4804688	n/a	172923	largeTSmallT	correct	congruent	0.40234	no	T	T
675.8828125	n/a	173026	responseLargeT	correct	n/a	0.40234	no	n/a	n/a
676.9570312	n/a	173301	largeHSmallH	correct	congruent	0.36328	no	H	H
677.3203125	n/a	173394	responseLargeH	correct	n/a	0.36328	no	n/a	n/a
678.3867188	n/a	173667	largeTSmallH	correct	incongruent	0.33594	no	T	H
678.7226562	n/a	173753	responseLargeT	correct	n/a	0.33594	no	n/a	n/a
679.8007812	n/a	174029	largeTSmallT	error	congruent	0.30859	no	T	T
680.109375	n/a	174108	responseLargeH	error	n/a	0.30859	no	n/a	n/a
681.1835938	n/a	174383	largeTSmallT	correct	congruent	0.44141	no	T	T
681.625	n/a	174496	responseLargeT	correct	n/a	0.44141	no	n/a	n/a
682.6914062	n/a	174769	largeHSmallT	correct	incongruent	0.47656	no	H	T
683.1679688	n/a	174891	responseLargeH	correct	n/a	0.47656	no	n/a	n/a
684.2382812	n/a	175165	largeHSmallH	correct	congruent	0.47266	no	H	H
684.7109375	n/a	175286	responseLargeH	correct	n/a	0.47266	no	n/a	n/a
685.7851562	n/a	175561	largeHSmallH	correct	congruent	0.46094	no	H	H
686.2460938	n/a	175679	responseLargeH	correct	n/a	0.46094	no	n/a	n/a
687.3203125	n/a	175954	largeHSmallT	error	incongruent	0.42969	no	H	T
687.75	n/a	176064	responseLargeT	error	n/a	0.42969	no	n/a	n/a
688.8242188	n/a	176339	largeHSmallH	correct	congruent	0.46875	no	H	H
689.2929688	n/a	176459	responseLargeH	correct	n/a	0.46875	no	n/a	n/a
690.3710938	n/a	176735	largeHSmallH	correct	congruent	0.43359	no	H	H
690.8046875	n/a	176846	responseLargeH	correct	n/a	0.43359	no	n/a	n/a
691.8789062	n/a	177121	largeTSmallH	correct	incongruent	0.46484	no	T	H
692.34375	n/a	177240	responseLargeT	correct	n/a	0.46484	no	n/a	n/a
693.4101562	n/a	177513	largeHSmallT	correct	incongruent	0.47656	no	H	T
693.8867188	n/a	177635	responseLargeH	correct	n/a	0.47656	no	n/a	n/a
694.9570312	n/a	177909	largeTSmallH	correct	incongruent	0.55469	no	T	H
695.5117188	n/a	178051	responseLargeT	correct	n/a	0.55469	no	n/a	n/a
696.5859375	n/a	178326	largeTSmallH	correct	incongruent	0.49219	no	T	H
697.078125	n/a	178452	responseLargeT	correct	n/a	0.49219	no	n/a	n/a
698.1601562	n/a	178729	largeTSmallT	correct	congruent	0.41797	no	T	T
698.578125	n/a	178836	responseLargeT	correct	n/a	0.41797	no	n/a	n/a
699.6523438	n/a	179111	largeTSmallT	correct	congruent	0.46875	no	T	T
700.1210938	n/a	179231	responseLargeT	correct	n/a	0.46875	no	n/a	n/a
701.1992188	n/a	179507	largeHSmallT	correct	incongruent	0.57812	no	H	T
701.7773438	n/a	179655	responseLargeH	correct	n/a	0.57812	no	n/a	n/a
702.8515625	n/a	179930	largeHSmallH	correct	congruent	0.45312	no	H	H
703.3046875	n/a	180046	responseLargeH	correct	n/a	0.45312	no	n/a	n/a
704.3867188	n/a	180323	largeHSmallH	correct	congruent	0.45312	no	H	H
704.8398438	n/a	180439	responseLargeH	correct	n/a	0.45312	no	n/a	n/a
705.90625	n/a	180712	largeTSmallH	correct	incongruent	0.45312	no	T	H
706.359375	n/a	180828	responseLargeT	correct	n/a	0.45312	no	n/a	n/a
707.4375	n/a	181104	largeTSmallH	correct	incongruent	0.59766	no	T	H
708.0351562	n/a	181257	responseLargeT	correct	n/a	0.59766	no	n/a	n/a
709.1054688	n/a	181531	largeTSmallT	correct	congruent	0.46875	no	T	T
709.5742188	n/a	181651	responseLargeT	correct	n/a	0.46875	no	n/a	n/a
710.6523438	n/a	181927	largeHSmallT	correct	incongruent	0.51172	no	H	T
711.1640625	n/a	182058	responseLargeH	correct	n/a	0.51172	no	n/a	n/a
712.2382812	n/a	182333	largeTSmallT	correct	congruent	0.46094	no	T	T
712.6992188	n/a	182451	responseLargeT	correct	n/a	0.46094	no	n/a	n/a
713.7695312	n/a	182725	largeHSmallH	correct	congruent	0.45312	no	H	H
714.2226562	n/a	182841	responseLargeH	correct	n/a	0.45312	no	n/a	n/a
715.2929688	n/a	183115	largeTSmallT	correct	congruent	0.50391	no	T	T
715.796875	n/a	183244	responseLargeT	correct	n/a	0.50391	no	n/a	n/a
716.8789062	n/a	183521	largeTSmallT	correct	congruent	0.42969	no	T	T
717.3085938	n/a	183631	responseLargeT	correct	n/a	0.42969	no	n/a	n/a
718.3828125	n/a	183906	largeHSmallT	correct	incongruent	0.50391	no	H	T
718.8867188	n/a	184035	responseLargeH	correct	n/a	0.50391	no	n/a	n/a
719.9570312	n/a	184309	largeHSmallT	correct	incongruent	0.46094	no	H	T
720.4179688	n/a	184427	responseLargeH	correct	n/a	0.46094	no	n/a	n/a
721.4921875	n/a	184702	largeHSmallT	correct	incongruent	0.41406	no	H	T
721.90625	n/a	184808	responseLargeH	correct	n/a	0.41406	no	n/a	n/a
722.9726562	n/a	185081	largeHSmallT	correct	incongruent	0.375	no	H	T
723.3476562	n/a	185177	responseLargeH	correct	n/a	0.375	no	n/a	n/a
724.4257812	n/a	185453	largeTSmallH	correct	incongruent	0.5	no	T	H
724.9257812	n/a	185581	responseLargeT	correct	n/a	0.5	no	n/a	n/a
725.9960938	n/a	185855	largeTSmallH	correct	incongruent	0.57422	no	T	H
726.5703125	n/a	186002	responseLargeT	correct	n/a	0.57422	no	n/a	n/a
727.6367188	n/a	186275	largeHSmallH	correct	congruent	0.48047	no	H	H
728.1171875	n/a	186398	responseLargeH	correct	n/a	0.48047	no	n/a	n/a
729.1835938	n/a	186671	largeTSmallT	correct	congruent	0.49219	no	T	T
729.6757812	n/a	186797	responseLargeT	correct	n/a	0.49219	no	n/a	n/a
730.7421875	n/a	187070	largeHSmallT	correct	incongruent	0.51953	no	H	T
731.2617188	n/a	187203	responseLargeH	correct	n/a	0.51953	no	n/a	n/a
732.3320312	n/a	187477	largeHSmallH	correct	congruent	0.47266	no	H	H
732.8046875	n/a	187598	responseLargeH	correct	n/a	0.47266	no	n/a	n/a
733.8789062	n/a	187873	largeTSmallH	correct	incongruent	0.44531	no	T	H
734.3242188	n/a	187987	responseLargeT	correct	n/a	0.44531	no	n/a	n/a
735.3984375	n/a	188262	largeHSmallT	correct	incongruent	0.49219	no	H	T
735.890625	n/a	188388	responseLargeH	correct	n/a	0.49219	no	n/a	n/a
736.96875	n/a	188664	largeTSmallT	correct	congruent	0.46094	no	T	T
737.4296875	n/a	188782	responseLargeT	correct	n/a	0.46094	no	n/a	n/a
738.4921875	n/a	189054	largeTSmallT	correct	congruent	0.40625	no	T	T
738.8984375	n/a	189158	responseLargeT	correct	n/a	0.40625	no	n/a	n/a
739.9570312	n/a	189429	largeTSmallH	correct	incongruent	0.42188	no	T	H
740.3789062	n/a	189537	responseLargeT	correct	n/a	0.42188	no	n/a	n/a
741.4492188	n/a	189811	largeTSmallH	correct	incongruent	0.44531	no	T	H
741.8945312	n/a	189925	responseLargeT	correct	n/a	0.44531	no	n/a	n/a
742.9570312	n/a	190197	largeTSmallH	correct	incongruent	0.41016	no	T	H
743.3671875	n/a	190302	responseLargeT	correct	n/a	0.41016	no	n/a	n/a
744.4375	n/a	190576	largeTSmallH	correct	incongruent	0.43359	no	T	H
744.8710938	n/a	190687	responseLargeT	correct	n/a	0.43359	no	n/a	n/a
745.9296875	n/a	190958	largeTSmallT	correct	congruent	0.375	no	T	T
746.3046875	n/a	191054	responseLargeT	correct	n/a	0.375	no	n/a	n/a
747.3710938	n/a	191327	largeTSmallH	correct	incongruent	0.55078	no	T	H
747.921875	n/a	191468	responseLargeT	correct	n/a	0.55078	no	n/a	n/a
748.9960938	n/a	191743	largeTSmallT	correct	congruent	0.44531	no	T	T
749.4414062	n/a	191857	responseLargeT	correct	n/a	0.44531	no	n/a	n/a
750.5039062	n/a	192129	largeTSmallH	correct	incongruent	0.36328	no	T	H
750.8671875	n/a	192222	responseLargeT	correct	n/a	0.36328	no	n/a	n/a
751.9453125	n/a	192498	largeTSmallT	correct	congruent	0.35547	no	T	T
752.3007812	n/a	192589	responseLargeT	correct	n/a	0.35547	no	n/a	n/a
753.3828125	n/a	192866	largeTSmallT	correct	congruent	0.35938	no	T	T
753.7421875	n/a	192958	responseLargeT	correct	n/a	0.35938	no	n/a	n/a
754.8085938	n/a	193231	largeHSmallH	correct	congruent	0.51172	no	H	H
755.3203125	n/a	193362	responseLargeH	correct	n/a	0.51172	no	n/a	n/a
756.3828125	n/a	193634	largeHSmallT	correct	incongruent	0.37891	no	H	T
756.7617188	n/a	193731	responseLargeH	correct	n/a	0.37891	no	n/a	n/a
757.8359375	n/a	194006	largeTSmallT	correct	congruent	0.50781	no	T	T
758.34375	n/a	194136	responseLargeT	correct	n/a	0.50781	no	n/a	n/a
759.4101562	n/a	194409	largeHSmallH	correct	congruent	0.49609	no	H	H
759.90625	n/a	194536	responseLargeH	correct	n/a	0.49609	no	n/a	n/a
760.96875	n/a	194808	largeHSmallT	correct	incongruent	0.36328	no	H	T
761.3320312	n/a	194901	responseLargeH	correct	n/a	0.36328	no	n/a	n/a
762.3984375	n/a	195174	largeTSmallH	correct	incongruent	0.51562	no	T	H
762.9140625	n/a	195306	responseLargeT	correct	n/a	0.51562	no	n/a	n/a
763.984375	n/a	195580	largeTSmallH	correct	incongruent	0.39062	no	T	H
764.375	n/a	195680	responseLargeT	correct	n/a	0.39062	no	n/a	n/a
765.4492188	n/a	195955	largeTSmallH	correct	incongruent	0.38281	no	T	H
765.8320312	n/a	196053	responseLargeT	correct	n/a	0.38281	no	n/a	n/a
766.9023438	n/a	196327	largeHSmallH	correct	congruent	0.46875	no	H	H
767.3710938	n/a	196447	responseLargeH	correct	n/a	0.46875	no	n/a	n/a
768.4492188	n/a	196723	largeHSmallT	correct	incongruent	0.35156	no	H	T
768.8007812	n/a	196813	responseLargeH	correct	n/a	0.35156	no	n/a	n/a
769.8632812	n/a	197085	largeTSmallT	correct	congruent	0.41797	no	T	T
770.28125	n/a	197192	responseLargeT	correct	n/a	0.41797	no	n/a	n/a
771.34375	n/a	197464	largeHSmallH	correct	congruent	0.39453	no	H	H
771.7382812	n/a	197565	responseLargeH	correct	n/a	0.39453	no	n/a	n/a
772.8085938	n/a	197839	largeTSmallT	correct	congruent	0.46484	no	T	T
773.2734375	n/a	197958	responseLargeT	correct	n/a	0.46484	no	n/a	n/a
774.34375	n/a	198232	largeHSmallT	correct	incongruent	0.43359	no	H	T
774.7773438	n/a	198343	responseLargeH	correct	n/a	0.43359	no	n/a	n/a
775.8359375	n/a	198614	largeHSmallT	correct	incongruent	0.36719	no	H	T
776.203125	n/a	198708	responseLargeH	correct	n/a	0.36719	no	n/a	n/a
777.2773438	n/a	198983	largeTSmallH	correct	incongruent	0.43359	no	T	H
777.7109375	n/a	199094	responseLargeT	correct	n/a	0.43359	no	n/a	n/a
778.7695312	n/a	199365	largeTSmallH	correct	incongruent	0.42969	no	T	H
779.1992188	n/a	199475	responseLargeT	correct	n/a	0.42969	no	n/a	n/a
780.2773438	n/a	199751	largeTSmallT	correct	congruent	0.42969	no	T	T
780.7070312	n/a	199861	responseLargeT	correct	n/a	0.42969	no	n/a	n/a
781.7695312	n/a	200133	largeTSmallH	correct	incongruent	0.46094	no	T	H
782.2304688	n/a	200251	responseLargeT	correct	n/a	0.46094	no	n/a	n/a
783.3007812	n/a	200525	largeTSmallT	correct	congruent	0.42969	no	T	T
783.7304688	n/a	200635	responseLargeT	correct	n/a	0.42969	no	n/a	n/a
784.796875	n/a	200908	largeTSmallH	correct	incongruent	0.41406	no	T	H
785.2109375	n/a	201014	responseLargeT	correct	n/a	0.41406	no	n/a	n/a
786.2773438	n/a	201287	largeTSmallT	correct	congruent	0.34375	no	T	T
786.6210938	n/a	201375	responseLargeT	correct	n/a	0.34375	no	n/a	n/a
787.703125	n/a	201652	largeHSmallH	correct	congruent	0.48438	no	H	H
788.1875	n/a	201776	responseLargeH	correct	n/a	0.48438	no	n/a	n/a
789.2617188	n/a	202051	largeHSmallH	correct	congruent	0.45312	no	H	H
789.7148438	n/a	202167	responseLargeH	correct	n/a	0.45312	no	n/a	n/a
790.78125	n/a	202440	largeTSmallT	correct	congruent	0.44141	no	T	T
791.2226562	n/a	202553	responseLargeT	correct	n/a	0.44141	no	n/a	n/a
792.2890625	n/a	202826	largeTSmallT	correct	congruent	0.39062	no	T	T
792.6796875	n/a	202926	responseLargeT	correct	n/a	0.39062	no	n/a	n/a
793.7539062	n/a	203201	largeHSmallT	correct	incongruent	0.48828	no	H	T
794.2421875	n/a	203326	responseLargeH	correct	n/a	0.48828	no	n/a	n/a
795.3164062	n/a	203601	largeTSmallT	correct	congruent	0.44531	no	T	T
795.7617188	n/a	203715	responseLargeT	correct	n/a	0.44531	no	n/a	n/a
796.8476562	n/a	203993	largeHSmallT	correct	incongruent	0.42578	no	H	T
797.2734375	n/a	204102	responseLargeH	correct	n/a	0.42578	no	n/a	n/a
798.34375	n/a	204376	largeHSmallT	correct	incongruent	0.47656	no	H	T
798.8203125	n/a	204498	responseLargeH	correct	n/a	0.47656	no	n/a	n/a
799.9023438	n/a	204775	largeTSmallT	correct	congruent	0.5	no	T	T
800.4023438	n/a	204903	responseLargeT	correct	n/a	0.5	no	n/a	n/a
801.4765625	n/a	205178	largeTSmallH	correct	incongruent	0.4375	no	T	H
801.9140625	n/a	205290	responseLargeT	correct	n/a	0.4375	no	n/a	n/a
802.9804688	n/a	205563	largeHSmallH	correct	congruent	0.44141	no	H	H
803.421875	n/a	205676	responseLargeH	correct	n/a	0.44141	no	n/a	n/a
804.4882812	n/a	205949	largeTSmallT	correct	congruent	0.48047	no	T	T
804.96875	n/a	206072	responseLargeT	correct	n/a	0.48047	no	n/a	n/a
806.046875	n/a	206348	largeHSmallT	correct	incongruent	0.50391	no	H	T
806.5507812	n/a	206477	responseLargeH	correct	n/a	0.50391	no	n/a	n/a
807.6210938	n/a	206751	largeHSmallH	correct	congruent	0.50391	no	H	H
808.125	n/a	206880	responseLargeH	correct	n/a	0.50391	no	n/a	n/a
809.1953125	n/a	207154	largeHSmallT	correct	incongruent	0.49219	no	H	T
809.6875	n/a	207280	responseLargeH	correct	n/a	0.49219	no	n/a	n/a
810.7539062	n/a	207553	largeTSmallT	correct	congruent	0.6875	no	T	T
811.4414062	n/a	207729	responseLargeT	correct	n/a	0.6875	no	n/a	n/a
812.515625	n/a	208004	largeHSmallT	error	incongruent	0.40234	no	H	T
812.9179688	n/a	208107	responseLargeT	error	n/a	0.40234	no	n/a	n/a
813.9960938	n/a	208383	largeHSmallH	correct	congruent	0.48438	no	H	H
814.4804688	n/a	208507	responseLargeH	correct	n/a	0.48438	no	n/a	n/a
815.5429688	n/a	208779	largeTSmallT	correct	congruent	0.43359	no	T	T
815.9765625	n/a	208890	responseLargeT	correct	n/a	0.43359	no	n/a	n/a
817.046875	n/a	209164	largeTSmallT	correct	congruent	0.40625	no	T	T
817.453125	n/a	209268	responseLargeT	correct	n/a	0.40625	no	n/a	n/a
818.5273438	n/a	209543	largeHSmallH	correct	congruent	0.48047	no	H	H
819.0078125	n/a	209666	responseLargeH	correct	n/a	0.48047	no	n/a	n/a
820.0898438	n/a	209943	largeTSmallH	correct	incongruent	0.45312	no	T	H
820.5429688	n/a	210059	responseLargeT	correct	n/a	0.45312	no	n/a	n/a
821.609375	n/a	210332	largeTSmallH	correct	incongruent	0.5	no	T	H
822.109375	n/a	210460	responseLargeT	correct	n/a	0.5	no	n/a	n/a
823.1796875	n/a	210734	largeTSmallH	correct	incongruent	0.37891	no	T	H
823.5585938	n/a	210831	responseLargeT	correct	n/a	0.37891	no	n/a	n/a
824.6210938	n/a	211103	largeTSmallT	correct	congruent	0.41406	no	T	T
825.0351562	n/a	211209	responseLargeT	correct	n/a	0.41406	no	n/a	n/a
826.1015625	n/a	211482	largeHSmallT	correct	incongruent	0.5	no	H	T
826.6015625	n/a	211610	responseLargeH	correct	n/a	0.5	no	n/a	n/a
827.6601562	n/a	211881	largeHSmallT	error	incongruent	0.41016	no	H	T
828.0703125	n/a	211986	responseLargeT	error	n/a	0.41016	no	n/a	n/a
829.140625	n/a	212260	largeHSmallT	correct	incongruent	0.5625	no	H	T
829.703125	n/a	212404	responseLargeH	correct	n/a	0.5625	no	n/a	n/a
830.7695312	n/a	212677	largeHSmallH	correct	congruent	0.42188	no	H	H
831.1914062	n/a	212785	responseLargeH	correct	n/a	0.42188	no	n/a	n/a
832.2734375	n/a	213062	largeTSmallH	correct	incongruent	0.68359	no	T	H
832.9570312	n/a	213237	responseLargeT	correct	n/a	0.68359	no	n/a	n/a
834.0351562	n/a	213513	largeHSmallT	correct	incongruent	0.49219	no	H	T
834.5273438	n/a	213639	responseLargeH	correct	n/a	0.49219	no	n/a	n/a
835.59375	n/a	213912	largeHSmallT	correct	incongruent	0.51562	no	H	T
836.109375	n/a	214044	responseLargeH	correct	n/a	0.51562	no	n/a	n/a
837.1796875	n/a	214318	largeHSmallH	correct	congruent	0.48828	no	H	H
837.6679688	n/a	214443	responseLargeH	correct	n/a	0.48828	no	n/a	n/a
838.7421875	n/a	214718	largeTSmallT	correct	congruent	0.49219	no	T	T
839.234375	n/a	214844	responseLargeT	correct	n/a	0.49219	no	n/a	n/a
840.3007812	n/a	215117	largeTSmallH	correct	incongruent	0.49219	no	T	H
840.7929688	n/a	215243	responseLargeT	correct	n/a	0.49219	no	n/a	n/a
841.859375	n/a	215516	largeHSmallH	correct	congruent	0.49219	no	H	H
842.3515625	n/a	215642	responseLargeH	correct	n/a	0.49219	no	n/a	n/a
843.421875	n/a	215916	largeHSmallH	correct	congruent	0.70312	no	H	H
844.125	n/a	216096	responseLargeH	correct	n/a	0.70312	no	n/a	n/a
845.1953125	n/a	216370	largeTSmallT	correct	congruent	0.44531	no	T	T
845.640625	n/a	216484	responseLargeT	correct	n/a	0.44531	no	n/a	n/a
846.7148438	n/a	216759	largeTSmallH	correct	incongruent	0.41797	no	T	H
847.1328125	n/a	216866	responseLargeT	correct	n/a	0.41797	no	n/a	n/a
848.2070312	n/a	217141	largeHSmallT	correct	incongruent	0.4375	no	H	T
848.6445312	n/a	217253	responseLargeH	correct	n/a	0.4375	no	n/a	n/a
849.7148438	n/a	217527	largeHSmallH	correct	congruent	0.48438	no	H	H
850.1992188	n/a	217651	responseLargeH	correct	n/a	0.48438	no	n/a	n/a
851.2734375	n/a	217926	largeHSmallT	correct	incongruent	0.55078	no	H	T
851.8242188	n/a	218067	responseLargeH	correct	n/a	0.55078	no	n/a	n/a
852.8867188	n/a	218339	largeHSmallH	correct	congruent	0.42969	no	H	H
853.3164062	n/a	218449	responseLargeH	correct	n/a	0.42969	no	n/a	n/a
854.3945312	n/a	218725	largeTSmallH	correct	incongruent	0.56641	no	T	H
854.9609375	n/a	218870	responseLargeT	correct	n/a	0.56641	no	n/a	n/a
856.0351562	n/a	219145	largeHSmallH	correct	congruent	0.48438	no	H	H
856.5195312	n/a	219269	responseLargeH	correct	n/a	0.48438	no	n/a	n/a
857.5820312	n/a	219541	largeTSmallH	correct	incongruent	0.51562	no	T	H
858.0976562	n/a	219673	responseLargeT	correct	n/a	0.51562	no	n/a	n/a
859.1679688	n/a	219947	largeTSmallH	correct	incongruent	0.42578	no	T	H
859.59375	n/a	220056	responseLargeT	correct	n/a	0.42578	no	n/a	n/a
860.6601562	n/a	220329	largeTSmallT	correct	congruent	0.44531	no	T	T
861.1054688	n/a	220443	responseLargeT	correct	n/a	0.44531	no	n/a	n/a
862.1796875	n/a	220718	largeHSmallT	correct	incongruent	0.44922	no	H	T
862.6289062	n/a	220833	responseLargeH	correct	n/a	0.44922	no	n/a	n/a
863.6992188	n/a	221107	largeHSmallT	error	incongruent	0.46484	no	H	T
864.1640625	n/a	221226	responseLargeT	error	n/a	0.46484	no	n/a	n/a
865.234375	n/a	221500	largeHSmallT	correct	incongruent	0.51953	no	H	T
865.7539062	n/a	221633	responseLargeH	correct	n/a	0.51953	no	n/a	n/a
866.8203125	n/a	221906	largeHSmallT	correct	incongruent	0.44141	no	H	T
867.2617188	n/a	222019	responseLargeH	correct	n/a	0.44141	no	n/a	n/a
868.328125	n/a	222292	largeTSmallH	correct	incongruent	0.51172	no	T	H
868.8398438	n/a	222423	responseLargeT	correct	n/a	0.51172	no	n/a	n/a
869.9140625	n/a	222698	largeTSmallT	correct	congruent	0.56641	no	T	T
870.4804688	n/a	222843	responseLargeT	correct	n/a	0.56641	no	n/a	n/a
871.5546875	n/a	223118	largeTSmallT	correct	congruent	0.46094	no	T	T
872.015625	n/a	223236	responseLargeT	correct	n/a	0.46094	no	n/a	n/a
873.0859375	n/a	223510	largeTSmallH	correct	incongruent	0.41016	no	T	H
873.4960938	n/a	223615	responseLargeT	correct	n/a	0.41016	no	n/a	n/a
874.5820312	n/a	223893	largeTSmallH	correct	incongruent	0.64062	no	T	H
875.2226562	n/a	224057	responseLargeT	correct	n/a	0.64062	no	n/a	n/a
876.2851562	n/a	224329	largeHSmallH	correct	congruent	0.75391	no	H	H
877.0390625	n/a	224522	responseLargeH	correct	n/a	0.75391	no	n/a	n/a
878.1015625	n/a	224794	largeHSmallH	correct	congruent	0.46094	no	H	H
878.5625	n/a	224912	responseLargeH	correct	n/a	0.46094	no	n/a	n/a
879.6328125	n/a	225186	largeHSmallT	correct	incongruent	0.40234	no	H	T
880.0351562	n/a	225289	responseLargeH	correct	n/a	0.40234	no	n/a	n/a
881.1132812	n/a	225565	largeTSmallT	correct	congruent	0.53516	no	T	T
881.6484375	n/a	225702	responseLargeT	correct	n/a	0.53516	no	n/a	n/a
882.7148438	n/a	225975	largeHSmallT	correct	incongruent	0.53516	no	H	T
883.25	n/a	226112	responseLargeH	correct	n/a	0.53516	no	n/a	n/a
884.328125	n/a	226388	largeHSmallH	correct	congruent	0.45703	no	H	H
884.7851562	n/a	226505	responseLargeH	correct	n/a	0.45703	no	n/a	n/a
885.859375	n/a	226780	largeTSmallH	correct	incongruent	0.48438	no	T	H
886.34375	n/a	226904	responseLargeT	correct	n/a	0.48438	no	n/a	n/a
887.40625	n/a	227176	largeHSmallH	correct	congruent	0.42969	no	H	H
887.8359375	n/a	227286	responseLargeH	correct	n/a	0.42969	no	n/a	n/a
888.9140625	n/a	227562	largeHSmallH	correct	congruent	0.43359	no	H	H
889.3476562	n/a	227673	responseLargeH	correct	n/a	0.43359	no	n/a	n/a
890.4179688	n/a	227947	largeTSmallT	correct	congruent	0.48828	no	T	T
890.90625	n/a	228072	responseLargeT	correct	n/a	0.48828	no	n/a	n/a
891.9804688	n/a	228347	largeTSmallH	correct	incongruent	0.64062	no	T	H
892.6210938	n/a	228511	responseLargeT	correct	n/a	0.64062	no	n/a	n/a
893.6992188	n/a	228787	largeHSmallT	error	incongruent	0.46875	no	H	T
894.1679688	n/a	228907	responseLargeT	error	n/a	0.46875	no	n/a	n/a
895.2460938	n/a	229183	largeTSmallH	correct	incongruent	0.58594	no	T	H
895.8320312	n/a	229333	responseLargeT	correct	n/a	0.58594	no	n/a	n/a
896.8984375	n/a	229606	largeHSmallT	correct	incongruent	0.625	no	H	T
897.5234375	n/a	229766	responseLargeH	correct	n/a	0.625	no	n/a	n/a
898.59375	n/a	230040	largeHSmallH	correct	congruent	0.75	no	H	H
899.34375	n/a	230232	responseLargeH	correct	n/a	0.75	no	n/a	n/a
900.40625	n/a	230504	largeHSmallT	correct	incongruent	0.5	no	H	T
900.90625	n/a	230632	responseLargeH	correct	n/a	0.5	no	n/a	n/a
901.9804688	n/a	230907	largeTSmallH	correct	incongruent	0.50781	no	T	H
902.4882812	n/a	231037	responseLargeT	correct	n/a	0.50781	no	n/a	n/a
903.5664062	n/a	231313	largeHSmallH	correct	congruent	0.4375	no	H	H
904.0039062	n/a	231425	responseLargeH	correct	n/a	0.4375	no	n/a	n/a
905.0742188	n/a	231699	largeTSmallT	correct	congruent	0.47266	no	T	T
905.546875	n/a	231820	responseLargeT	correct	n/a	0.47266	no	n/a	n/a
906.6210938	n/a	232095	largeTSmallH	correct	incongruent	0.58984	no	T	H
907.2109375	n/a	232246	responseLargeT	correct	n/a	0.58984	no	n/a	n/a
908.2851562	n/a	232521	largeTSmallT	correct	congruent	0.42188	no	T	T
908.7070312	n/a	232629	responseLargeT	correct	n/a	0.42188	no	n/a	n/a
909.78125	n/a	232904	largeTSmallT	correct	congruent	0.39453	no	T	T
910.1757812	n/a	233005	responseLargeT	correct	n/a	0.39453	no	n/a	n/a
911.2460938	n/a	233279	largeHSmallH	correct	congruent	0.5	no	H	H
911.7460938	n/a	233407	responseLargeH	correct	n/a	0.5	no	n/a	n/a
912.8046875	n/a	233678	largeHSmallH	correct	congruent	0.41797	no	H	H
913.2226562	n/a	233785	responseLargeH	correct	n/a	0.41797	no	n/a	n/a
914.2851562	n/a	234057	largeHSmallH	correct	congruent	0.37109	no	H	H
914.65625	n/a	234152	responseLargeH	correct	n/a	0.37109	no	n/a	n/a
915.7265625	n/a	234426	largeHSmallH	correct	congruent	0.50781	no	H	H
916.234375	n/a	234556	responseLargeH	correct	n/a	0.50781	no	n/a	n/a
917.3007812	n/a	234829	largeHSmallH	correct	congruent	0.41406	no	H	H
917.7148438	n/a	234935	responseLargeH	correct	n/a	0.41406	no	n/a	n/a
918.7929688	n/a	235211	largeHSmallT	correct	incongruent	0.64844	no	H	T
919.4414062	n/a	235377	responseLargeH	correct	n/a	0.64844	no	n/a	n/a
920.5117188	n/a	235651	largeHSmallT	correct	incongruent	0.35156	no	H	T
920.8632812	n/a	235741	responseLargeH	correct	n/a	0.35156	no	n/a	n/a
921.9375	n/a	236016	largeTSmallT	correct	congruent	0.44922	no	T	T
922.3867188	n/a	236131	responseLargeT	correct	n/a	0.44922	no	n/a	n/a
923.4726562	n/a	236409	largeTSmallT	correct	congruent	0.40625	no	T	T
923.8789062	n/a	236513	responseLargeT	correct	n/a	0.40625	no	n/a	n/a
924.953125	n/a	236788	largeHSmallT	correct	incongruent	0.57031	no	H	T
925.5234375	n/a	236934	responseLargeH	correct	n/a	0.57031	no	n/a	n/a
926.6054688	n/a	237211	largeTSmallH	correct	incongruent	0.51953	no	T	H
927.125	n/a	237344	responseLargeT	correct	n/a	0.51953	no	n/a	n/a
928.1914062	n/a	237617	largeHSmallT	correct	incongruent	0.48438	no	H	T
928.6757812	n/a	237741	responseLargeH	correct	n/a	0.48438	no	n/a	n/a
929.7539062	n/a	238017	largeTSmallT	correct	congruent	0.42969	no	T	T
930.1835938	n/a	238127	responseLargeT	correct	n/a	0.42969	no	n/a	n/a
931.2460938	n/a	238399	largeHSmallT	correct	incongruent	0.36719	no	H	T
931.6132812	n/a	238493	responseLargeH	correct	n/a	0.36719	no	n/a	n/a
932.6835938	n/a	238767	largeHSmallH	correct	congruent	0.53906	no	H	H
933.2226562	n/a	238905	responseLargeH	correct	n/a	0.53906	no	n/a	n/a
934.2851562	n/a	239177	largeTSmallT	correct	congruent	0.48047	no	T	T
934.765625	n/a	239300	responseLargeT	correct	n/a	0.48047	no	n/a	n/a
935.8320312	n/a	239573	largeHSmallH	correct	congruent	0.34375	no	H	H
936.1757812	n/a	239661	responseLargeH	correct	n/a	0.34375	no	n/a	n/a
937.2460938	n/a	239935	largeHSmallT	correct	incongruent	0.55469	no	H	T
937.8007812	n/a	240077	responseLargeH	correct	n/a	0.55469	no	n/a	n/a
938.8710938	n/a	240351	largeTSmallT	correct	congruent	0.41406	no	T	T
939.2851562	n/a	240457	responseLargeT	correct	n/a	0.41406	no	n/a	n/a
940.3632812	n/a	240733	largeTSmallT	correct	congruent	0.46875	no	T	T
940.8320312	n/a	240853	responseLargeT	correct	n/a	0.46875	no	n/a	n/a
941.8984375	n/a	241126	largeTSmallH	correct	incongruent	0.44141	no	T	H
942.3398438	n/a	241239	responseLargeT	correct	n/a	0.44141	no	n/a	n/a
943.4179688	n/a	241515	largeTSmallH	correct	incongruent	0.48047	no	T	H
943.8984375	n/a	241638	responseLargeT	correct	n/a	0.48047	no	n/a	n/a
944.9648438	n/a	241911	largeTSmallH	correct	incongruent	0.50781	no	T	H
945.4726562	n/a	242041	responseLargeT	correct	n/a	0.50781	no	n/a	n/a
946.5390625	n/a	242314	largeHSmallT	correct	incongruent	0.54297	no	H	T
947.0820312	n/a	242453	responseLargeH	correct	n/a	0.54297	no	n/a	n/a
948.1640625	n/a	242730	largeTSmallH	correct	incongruent	0.46484	no	T	H
948.6289062	n/a	242849	responseLargeT	correct	n/a	0.46484	no	n/a	n/a
949.7109375	n/a	243126	largeHSmallT	correct	incongruent	0.46875	no	H	T
950.1796875	n/a	243246	responseLargeH	correct	n/a	0.46875	no	n/a	n/a
951.2460938	n/a	243519	largeTSmallH	correct	incongruent	0.46875	no	T	H
951.7148438	n/a	243639	responseLargeT	correct	n/a	0.46875	no	n/a	n/a
952.8046875	n/a	243918	largeHSmallT	correct	incongruent	0.53906	no	H	T
953.34375	n/a	244056	responseLargeH	correct	n/a	0.53906	no	n/a	n/a
954.4179688	n/a	244331	largeTSmallT	correct	congruent	0.82422	no	T	T
955.2421875	n/a	244542	responseLargeT	correct	n/a	0.82422	no	n/a	n/a
956.3242188	n/a	244819	largeTSmallH	correct	incongruent	0.51953	no	T	H
956.84375	n/a	244952	responseLargeT	correct	n/a	0.51953	no	n/a	n/a
964.0859375	n/a	246806	largeTSmallH	correct	incongruent	0.5	no	T	H
964.5859375	n/a	246934	responseSmallH	correct	n/a	0.5	no	n/a	n/a
965.65625	n/a	247208	largeHSmallT	correct	incongruent	0.43359	no	H	T
966.0898438	n/a	247319	responseSmallT	correct	n/a	0.43359	no	n/a	n/a
967.1640625	n/a	247594	largeTSmallH	correct	incongruent	0.47656	no	T	H
967.640625	n/a	247716	responseSmallH	correct	n/a	0.47656	no	n/a	n/a
968.6992188	n/a	247987	largeTSmallT	correct	congruent	0.41406	no	T	T
969.1132812	n/a	248093	responseSmallT	correct	n/a	0.41406	no	n/a	n/a
970.1914062	n/a	248369	largeTSmallT	correct	congruent	0.41016	no	T	T
970.6015625	n/a	248474	responseSmallT	correct	n/a	0.41016	no	n/a	n/a
971.671875	n/a	248748	largeHSmallT	error	incongruent	0.45312	no	H	T
972.125	n/a	248864	responseSmallH	error	n/a	0.45312	no	n/a	n/a
973.203125	n/a	249140	largeHSmallH	correct	congruent	0.47656	no	H	H
973.6796875	n/a	249262	responseSmallH	correct	n/a	0.47656	no	n/a	n/a
974.765625	n/a	249540	largeTSmallT	correct	congruent	0.63281	no	T	T
975.3984375	n/a	249702	responseSmallT	correct	n/a	0.63281	no	n/a	n/a
976.4726562	n/a	249977	largeHSmallT	correct	incongruent	0.36328	no	H	T
976.8359375	n/a	250070	responseSmallT	correct	n/a	0.36328	no	n/a	n/a
977.9101562	n/a	250345	largeHSmallH	correct	congruent	0.49219	no	H	H
978.4023438	n/a	250471	responseSmallH	correct	n/a	0.49219	no	n/a	n/a
979.4726562	n/a	250745	largeTSmallH	correct	incongruent	0.48047	no	T	H
979.953125	n/a	250868	responseSmallH	correct	n/a	0.48047	no	n/a	n/a
981.03125	n/a	251144	largeTSmallT	correct	congruent	0.42969	no	T	T
981.4609375	n/a	251254	responseSmallT	correct	n/a	0.42969	no	n/a	n/a
982.5234375	n/a	251526	largeTSmallH	correct	incongruent	0.50391	no	T	H
983.0273438	n/a	251655	responseSmallH	correct	n/a	0.50391	no	n/a	n/a
984.0976562	n/a	251929	largeTSmallH	correct	incongruent	0.46484	no	T	H
984.5625	n/a	252048	responseSmallH	correct	n/a	0.46484	no	n/a	n/a
985.6289062	n/a	252321	largeHSmallT	correct	incongruent	0.49609	no	H	T
986.125	n/a	252448	responseSmallT	correct	n/a	0.49609	no	n/a	n/a
987.1914062	n/a	252721	largeTSmallH	correct	incongruent	0.41016	no	T	H
987.6015625	n/a	252826	responseSmallH	correct	n/a	0.41016	no	n/a	n/a
988.671875	n/a	253100	largeHSmallH	error	congruent	0.38672	no	H	H
989.0585938	n/a	253199	responseSmallT	error	n/a	0.38672	no	n/a	n/a
990.125	n/a	253472	largeHSmallT	correct	incongruent	0.47266	no	H	T
990.5976562	n/a	253593	responseSmallT	correct	n/a	0.47266	no	n/a	n/a
991.671875	n/a	253868	largeHSmallT	correct	incongruent	0.49219	no	H	T
992.1640625	n/a	253994	responseSmallT	correct	n/a	0.49219	no	n/a	n/a
993.2304688	n/a	254267	largeHSmallT	correct	incongruent	0.44531	no	H	T
993.6757812	n/a	254381	responseSmallT	correct	n/a	0.44531	no	n/a	n/a
994.7382812	n/a	254653	largeTSmallH	correct	incongruent	0.48828	no	T	H
995.2265625	n/a	254778	responseSmallH	correct	n/a	0.48828	no	n/a	n/a
996.3085938	n/a	255055	largeTSmallH	correct	incongruent	0.47266	no	T	H
996.78125	n/a	255176	responseSmallH	correct	n/a	0.47266	no	n/a	n/a
997.84375	n/a	255448	largeTSmallT	correct	congruent	0.47266	no	T	T
998.3164062	n/a	255569	responseSmallT	correct	n/a	0.47266	no	n/a	n/a
999.390625	n/a	255844	largeTSmallH	correct	incongruent	0.50781	no	T	H
999.8984375	n/a	255974	responseSmallH	correct	n/a	0.50781	no	n/a	n/a
1000.964844	n/a	256247	largeTSmallT	correct	congruent	0.51953	no	T	T
1001.484375	n/a	256380	responseSmallT	correct	n/a	0.51953	no	n/a	n/a
1002.5625	n/a	256656	largeTSmallT	correct	congruent	0.49219	no	T	T
1003.054688	n/a	256782	responseSmallT	correct	n/a	0.49219	no	n/a	n/a
1004.136719	n/a	257059	largeTSmallH	correct	incongruent	0.47656	no	T	H
1004.613281	n/a	257181	responseSmallH	correct	n/a	0.47656	no	n/a	n/a
1005.683594	n/a	257455	largeTSmallH	correct	incongruent	0.53906	no	T	H
1006.222656	n/a	257593	responseSmallH	correct	n/a	0.53906	no	n/a	n/a
1007.296875	n/a	257868	largeTSmallT	correct	congruent	0.625	no	T	T
1007.921875	n/a	258028	responseSmallT	correct	n/a	0.625	no	n/a	n/a
1009.003906	n/a	258305	largeTSmallH	correct	incongruent	0.46094	no	T	H
1009.464844	n/a	258423	responseSmallH	correct	n/a	0.46094	no	n/a	n/a
1010.550781	n/a	258701	largeHSmallT	correct	incongruent	0.50391	no	H	T
1011.054688	n/a	258830	responseSmallT	correct	n/a	0.50391	no	n/a	n/a
1012.125	n/a	259104	largeHSmallT	correct	incongruent	0.44922	no	H	T
1012.574219	n/a	259219	responseSmallT	correct	n/a	0.44922	no	n/a	n/a
1013.644531	n/a	259493	largeHSmallH	correct	congruent	0.47656	no	H	H
1014.121094	n/a	259615	responseSmallH	correct	n/a	0.47656	no	n/a	n/a
1015.191406	n/a	259889	largeTSmallT	correct	congruent	0.45703	no	T	T
1015.648438	n/a	260006	responseSmallT	correct	n/a	0.45703	no	n/a	n/a
1016.722656	n/a	260281	largeTSmallH	correct	incongruent	0.54688	no	T	H
1017.269531	n/a	260421	responseSmallH	correct	n/a	0.54688	no	n/a	n/a
1018.351562	n/a	260698	largeTSmallH	correct	incongruent	0.50391	no	T	H
1018.855469	n/a	260827	responseSmallH	correct	n/a	0.50391	no	n/a	n/a
1019.921875	n/a	261100	largeHSmallT	correct	incongruent	0.51953	no	H	T
1020.441406	n/a	261233	responseSmallT	correct	n/a	0.51953	no	n/a	n/a
1021.507812	n/a	261506	largeHSmallT	correct	incongruent	0.45703	no	H	T
1021.964844	n/a	261623	responseSmallT	correct	n/a	0.45703	no	n/a	n/a
1023.042969	n/a	261899	largeTSmallH	correct	incongruent	0.48828	no	T	H
1023.53125	n/a	262024	responseSmallH	correct	n/a	0.48828	no	n/a	n/a
1024.601562	n/a	262298	largeTSmallT	correct	congruent	0.48438	no	T	T
1025.085938	n/a	262422	responseSmallT	correct	n/a	0.48438	no	n/a	n/a
1026.164062	n/a	262698	largeTSmallH	correct	incongruent	0.46484	no	T	H
1026.628906	n/a	262817	responseSmallH	correct	n/a	0.46484	no	n/a	n/a
1027.710938	n/a	263094	largeTSmallH	correct	incongruent	0.52344	no	T	H
1028.234375	n/a	263228	responseSmallH	correct	n/a	0.52344	no	n/a	n/a
1029.308594	n/a	263503	largeHSmallT	correct	incongruent	0.52344	no	H	T
1029.832031	n/a	263637	responseSmallT	correct	n/a	0.52344	no	n/a	n/a
1030.894531	n/a	263909	largeHSmallH	correct	congruent	0.53906	no	H	H
1031.433594	n/a	264047	responseSmallH	correct	n/a	0.53906	no	n/a	n/a
1032.507812	n/a	264322	largeTSmallH	correct	incongruent	0.625	no	T	H
1033.132812	n/a	264482	responseSmallH	correct	n/a	0.625	no	n/a	n/a
1034.214844	n/a	264759	largeHSmallH	correct	congruent	0.52344	no	H	H
1034.738281	n/a	264893	responseSmallH	correct	n/a	0.52344	no	n/a	n/a
1035.800781	n/a	265165	largeHSmallH	correct	congruent	0.44922	no	H	H
1036.25	n/a	265280	responseSmallH	correct	n/a	0.44922	no	n/a	n/a
1037.308594	n/a	265551	largeTSmallT	correct	congruent	0.54297	no	T	T
1037.851562	n/a	265690	responseSmallT	correct	n/a	0.54297	no	n/a	n/a
1038.921875	n/a	265964	largeTSmallH	correct	incongruent	0.54297	no	T	H
1039.464844	n/a	266103	responseSmallH	correct	n/a	0.54297	no	n/a	n/a
1040.550781	n/a	266381	largeHSmallH	correct	congruent	0.51953	no	H	H
1041.070312	n/a	266514	responseSmallH	correct	n/a	0.51953	no	n/a	n/a
1042.136719	n/a	266787	largeHSmallH	correct	congruent	0.46875	no	H	H
1042.605469	n/a	266907	responseSmallH	correct	n/a	0.46875	no	n/a	n/a
1043.683594	n/a	267183	largeTSmallT	correct	congruent	0.42969	no	T	T
1044.113281	n/a	267293	responseSmallT	correct	n/a	0.42969	no	n/a	n/a
1045.175781	n/a	267565	largeTSmallH	correct	incongruent	0.49219	no	T	H
1045.667969	n/a	267691	responseSmallH	correct	n/a	0.49219	no	n/a	n/a
1046.734375	n/a	267964	largeHSmallH	correct	congruent	0.54688	no	H	H
1047.28125	n/a	268104	responseSmallH	correct	n/a	0.54688	no	n/a	n/a
1048.347656	n/a	268377	largeHSmallT	correct	incongruent	0.67188	no	H	T
1049.019531	n/a	268549	responseSmallT	correct	n/a	0.67188	no	n/a	n/a
1050.09375	n/a	268824	largeHSmallH	correct	congruent	0.46484	no	H	H
1050.558594	n/a	268943	responseSmallH	correct	n/a	0.46484	no	n/a	n/a
1051.628906	n/a	269217	largeHSmallT	correct	incongruent	0.60938	no	H	T
1052.238281	n/a	269373	responseSmallT	correct	n/a	0.60938	no	n/a	n/a
1053.308594	n/a	269647	largeTSmallT	correct	congruent	0.49609	no	T	T
1053.804688	n/a	269774	responseSmallT	correct	n/a	0.49609	no	n/a	n/a
1054.882812	n/a	270050	largeTSmallH	correct	incongruent	0.55469	no	T	H
1055.4375	n/a	270192	responseSmallH	correct	n/a	0.55469	no	n/a	n/a
1056.507812	n/a	270466	largeTSmallT	correct	congruent	0.46875	no	T	T
1056.976562	n/a	270586	responseSmallT	correct	n/a	0.46875	no	n/a	n/a
1058.042969	n/a	270859	largeTSmallT	correct	congruent	0.43359	no	T	T
1058.476562	n/a	270970	responseSmallT	correct	n/a	0.43359	no	n/a	n/a
1059.546875	n/a	271244	largeTSmallT	correct	congruent	0.47656	no	T	T
1060.023438	n/a	271366	responseSmallT	correct	n/a	0.47656	no	n/a	n/a
1061.082031	n/a	271637	largeHSmallH	correct	congruent	0.57422	no	H	H
1061.65625	n/a	271784	responseSmallH	correct	n/a	0.57422	no	n/a	n/a
1062.722656	n/a	272057	largeHSmallT	correct	incongruent	0.44531	no	H	T
1063.167969	n/a	272171	responseSmallT	correct	n/a	0.44531	no	n/a	n/a
1064.242188	n/a	272446	largeHSmallT	correct	incongruent	0.41797	no	H	T
1064.660156	n/a	272553	responseSmallT	correct	n/a	0.41797	no	n/a	n/a
1065.722656	n/a	272825	largeTSmallT	correct	congruent	0.37891	no	T	T
1066.101562	n/a	272922	responseSmallT	correct	n/a	0.37891	no	n/a	n/a
1067.175781	n/a	273197	largeHSmallH	correct	congruent	0.50391	no	H	H
1067.679688	n/a	273326	responseSmallH	correct	n/a	0.50391	no	n/a	n/a
1068.75	n/a	273600	largeTSmallH	correct	incongruent	0.44922	no	T	H
1069.199219	n/a	273715	responseSmallH	correct	n/a	0.44922	no	n/a	n/a
1070.28125	n/a	273992	largeTSmallT	error	congruent	0.39062	no	T	T
1070.671875	n/a	274092	responseSmallH	error	n/a	0.39062	no	n/a	n/a
1071.746094	n/a	274367	largeTSmallT	correct	congruent	0.43359	no	T	T
1072.179688	n/a	274478	responseSmallT	correct	n/a	0.43359	no	n/a	n/a
1073.253906	n/a	274753	largeHSmallT	correct	incongruent	0.48828	no	H	T
1073.742188	n/a	274878	responseSmallT	correct	n/a	0.48828	no	n/a	n/a
1074.816406	n/a	275153	largeTSmallH	correct	incongruent	0.67969	no	T	H
1075.496094	n/a	275327	responseSmallH	correct	n/a	0.67969	no	n/a	n/a
1076.5625	n/a	275600	largeTSmallT	correct	congruent	0.45703	no	T	T
1077.019531	n/a	275717	responseSmallT	correct	n/a	0.45703	no	n/a	n/a
1078.09375	n/a	275992	largeHSmallT	correct	incongruent	0.55469	no	H	T
1078.648438	n/a	276134	responseSmallT	correct	n/a	0.55469	no	n/a	n/a
1079.722656	n/a	276409	largeTSmallH	correct	incongruent	0.48438	no	T	H
1080.207031	n/a	276533	responseSmallH	correct	n/a	0.48438	no	n/a	n/a
1081.28125	n/a	276808	largeHSmallT	correct	incongruent	0.46484	no	H	T
1081.746094	n/a	276927	responseSmallT	correct	n/a	0.46484	no	n/a	n/a
1082.816406	n/a	277201	largeTSmallT	correct	congruent	0.40625	no	T	T
1083.222656	n/a	277305	responseSmallT	correct	n/a	0.40625	no	n/a	n/a
1084.308594	n/a	277583	largeHSmallT	correct	incongruent	0.375	no	H	T
1084.683594	n/a	277679	responseSmallT	correct	n/a	0.375	no	n/a	n/a
1085.746094	n/a	277951	largeHSmallH	correct	congruent	0.42578	no	H	H
1086.171875	n/a	278060	responseSmallH	correct	n/a	0.42578	no	n/a	n/a
1087.226562	n/a	278330	largeHSmallH	correct	congruent	0.49609	no	H	H
1087.722656	n/a	278457	responseSmallH	correct	n/a	0.49609	no	n/a	n/a
1088.789062	n/a	278730	largeHSmallT	correct	incongruent	0.60156	no	H	T
1089.390625	n/a	278884	responseSmallT	correct	n/a	0.60156	no	n/a	n/a
1090.46875	n/a	279160	largeHSmallT	correct	incongruent	0.47266	no	H	T
1090.941406	n/a	279281	responseSmallT	correct	n/a	0.47266	no	n/a	n/a
1092.015625	n/a	279556	largeTSmallT	correct	congruent	0.39844	no	T	T
1092.414062	n/a	279658	responseSmallT	correct	n/a	0.39844	no	n/a	n/a
1093.496094	n/a	279935	largeHSmallH	correct	congruent	0.54688	no	H	H
1094.042969	n/a	280075	responseSmallH	correct	n/a	0.54688	no	n/a	n/a
1095.109375	n/a	280348	largeTSmallT	correct	congruent	0.42969	no	T	T
1095.539062	n/a	280458	responseSmallT	correct	n/a	0.42969	no	n/a	n/a
1096.613281	n/a	280733	largeHSmallH	correct	congruent	0.50391	no	H	H
1097.117188	n/a	280862	responseSmallH	correct	n/a	0.50391	no	n/a	n/a
1098.1875	n/a	281136	largeHSmallH	correct	congruent	0.49219	no	H	H
1098.679688	n/a	281262	responseSmallH	correct	n/a	0.49219	no	n/a	n/a
1099.746094	n/a	281535	largeHSmallH	correct	congruent	0.46094	no	H	H
1100.207031	n/a	281653	responseSmallH	correct	n/a	0.46094	no	n/a	n/a
1101.28125	n/a	281928	largeTSmallH	correct	incongruent	0.44922	no	T	H
1101.730469	n/a	282043	responseSmallH	correct	n/a	0.44922	no	n/a	n/a
1102.800781	n/a	282317	largeHSmallH	correct	congruent	0.44141	no	H	H
1103.242188	n/a	282430	responseSmallH	correct	n/a	0.44141	no	n/a	n/a
1104.320312	n/a	282706	largeTSmallH	correct	incongruent	0.44141	no	T	H
1104.761719	n/a	282819	responseSmallH	correct	n/a	0.44141	no	n/a	n/a
1105.828125	n/a	283092	largeHSmallT	correct	incongruent	0.53906	no	H	T
1106.367188	n/a	283230	responseSmallT	correct	n/a	0.53906	no	n/a	n/a
1107.441406	n/a	283505	largeHSmallT	correct	incongruent	0.50781	no	H	T
1107.949219	n/a	283635	responseSmallT	correct	n/a	0.50781	no	n/a	n/a
1109.027344	n/a	283911	largeHSmallH	correct	congruent	0.50391	no	H	H
1109.53125	n/a	284040	responseSmallH	correct	n/a	0.50391	no	n/a	n/a
1110.601562	n/a	284314	largeTSmallT	correct	congruent	0.49609	no	T	T
1111.097656	n/a	284441	responseSmallT	correct	n/a	0.49609	no	n/a	n/a
1112.160156	n/a	284713	largeHSmallT	correct	incongruent	0.50391	no	H	T
1112.664062	n/a	284842	responseSmallT	correct	n/a	0.50391	no	n/a	n/a
1113.746094	n/a	285119	largeHSmallH	correct	congruent	0.53516	no	H	H
1114.28125	n/a	285256	responseSmallH	correct	n/a	0.53516	no	n/a	n/a
1115.347656	n/a	285529	largeHSmallH	correct	congruent	0.55469	no	H	H
1115.902344	n/a	285671	responseSmallH	correct	n/a	0.55469	no	n/a	n/a
1116.972656	n/a	285945	largeHSmallT	correct	incongruent	0.57422	no	H	T
1117.546875	n/a	286092	responseSmallT	correct	n/a	0.57422	no	n/a	n/a
1118.628906	n/a	286369	largeHSmallH	correct	congruent	0.58203	no	H	H
1119.210938	n/a	286518	responseSmallH	correct	n/a	0.58203	no	n/a	n/a
1120.28125	n/a	286792	largeHSmallH	correct	congruent	0.48828	no	H	H
1120.769531	n/a	286917	responseSmallH	correct	n/a	0.48828	no	n/a	n/a
1121.839844	n/a	287191	largeTSmallH	correct	incongruent	0.44141	no	T	H
1122.28125	n/a	287304	responseSmallH	correct	n/a	0.44141	no	n/a	n/a
1123.347656	n/a	287577	largeTSmallH	correct	incongruent	0.53516	no	T	H
1123.882812	n/a	287714	responseSmallH	correct	n/a	0.53516	no	n/a	n/a
1124.960938	n/a	287990	largeTSmallH	correct	incongruent	0.38281	no	T	H
1125.34375	n/a	288088	responseSmallH	correct	n/a	0.38281	no	n/a	n/a
1126.425781	n/a	288365	largeHSmallH	correct	congruent	0.45312	no	H	H
1126.878906	n/a	288481	responseSmallH	correct	n/a	0.45312	no	n/a	n/a
1127.945312	n/a	288754	largeTSmallH	correct	incongruent	0.38672	no	T	H
1128.332031	n/a	288853	responseSmallH	correct	n/a	0.38672	no	n/a	n/a
1129.398438	n/a	289126	largeTSmallT	correct	congruent	0.57422	no	T	T
1129.972656	n/a	289273	responseSmallT	correct	n/a	0.57422	no	n/a	n/a
1131.039062	n/a	289546	largeHSmallT	correct	incongruent	0.46094	no	H	T
1131.5	n/a	289664	responseSmallT	correct	n/a	0.46094	no	n/a	n/a
1132.574219	n/a	289939	largeTSmallH	correct	incongruent	0.40625	no	T	H
1132.980469	n/a	290043	responseSmallH	correct	n/a	0.40625	no	n/a	n/a
1134.054688	n/a	290318	largeTSmallH	correct	incongruent	0.375	no	T	H
1134.429688	n/a	290414	responseSmallH	correct	n/a	0.375	no	n/a	n/a
1135.507812	n/a	290690	largeTSmallT	error	congruent	0.36328	no	T	T
1135.871094	n/a	290783	responseSmallH	error	n/a	0.36328	no	n/a	n/a
1136.933594	n/a	291055	largeTSmallT	correct	congruent	0.4375	no	T	T
1137.371094	n/a	291167	responseSmallT	correct	n/a	0.4375	no	n/a	n/a
1138.441406	n/a	291441	largeHSmallH	correct	congruent	0.46875	no	H	H
1138.910156	n/a	291561	responseSmallH	correct	n/a	0.46875	no	n/a	n/a
1139.972656	n/a	291833	largeHSmallT	correct	incongruent	0.47266	no	H	T
1140.445312	n/a	291954	responseSmallT	correct	n/a	0.47266	no	n/a	n/a
1141.519531	n/a	292229	largeTSmallT	correct	congruent	0.45703	no	T	T
1141.976562	n/a	292346	responseSmallT	correct	n/a	0.45703	no	n/a	n/a
1143.054688	n/a	292622	largeHSmallH	correct	congruent	0.48438	no	H	H
1143.539062	n/a	292746	responseSmallH	correct	n/a	0.48438	no	n/a	n/a
1144.613281	n/a	293021	largeHSmallH	correct	congruent	0.48047	no	H	H
1145.09375	n/a	293144	responseSmallH	correct	n/a	0.48047	no	n/a	n/a
1146.160156	n/a	293417	largeTSmallH	correct	incongruent	0.44922	no	T	H
1146.609375	n/a	293532	responseSmallH	correct	n/a	0.44922	no	n/a	n/a
1147.679688	n/a	293806	largeHSmallT	correct	incongruent	0.54688	no	H	T
1148.226562	n/a	293946	responseSmallT	correct	n/a	0.54688	no	n/a	n/a
1149.292969	n/a	294219	largeHSmallT	correct	incongruent	0.42188	no	H	T
1149.714844	n/a	294327	responseSmallT	correct	n/a	0.42188	no	n/a	n/a
1150.785156	n/a	294601	largeHSmallT	correct	incongruent	0.41797	no	H	T
1151.203125	n/a	294708	responseSmallT	correct	n/a	0.41797	no	n/a	n/a
1152.28125	n/a	294984	largeHSmallT	correct	incongruent	0.48047	no	H	T
1152.761719	n/a	295107	responseSmallT	correct	n/a	0.48047	no	n/a	n/a
1153.828125	n/a	295380	largeHSmallT	correct	incongruent	0.42578	no	H	T
1154.253906	n/a	295489	responseSmallT	correct	n/a	0.42578	no	n/a	n/a
1155.332031	n/a	295765	largeTSmallH	correct	incongruent	0.75391	no	T	H
1156.085938	n/a	295958	responseSmallH	correct	n/a	0.75391	no	n/a	n/a
1157.160156	n/a	296233	largeTSmallH	correct	incongruent	0.44141	no	T	H
1157.601562	n/a	296346	responseSmallH	correct	n/a	0.44141	no	n/a	n/a
1158.664062	n/a	296618	largeHSmallT	error	incongruent	0.47656	no	H	T
1159.140625	n/a	296740	responseSmallH	error	n/a	0.47656	no	n/a	n/a
1160.210938	n/a	297014	largeTSmallT	correct	congruent	0.39844	no	T	T
1160.609375	n/a	297116	responseSmallT	correct	n/a	0.39844	no	n/a	n/a
1161.679688	n/a	297390	largeHSmallH	correct	congruent	0.50391	no	H	H
1162.183594	n/a	297519	responseSmallH	correct	n/a	0.50391	no	n/a	n/a
1163.253906	n/a	297793	largeTSmallH	correct	incongruent	0.5	no	T	H
1163.753906	n/a	297921	responseSmallH	correct	n/a	0.5	no	n/a	n/a
