onset	duration	sample	value	stimulus	response_type	response_time
16.10546875	n/a	4123	C	nontarget	n/a	n/a
17.6875	n/a	4528	B	nontarget	n/a	n/a
19.26171875	n/a	4931	D	nontarget	n/a	n/a
20.83203125	n/a	5333	C	target	hit	464.8438
21.296875	n/a	5452	rt	n/a	hit	464.8438
22.40625	n/a	5736	B	target	hit	472.6562
22.87890625	n/a	5857	rt	n/a	hit	472.6562
23.984375	n/a	6140	B	nontarget	n/a	n/a
25.5546875	n/a	6542	D	nontarget	n/a	n/a
27.1171875	n/a	6942	B	target	hit	1437.5
28.5546875	n/a	7310	rt	n/a	hit	1437.5
28.69921875	n/a	7347	B	target	hit	78.125
28.77734375	n/a	7367	rt	n/a	hit	78.125
30.27734375	n/a	7751	D	target	hit	644.5312
30.921875	n/a	7916	rt	n/a	hit	644.5312
31.8515625	n/a	8154	D	nontarget	n/a	n/a
33.421875	n/a	8556	B	target	hit	621.0938
34.04296875	n/a	8715	rt	n/a	hit	621.0938
34.99609375	n/a	8959	B	nontarget	n/a	n/a
36.58203125	n/a	9365	C	nontarget	n/a	n/a
38.15625	n/a	9768	C	nontarget	n/a	n/a
39.73046875	n/a	10171	D	nontarget	n/a	n/a
41.30078125	n/a	10573	D	nontarget	n/a	n/a
42.875	n/a	10976	D	nontarget	n/a	n/a
44.44921875	n/a	11379	C	nontarget	n/a	n/a
46.03515625	n/a	11785	A	nontarget	n/a	n/a
47.61328125	n/a	12189	D	target	hit	726.5625
48.33984375	n/a	12375	rt	n/a	hit	726.5625
49.1796875	n/a	12590	B	nontarget	n/a	n/a
50.75390625	n/a	12993	C	nontarget	n/a	n/a
52.328125	n/a	13396	C	nontarget	n/a	n/a
53.90234375	n/a	13799	A	nontarget	n/a	n/a
55.47265625	n/a	14201	B	nontarget	n/a	n/a
57.05078125	n/a	14605	A	nontarget	n/a	n/a
58.62109375	n/a	15007	D	nontarget	n/a	n/a
60.1953125	n/a	15410	C	nontarget	n/a	n/a
61.76953125	n/a	15813	A	target	miss	n/a
63.33984375	n/a	16215	B	nontarget	miss	n/a
64.9296875	n/a	16622	D	nontarget	n/a	n/a
66.5	n/a	17024	C	nontarget	n/a	n/a
68.07421875	n/a	17427	D	nontarget	n/a	n/a
69.6484375	n/a	17830	B	nontarget	n/a	n/a
71.21875	n/a	18232	A	nontarget	n/a	n/a
72.79296875	n/a	18635	A	nontarget	n/a	n/a
74.37890625	n/a	19041	B	target	hit	496.0938
74.875	n/a	19168	rt	n/a	hit	496.0938
75.953125	n/a	19444	C	nontarget	n/a	n/a
77.52734375	n/a	19847	D	nontarget	n/a	n/a
79.1015625	n/a	20250	D	nontarget	n/a	n/a
80.67578125	n/a	20653	C	target	hit	550.7812
81.2265625	n/a	20794	rt	n/a	hit	550.7812
82.25	n/a	21056	B	nontarget	n/a	n/a
83.83203125	n/a	21461	D	target	hit	441.4062
84.2734375	n/a	21574	rt	n/a	hit	441.4062
85.41015625	n/a	21865	C	target	hit	593.75
86.00390625	n/a	22017	rt	n/a	hit	593.75
86.98046875	n/a	22267	A	nontarget	n/a	n/a
88.5546875	n/a	22670	B	nontarget	n/a	n/a
90.12890625	n/a	23073	B	nontarget	n/a	n/a
91.69921875	n/a	23475	D	nontarget	n/a	n/a
93.2734375	n/a	23878	B	target	miss	n/a
94.84765625	n/a	24281	D	nontarget	miss	n/a
96.41796875	n/a	24683	D	target	hit	703.125
97.12109375	n/a	24863	rt	n/a	hit	703.125
97.99609375	n/a	25087	C	nontarget	n/a	n/a
99.56640625	n/a	25489	B	nontarget	n/a	n/a
101.140625	n/a	25892	B	nontarget	n/a	n/a
102.7148438	n/a	26295	B	nontarget	n/a	n/a
104.3007812	n/a	26701	C	nontarget	n/a	n/a
105.875	n/a	27104	D	nontarget	n/a	n/a
107.4492188	n/a	27507	B	target	hit	710.9375
108.1601562	n/a	27689	rt	n/a	hit	710.9375
109.0195312	n/a	27909	C	target	hit	816.4062
109.8359375	n/a	28118	rt	n/a	hit	816.4062
110.59375	n/a	28312	C	nontarget	n/a	n/a
112.1796875	n/a	28718	D	nontarget	n/a	n/a
113.7539062	n/a	29121	D	nontarget	n/a	n/a
115.328125	n/a	29524	B	nontarget	n/a	n/a
116.8984375	n/a	29926	B	nontarget	n/a	n/a
118.4726562	n/a	30329	D	target	hit	1222.6562
119.6953125	n/a	30642	rt	n/a	hit	1222.6562
120.046875	n/a	30732	D	nontarget	n/a	n/a
121.6328125	n/a	31138	B	target	hit	558.5938
122.1914062	n/a	31281	rt	n/a	hit	558.5938
123.2109375	n/a	31542	C	nontarget	n/a	n/a
124.7773438	n/a	31943	B	nontarget	n/a	n/a
126.3554688	n/a	32347	C	nontarget	n/a	n/a
127.9257812	n/a	32749	C	target	hit	964.8438
128.890625	n/a	32996	rt	n/a	hit	964.8438
129.5	n/a	33152	C	nontarget	n/a	n/a
131.0703125	n/a	33554	D	nontarget	n/a	n/a
132.6484375	n/a	33958	B	nontarget	n/a	n/a
134.21875	n/a	34360	C	target	miss	n/a
135.7929688	n/a	34763	C	nontarget	miss	n/a
137.3671875	n/a	35166	D	nontarget	n/a	n/a
138.9375	n/a	35568	B	nontarget	n/a	n/a
140.5273438	n/a	35975	D	nontarget	n/a	n/a
142.1015625	n/a	36378	B	nontarget	n/a	n/a
143.671875	n/a	36780	D	nontarget	n/a	n/a
145.25	n/a	37184	A	nontarget	n/a	n/a
146.8164062	n/a	37585	B	target	miss	n/a
148.3945312	n/a	37989	D	target	hit	613.2812
149.0078125	n/a	38146	rt	n/a	hit	613.2812
149.9765625	n/a	38394	A	target	hit	562.5
150.5390625	n/a	38538	rt	n/a	hit	562.5
151.5546875	n/a	38798	D	nontarget	n/a	n/a
153.125	n/a	39200	A	nontarget	n/a	n/a
154.6992188	n/a	39603	D	nontarget	n/a	n/a
156.2734375	n/a	40006	A	nontarget	n/a	n/a
157.8476562	n/a	40409	D	nontarget	n/a	n/a
159.4296875	n/a	40814	B	nontarget	n/a	n/a
161.0078125	n/a	41218	C	nontarget	n/a	n/a
162.578125	n/a	41620	A	nontarget	n/a	n/a
164.1523438	n/a	42023	D	nontarget	n/a	n/a
165.7265625	n/a	42426	C	target	miss	n/a
167.296875	n/a	42828	B	nontarget	miss	n/a
168.859375	n/a	43228	C	nontarget	n/a	n/a
170.4453125	n/a	43634	D	nontarget	n/a	n/a
172.0195312	n/a	44037	B	target	miss	n/a
173.5898438	n/a	44439	B	nontarget	miss	n/a
175.1679688	n/a	44843	C	nontarget	n/a	n/a
176.7382812	n/a	45245	A	nontarget	n/a	n/a
178.3125	n/a	45648	B	target	hit	636.7188
178.9492188	n/a	45811	rt	n/a	hit	636.7188
179.8984375	n/a	46054	C	target	hit	828.125
180.7265625	n/a	46266	rt	n/a	hit	828.125
181.4726562	n/a	46457	D	nontarget	n/a	n/a
183.046875	n/a	46860	D	nontarget	n/a	n/a
184.6171875	n/a	47262	A	nontarget	n/a	n/a
186.1914062	n/a	47665	C	nontarget	n/a	n/a
187.7773438	n/a	48071	C	nontarget	n/a	n/a
189.3398438	n/a	48471	B	nontarget	n/a	n/a
190.9101562	n/a	48873	D	nontarget	n/a	n/a
192.4882812	n/a	49277	A	nontarget	n/a	n/a
194.0585938	n/a	49679	D	nontarget	n/a	n/a
195.6328125	n/a	50082	A	nontarget	n/a	n/a
197.2070312	n/a	50485	B	nontarget	n/a	n/a
198.7890625	n/a	50890	D	target	hit	531.25
199.3203125	n/a	51026	rt	n/a	hit	531.25
200.3671875	n/a	51294	D	nontarget	n/a	n/a
201.9375	n/a	51696	C	nontarget	n/a	n/a
203.5117188	n/a	52099	B	nontarget	n/a	n/a
205.0859375	n/a	52502	C	nontarget	n/a	n/a
206.65625	n/a	52904	C	target	hit	609.375
207.265625	n/a	53060	rt	n/a	hit	609.375
208.21875	n/a	53304	C	nontarget	n/a	n/a
209.8046875	n/a	53710	A	nontarget	n/a	n/a
211.3789062	n/a	54113	B	nontarget	n/a	n/a
212.9492188	n/a	54515	D	nontarget	n/a	n/a
214.5273438	n/a	54919	D	nontarget	n/a	n/a
216.0976562	n/a	55321	A	nontarget	n/a	n/a
217.671875	n/a	55724	A	nontarget	n/a	n/a
219.2578125	n/a	56130	D	target	hit	769.5312
220.0273438	n/a	56327	rt	n/a	hit	769.5312
220.8320312	n/a	56533	A	target	hit	625
221.4570312	n/a	56693	rt	n/a	hit	625
222.40625	n/a	56936	D	nontarget	n/a	n/a
223.9765625	n/a	57338	C	nontarget	n/a	n/a
225.5507812	n/a	57741	A	target	hit	933.5938
226.484375	n/a	57980	rt	n/a	hit	933.5938
227.125	n/a	58144	D	target	hit	906.25
228.03125	n/a	58376	rt	n/a	hit	906.25
228.7109375	n/a	58550	B	nontarget	n/a	n/a
230.2851562	n/a	58953	D	nontarget	n/a	n/a
231.8554688	n/a	59355	C	nontarget	n/a	n/a
233.4296875	n/a	59758	A	nontarget	n/a	n/a
235.0039062	n/a	60161	A	nontarget	n/a	n/a
236.5898438	n/a	60567	B	nontarget	n/a	n/a
238.1679688	n/a	60971	C	nontarget	n/a	n/a
239.734375	n/a	61372	D	nontarget	n/a	n/a
241.3125	n/a	61776	D	nontarget	n/a	n/a
242.8828125	n/a	62178	D	nontarget	n/a	n/a
244.4570312	n/a	62581	B	nontarget	n/a	n/a
246.0429688	n/a	62987	B	nontarget	n/a	n/a
247.6171875	n/a	63390	C	nontarget	n/a	n/a
249.1875	n/a	63792	A	nontarget	n/a	n/a
250.765625	n/a	64196	C	nontarget	n/a	n/a
252.3359375	n/a	64598	A	nontarget	n/a	n/a
253.921875	n/a	65004	D	nontarget	n/a	n/a
255.4960938	n/a	65407	B	nontarget	n/a	n/a
257.0703125	n/a	65810	C	nontarget	n/a	n/a
258.6445312	n/a	66213	C	nontarget	n/a	n/a
260.2148438	n/a	66615	D	nontarget	n/a	n/a
261.7890625	n/a	67018	A	nontarget	n/a	n/a
263.3632812	n/a	67421	B	nontarget	n/a	n/a
264.9492188	n/a	67827	D	target	miss	n/a
266.5273438	n/a	68231	A	target	hit	667.9688
267.1953125	n/a	68402	rt	n/a	hit	667.9688
268.09375	n/a	68632	A	nontarget	n/a	n/a
269.671875	n/a	69036	D	target	hit	535.1562
270.2070312	n/a	69173	rt	n/a	hit	535.1562
271.2421875	n/a	69438	D	nontarget	n/a	n/a
272.828125	n/a	69844	D	nontarget	n/a	n/a
274.40625	n/a	70248	C	nontarget	n/a	n/a
275.9765625	n/a	70650	C	nontarget	n/a	n/a
277.5507812	n/a	71053	B	nontarget	n/a	n/a
279.125	n/a	71456	D	nontarget	n/a	n/a
280.6953125	n/a	71858	D	nontarget	n/a	n/a
282.2578125	n/a	72258	D	nontarget	n/a	n/a
283.8398438	n/a	72663	D	target	miss	n/a
285.4179688	n/a	73067	A	nontarget	miss	n/a
286.9882812	n/a	73469	C	nontarget	n/a	n/a
288.5664062	n/a	73873	B	nontarget	n/a	n/a
290.1328125	n/a	74274	D	nontarget	n/a	n/a
291.7226562	n/a	74681	C	target	hit	1507.8125
293.2304688	n/a	75067	rt	n/a	hit	1507.8125
293.3007812	n/a	75085	A	nontarget	false_alarm	70.3125
293.3710938	n/a	75103	rt	n/a	false_alarm	70.3125
294.8710938	n/a	75487	C	nontarget	n/a	n/a
296.4414062	n/a	75889	C	target	hit	925.7812
297.3671875	n/a	76126	rt	n/a	hit	925.7812
298.015625	n/a	76292	A	target	hit	691.4062
298.7070312	n/a	76469	rt	n/a	hit	691.4062
299.5898438	n/a	76695	C	target	hit	1023.4375
300.6132812	n/a	76957	rt	n/a	hit	1023.4375
301.1757812	n/a	77101	A	nontarget	n/a	n/a
302.75	n/a	77504	C	nontarget	n/a	n/a
304.3242188	n/a	77907	A	nontarget	false_alarm	800.7812
305.125	n/a	78112	rt	n/a	false_alarm	800.7812
305.8945312	n/a	78309	A	target	hit	812.5
306.7070312	n/a	78517	rt	n/a	hit	812.5
307.46875	n/a	78712	C	target	hit	671.875
308.140625	n/a	78884	rt	n/a	hit	671.875
309.0429688	n/a	79115	D	nontarget	n/a	n/a
310.6289062	n/a	79521	C	nontarget	n/a	n/a
312.203125	n/a	79924	B	nontarget	n/a	n/a
313.7734375	n/a	80326	A	nontarget	n/a	n/a
315.3476562	n/a	80729	A	nontarget	n/a	n/a
316.921875	n/a	81132	B	target	miss	n/a
318.4921875	n/a	81534	C	nontarget	miss	n/a
320.0664062	n/a	81937	D	nontarget	n/a	n/a
321.6289062	n/a	82337	B	target	hit	679.6875
322.3085938	n/a	82511	rt	n/a	hit	679.6875
323.203125	n/a	82740	B	nontarget	n/a	n/a
324.7734375	n/a	83142	B	nontarget	n/a	n/a
326.3476562	n/a	83545	A	nontarget	n/a	n/a
327.921875	n/a	83948	B	target	hit	890.625
328.8125	n/a	84176	rt	n/a	hit	890.625
329.4921875	n/a	84350	A	nontarget	n/a	n/a
331.0703125	n/a	84754	C	nontarget	n/a	n/a
332.6523438	n/a	85159	B	target	miss	n/a
334.2304688	n/a	85563	B	nontarget	miss	n/a
335.8007812	n/a	85965	B	nontarget	n/a	n/a
337.375	n/a	86368	B	target	hit	519.5312
337.8945312	n/a	86501	rt	n/a	hit	519.5312
338.9492188	n/a	86771	C	nontarget	n/a	n/a
340.5234375	n/a	87174	A	nontarget	n/a	n/a
342.1054688	n/a	87579	C	nontarget	n/a	n/a
343.6835938	n/a	87983	A	nontarget	n/a	n/a
345.2539062	n/a	88385	B	nontarget	n/a	n/a
346.828125	n/a	88788	A	nontarget	n/a	n/a
348.4023438	n/a	89191	C	nontarget	n/a	n/a
349.9726562	n/a	89593	C	nontarget	n/a	n/a
351.546875	n/a	89996	D	nontarget	n/a	n/a
353.1210938	n/a	90399	C	target	hit	625
353.7460938	n/a	90559	rt	n/a	hit	625
354.6914062	n/a	90801	A	nontarget	n/a	n/a
356.2695312	n/a	91205	B	nontarget	n/a	n/a
357.8398438	n/a	91607	C	target	hit	765.625
358.6054688	n/a	91803	rt	n/a	hit	765.625
359.4140625	n/a	92010	D	nontarget	n/a	n/a
360.984375	n/a	92412	D	nontarget	n/a	n/a
362.5625	n/a	92816	B	nontarget	n/a	n/a
364.1328125	n/a	93218	A	nontarget	n/a	n/a
365.7070312	n/a	93621	D	target	hit	718.75
366.4257812	n/a	93805	rt	n/a	hit	718.75
367.28125	n/a	94024	C	nontarget	n/a	n/a
368.8515625	n/a	94426	D	nontarget	n/a	n/a
370.4375	n/a	94832	C	nontarget	n/a	n/a
372.015625	n/a	95236	D	nontarget	n/a	n/a
373.5859375	n/a	95638	A	nontarget	n/a	n/a
375.1601562	n/a	96041	A	nontarget	n/a	n/a
376.7304688	n/a	96443	B	nontarget	n/a	n/a
378.3085938	n/a	96847	B	nontarget	n/a	n/a
379.890625	n/a	97252	B	nontarget	n/a	n/a
381.46875	n/a	97656	B	target	hit	468.75
381.9375	n/a	97776	rt	n/a	hit	468.75
383.0390625	n/a	98058	A	nontarget	n/a	n/a
384.6132812	n/a	98461	C	nontarget	n/a	n/a
386.1875	n/a	98864	B	target	hit	1421.875
387.609375	n/a	99228	rt	n/a	hit	1421.875
387.7617188	n/a	99267	B	nontarget	false_alarm	82.0312
387.84375	n/a	99288	rt	n/a	false_alarm	82.0312
389.34375	n/a	99672	B	nontarget	n/a	n/a
390.9257812	n/a	100077	C	nontarget	n/a	n/a
392.4921875	n/a	100478	A	nontarget	n/a	n/a
394.0664062	n/a	100881	A	nontarget	n/a	n/a
395.640625	n/a	101284	B	nontarget	n/a	n/a
397.2109375	n/a	101686	A	target	hit	660.1562
397.8710938	n/a	101855	rt	n/a	hit	660.1562
398.7734375	n/a	102086	A	target	hit	550.7812
399.3242188	n/a	102227	rt	n/a	hit	550.7812
400.359375	n/a	102492	D	nontarget	n/a	n/a
401.9335938	n/a	102895	B	nontarget	n/a	n/a
403.5039062	n/a	103297	A	target	hit	500
404.0039062	n/a	103425	rt	n/a	hit	500
405.0820312	n/a	103701	C	nontarget	n/a	n/a
406.6523438	n/a	104103	B	target	hit	550.7812
407.203125	n/a	104244	rt	n/a	hit	550.7812
408.2265625	n/a	104506	C	nontarget	n/a	n/a
409.8125	n/a	104912	A	nontarget	n/a	n/a
411.3867188	n/a	105315	B	target	miss	n/a
412.9609375	n/a	105718	C	target	miss	n/a
414.53125	n/a	106120	C	nontarget	miss	n/a
416.1054688	n/a	106523	A	nontarget	n/a	n/a
417.6796875	n/a	106926	A	nontarget	n/a	n/a
419.265625	n/a	107332	B	nontarget	n/a	n/a
420.8398438	n/a	107735	A	target	hit	546.875
421.3867188	n/a	107875	rt	n/a	hit	546.875
422.4101562	n/a	108137	C	nontarget	n/a	n/a
423.9882812	n/a	108541	B	target	hit	621.0938
424.609375	n/a	108700	rt	n/a	hit	621.0938
425.5585938	n/a	108943	B	nontarget	n/a	n/a
427.1328125	n/a	109346	C	target	hit	605.4688
427.7382812	n/a	109501	rt	n/a	hit	605.4688
428.6914062	n/a	109745	D	nontarget	n/a	n/a
430.2773438	n/a	110151	D	nontarget	n/a	n/a
431.8515625	n/a	110554	B	nontarget	n/a	n/a
433.4257812	n/a	110957	C	nontarget	n/a	n/a
435	n/a	111360	D	target	hit	722.6562
435.7226562	n/a	111545	rt	n/a	hit	722.6562
436.5703125	n/a	111762	C	nontarget	n/a	n/a
438.1601562	n/a	112169	C	target	hit	1242.1875
439.4023438	n/a	112487	rt	n/a	hit	1242.1875
439.7304688	n/a	112571	C	nontarget	n/a	n/a
441.3046875	n/a	112974	D	nontarget	n/a	n/a
442.8789062	n/a	113377	D	nontarget	n/a	n/a
444.4492188	n/a	113779	C	target	hit	601.5625
445.0507812	n/a	113933	rt	n/a	hit	601.5625
446.0273438	n/a	114183	B	nontarget	n/a	n/a
447.609375	n/a	114588	A	nontarget	n/a	n/a
449.1875	n/a	114992	C	target	hit	519.5312
449.7070312	n/a	115125	rt	n/a	hit	519.5312
450.7578125	n/a	115394	D	nontarget	n/a	n/a
452.3320312	n/a	115797	D	nontarget	n/a	n/a
453.90625	n/a	116200	B	nontarget	n/a	n/a
455.4804688	n/a	116603	A	nontarget	n/a	n/a
