onset	duration	sample	value	response_type	congruence	response_time	response_out_of_range	largeletter	smallletter
14.9453125	n/a	3826	largeTSmallH	correct	incongruent	1.4219	no	T	H
16.3671875	n/a	4190	responseLargeT	correct	n/a	1.4219	no	n/a	n/a
17.4375	n/a	4464	largeTSmallH	correct	incongruent	1.0703	no	T	H
18.5078125	n/a	4738	responseLargeT	correct	n/a	1.0703	no	n/a	n/a
19.5703125	n/a	5010	largeHSmallT	correct	incongruent	0.64062	no	H	T
20.2109375	n/a	5174	responseLargeH	correct	n/a	0.64062	no	n/a	n/a
21.27734375	n/a	5447	largeHSmallH	correct	congruent	0.70312	no	H	H
21.98046875	n/a	5627	responseLargeH	correct	n/a	0.70312	no	n/a	n/a
23.05078125	n/a	5901	largeTSmallH	correct	incongruent	0.47266	no	T	H
23.5234375	n/a	6022	responseLargeT	correct	n/a	0.47266	no	n/a	n/a
24.59765625	n/a	6297	largeTSmallH	correct	incongruent	0.52734	no	T	H
25.125	n/a	6432	responseLargeT	correct	n/a	0.52734	no	n/a	n/a
26.2109375	n/a	6710	largeTSmallH	correct	incongruent	0.57422	no	T	H
26.78515625	n/a	6857	responseLargeT	correct	n/a	0.57422	no	n/a	n/a
27.86328125	n/a	7133	largeTSmallT	correct	congruent	0.51172	no	T	T
28.375	n/a	7264	responseLargeT	correct	n/a	0.51172	no	n/a	n/a
29.453125	n/a	7540	largeHSmallH	correct	congruent	0.59375	no	H	H
30.046875	n/a	7692	responseLargeH	correct	n/a	0.59375	no	n/a	n/a
31.1171875	n/a	7966	largeTSmallH	correct	incongruent	0.60938	no	T	H
31.7265625	n/a	8122	responseLargeT	correct	n/a	0.60938	no	n/a	n/a
32.796875	n/a	8396	largeHSmallT	correct	incongruent	0.51562	no	H	T
33.3125	n/a	8528	responseLargeH	correct	n/a	0.51562	no	n/a	n/a
34.38671875	n/a	8803	largeTSmallH	correct	incongruent	0.39062	no	T	H
34.77734375	n/a	8903	responseLargeT	correct	n/a	0.39062	no	n/a	n/a
35.8515625	n/a	9178	largeHSmallT	correct	incongruent	0.54688	no	H	T
36.3984375	n/a	9318	responseLargeH	correct	n/a	0.54688	no	n/a	n/a
37.46484375	n/a	9591	largeHSmallH	correct	congruent	0.55469	no	H	H
38.01953125	n/a	9733	responseLargeH	correct	n/a	0.55469	no	n/a	n/a
39.08984375	n/a	10007	largeTSmallH	correct	incongruent	0.44531	no	T	H
39.53515625	n/a	10121	responseLargeT	correct	n/a	0.44531	no	n/a	n/a
40.59765625	n/a	10393	largeHSmallH	correct	congruent	0.48828	no	H	H
41.0859375	n/a	10518	responseLargeH	correct	n/a	0.48828	no	n/a	n/a
42.14453125	n/a	10789	largeHSmallH	correct	congruent	0.42969	no	H	H
42.57421875	n/a	10899	responseLargeH	correct	n/a	0.42969	no	n/a	n/a
43.65234375	n/a	11175	largeTSmallH	correct	incongruent	0.44922	no	T	H
44.1015625	n/a	11290	responseLargeT	correct	n/a	0.44922	no	n/a	n/a
45.171875	n/a	11564	largeTSmallT	correct	congruent	0.47656	no	T	T
45.6484375	n/a	11686	responseLargeT	correct	n/a	0.47656	no	n/a	n/a
46.71875	n/a	11960	largeTSmallT	correct	congruent	0.58203	no	T	T
47.30078125	n/a	12109	responseLargeT	correct	n/a	0.58203	no	n/a	n/a
48.37109375	n/a	12383	largeHSmallT	correct	incongruent	0.39453	no	H	T
48.765625	n/a	12484	responseLargeH	correct	n/a	0.39453	no	n/a	n/a
49.83984375	n/a	12759	largeTSmallT	correct	congruent	0.35938	no	T	T
50.19921875	n/a	12851	responseLargeT	correct	n/a	0.35938	no	n/a	n/a
51.27734375	n/a	13127	largeTSmallT	correct	congruent	0.44922	no	T	T
51.7265625	n/a	13242	responseLargeT	correct	n/a	0.44922	no	n/a	n/a
52.796875	n/a	13516	largeTSmallH	correct	incongruent	0.43359	no	T	H
53.23046875	n/a	13627	responseLargeT	correct	n/a	0.43359	no	n/a	n/a
54.3046875	n/a	13902	largeHSmallH	correct	congruent	0.41016	no	H	H
54.71484375	n/a	14007	responseLargeH	correct	n/a	0.41016	no	n/a	n/a
55.78515625	n/a	14281	largeHSmallH	error	congruent	0.5	no	H	H
56.28515625	n/a	14409	responseLargeT	error	n/a	0.5	no	n/a	n/a
57.359375	n/a	14684	largeTSmallT	correct	congruent	0.56641	no	T	T
57.92578125	n/a	14829	responseLargeT	correct	n/a	0.56641	no	n/a	n/a
58.99609375	n/a	15103	largeHSmallH	correct	congruent	0.52734	no	H	H
59.5234375	n/a	15238	responseLargeH	correct	n/a	0.52734	no	n/a	n/a
60.5859375	n/a	15510	largeTSmallH	correct	incongruent	0.46875	no	T	H
61.0546875	n/a	15630	responseLargeT	correct	n/a	0.46875	no	n/a	n/a
62.1328125	n/a	15906	largeHSmallT	correct	incongruent	0.63672	no	H	T
62.76953125	n/a	16069	responseLargeH	correct	n/a	0.63672	no	n/a	n/a
63.8359375	n/a	16342	largeHSmallH	correct	congruent	0.47266	no	H	H
64.30859375	n/a	16463	responseLargeH	correct	n/a	0.47266	no	n/a	n/a
65.37109375	n/a	16735	largeTSmallH	correct	incongruent	0.47656	no	T	H
65.84765625	n/a	16857	responseLargeT	correct	n/a	0.47656	no	n/a	n/a
66.91796875	n/a	17131	largeHSmallH	correct	congruent	0.46094	no	H	H
67.37890625	n/a	17249	responseLargeH	correct	n/a	0.46094	no	n/a	n/a
68.44921875	n/a	17523	largeTSmallH	correct	incongruent	0.46875	no	T	H
68.91796875	n/a	17643	responseLargeT	correct	n/a	0.46875	no	n/a	n/a
69.99609375	n/a	17919	largeHSmallT	correct	incongruent	0.44531	no	H	T
70.44140625	n/a	18033	responseLargeH	correct	n/a	0.44531	no	n/a	n/a
71.50390625	n/a	18305	largeTSmallT	correct	congruent	0.40234	no	T	T
71.90625	n/a	18408	responseLargeT	correct	n/a	0.40234	no	n/a	n/a
72.97265625	n/a	18681	largeHSmallH	correct	congruent	0.41016	no	H	H
73.3828125	n/a	18786	responseLargeH	correct	n/a	0.41016	no	n/a	n/a
74.46484375	n/a	19063	largeTSmallH	correct	incongruent	0.49609	no	T	H
74.9609375	n/a	19190	responseLargeT	correct	n/a	0.49609	no	n/a	n/a
76.0390625	n/a	19466	largeHSmallH	correct	congruent	0.46484	no	H	H
76.50390625	n/a	19585	responseLargeH	correct	n/a	0.46484	no	n/a	n/a
77.5703125	n/a	19858	largeTSmallT	correct	congruent	0.46094	no	T	T
78.03125	n/a	19976	responseLargeT	correct	n/a	0.46094	no	n/a	n/a
79.10546875	n/a	20251	largeTSmallT	correct	congruent	0.45703	no	T	T
79.5625	n/a	20368	responseLargeT	correct	n/a	0.45703	no	n/a	n/a
80.63671875	n/a	20643	largeTSmallH	error	incongruent	0.48828	no	T	H
81.125	n/a	20768	responseLargeH	error	n/a	0.48828	no	n/a	n/a
82.19921875	n/a	21043	largeHSmallH	correct	congruent	0.47266	no	H	H
82.671875	n/a	21164	responseLargeH	correct	n/a	0.47266	no	n/a	n/a
83.7421875	n/a	21438	largeTSmallT	correct	congruent	0.51562	no	T	T
84.2578125	n/a	21570	responseLargeT	correct	n/a	0.51562	no	n/a	n/a
85.33203125	n/a	21845	largeHSmallH	correct	congruent	0.50781	no	H	H
85.83984375	n/a	21975	responseLargeH	correct	n/a	0.50781	no	n/a	n/a
86.90234375	n/a	22247	largeTSmallH	correct	incongruent	0.50781	no	T	H
87.41015625	n/a	22377	responseLargeT	correct	n/a	0.50781	no	n/a	n/a
88.4765625	n/a	22650	largeHSmallH	correct	congruent	0.42578	no	H	H
88.90234375	n/a	22759	responseLargeH	correct	n/a	0.42578	no	n/a	n/a
89.984375	n/a	23036	largeTSmallT	correct	congruent	0.49219	no	T	T
90.4765625	n/a	23162	responseLargeT	correct	n/a	0.49219	no	n/a	n/a
91.55859375	n/a	23439	largeHSmallH	correct	congruent	0.47266	no	H	H
92.03125	n/a	23560	responseLargeH	correct	n/a	0.47266	no	n/a	n/a
93.10546875	n/a	23835	largeHSmallH	correct	congruent	0.54297	no	H	H
93.6484375	n/a	23974	responseLargeH	correct	n/a	0.54297	no	n/a	n/a
94.71875	n/a	24248	largeTSmallT	correct	congruent	0.42969	no	T	T
95.1484375	n/a	24358	responseLargeT	correct	n/a	0.42969	no	n/a	n/a
96.22265625	n/a	24633	largeTSmallT	correct	congruent	0.47266	no	T	T
96.6953125	n/a	24754	responseLargeT	correct	n/a	0.47266	no	n/a	n/a
97.7578125	n/a	25026	largeHSmallT	correct	incongruent	0.66797	no	H	T
98.42578125	n/a	25197	responseLargeH	correct	n/a	0.66797	no	n/a	n/a
99.48828125	n/a	25469	largeHSmallT	correct	incongruent	0.49219	no	H	T
99.98046875	n/a	25595	responseLargeH	correct	n/a	0.49219	no	n/a	n/a
101.0507812	n/a	25869	largeTSmallH	correct	incongruent	0.48047	no	T	H
101.53125	n/a	25992	responseLargeT	correct	n/a	0.48047	no	n/a	n/a
102.5976562	n/a	26265	largeHSmallT	correct	incongruent	0.67578	no	H	T
103.2734375	n/a	26438	responseLargeH	correct	n/a	0.67578	no	n/a	n/a
104.34375	n/a	26712	largeTSmallH	correct	incongruent	0.50391	no	T	H
104.8476562	n/a	26841	responseLargeT	correct	n/a	0.50391	no	n/a	n/a
105.9179688	n/a	27115	largeHSmallH	correct	congruent	0.44141	no	H	H
106.359375	n/a	27228	responseLargeH	correct	n/a	0.44141	no	n/a	n/a
107.4375	n/a	27504	largeHSmallH	correct	congruent	0.55469	no	H	H
107.9921875	n/a	27646	responseLargeH	correct	n/a	0.55469	no	n/a	n/a
109.0625	n/a	27920	largeHSmallH	correct	congruent	0.5	no	H	H
109.5625	n/a	28048	responseLargeH	correct	n/a	0.5	no	n/a	n/a
110.6367188	n/a	28323	largeHSmallT	correct	incongruent	0.41797	no	H	T
111.0546875	n/a	28430	responseLargeH	correct	n/a	0.41797	no	n/a	n/a
112.1289062	n/a	28705	largeTSmallH	correct	incongruent	0.46875	no	T	H
112.5976562	n/a	28825	responseLargeT	correct	n/a	0.46875	no	n/a	n/a
113.6757812	n/a	29101	largeHSmallH	correct	congruent	0.42188	no	H	H
114.0976562	n/a	29209	responseLargeH	correct	n/a	0.42188	no	n/a	n/a
115.1679688	n/a	29483	largeTSmallT	correct	congruent	0.50391	no	T	T
115.671875	n/a	29612	responseLargeT	correct	n/a	0.50391	no	n/a	n/a
116.7421875	n/a	29886	largeTSmallT	correct	congruent	0.42969	no	T	T
117.171875	n/a	29996	responseLargeT	correct	n/a	0.42969	no	n/a	n/a
118.25	n/a	30272	largeHSmallT	error	incongruent	0.51562	no	H	T
118.765625	n/a	30404	responseLargeT	error	n/a	0.51562	no	n/a	n/a
119.8359375	n/a	30678	largeHSmallH	correct	congruent	0.53906	no	H	H
120.375	n/a	30816	responseLargeH	correct	n/a	0.53906	no	n/a	n/a
121.4492188	n/a	31091	largeHSmallT	error	incongruent	0.63281	no	H	T
122.0820312	n/a	31253	responseLargeT	error	n/a	0.63281	no	n/a	n/a
123.15625	n/a	31528	largeTSmallT	correct	congruent	0.55078	no	T	T
123.7070312	n/a	31669	responseLargeT	correct	n/a	0.55078	no	n/a	n/a
124.78125	n/a	31944	largeHSmallT	correct	incongruent	0.48828	no	H	T
125.2695312	n/a	32069	responseLargeH	correct	n/a	0.48828	no	n/a	n/a
126.34375	n/a	32344	largeHSmallH	correct	congruent	0.47266	no	H	H
126.8164062	n/a	32465	responseLargeH	correct	n/a	0.47266	no	n/a	n/a
127.890625	n/a	32740	largeTSmallT	correct	congruent	0.48438	no	T	T
128.375	n/a	32864	responseLargeT	correct	n/a	0.48438	no	n/a	n/a
129.4492188	n/a	33139	largeHSmallH	correct	congruent	0.57422	no	H	H
130.0234375	n/a	33286	responseLargeH	correct	n/a	0.57422	no	n/a	n/a
131.1015625	n/a	33562	largeHSmallT	correct	incongruent	0.45703	no	H	T
131.5585938	n/a	33679	responseLargeH	correct	n/a	0.45703	no	n/a	n/a
132.6210938	n/a	33951	largeHSmallT	correct	incongruent	0.46484	no	H	T
133.0859375	n/a	34070	responseLargeH	correct	n/a	0.46484	no	n/a	n/a
134.15625	n/a	34344	largeTSmallT	correct	congruent	0.42969	no	T	T
134.5859375	n/a	34454	responseLargeT	correct	n/a	0.42969	no	n/a	n/a
135.6484375	n/a	34726	largeTSmallT	correct	congruent	0.63672	no	T	T
136.2851562	n/a	34889	responseLargeT	correct	n/a	0.63672	no	n/a	n/a
137.3554688	n/a	35163	largeTSmallT	correct	congruent	0.44922	no	T	T
137.8046875	n/a	35278	responseLargeT	correct	n/a	0.44922	no	n/a	n/a
138.875	n/a	35552	largeHSmallT	correct	incongruent	0.46875	no	H	T
139.34375	n/a	35672	responseLargeH	correct	n/a	0.46875	no	n/a	n/a
140.4101562	n/a	35945	largeHSmallT	correct	incongruent	0.37891	no	H	T
140.7890625	n/a	36042	responseLargeH	correct	n/a	0.37891	no	n/a	n/a
141.8632812	n/a	36317	largeTSmallH	correct	incongruent	0.43359	no	T	H
142.296875	n/a	36428	responseLargeT	correct	n/a	0.43359	no	n/a	n/a
143.3554688	n/a	36699	largeHSmallH	correct	congruent	0.44922	no	H	H
143.8046875	n/a	36814	responseLargeH	correct	n/a	0.44922	no	n/a	n/a
144.875	n/a	37088	largeHSmallH	correct	congruent	0.46484	no	H	H
145.3398438	n/a	37207	responseLargeH	correct	n/a	0.46484	no	n/a	n/a
146.4101562	n/a	37481	largeTSmallH	correct	incongruent	0.52734	no	T	H
146.9375	n/a	37616	responseLargeT	correct	n/a	0.52734	no	n/a	n/a
148.0078125	n/a	37890	largeHSmallH	correct	congruent	0.48828	no	H	H
148.4960938	n/a	38015	responseLargeH	correct	n/a	0.48828	no	n/a	n/a
149.5703125	n/a	38290	largeTSmallT	correct	congruent	0.40625	no	T	T
149.9765625	n/a	38394	responseLargeT	correct	n/a	0.40625	no	n/a	n/a
151.0507812	n/a	38669	largeTSmallT	correct	congruent	0.54297	no	T	T
151.59375	n/a	38808	responseLargeT	correct	n/a	0.54297	no	n/a	n/a
152.6640625	n/a	39082	largeTSmallT	correct	congruent	0.48047	no	T	T
153.1445312	n/a	39205	responseLargeT	correct	n/a	0.48047	no	n/a	n/a
154.2226562	n/a	39481	largeHSmallT	correct	incongruent	0.42188	no	H	T
154.6445312	n/a	39589	responseLargeH	correct	n/a	0.42188	no	n/a	n/a
155.7148438	n/a	39863	largeHSmallT	error	incongruent	0.41797	no	H	T
156.1328125	n/a	39970	responseLargeT	error	n/a	0.41797	no	n/a	n/a
157.1953125	n/a	40242	largeHSmallT	correct	incongruent	0.65234	no	H	T
157.8476562	n/a	40409	responseLargeH	correct	n/a	0.65234	no	n/a	n/a
158.9140625	n/a	40682	largeHSmallT	correct	incongruent	0.64453	no	H	T
159.5585938	n/a	40847	responseLargeH	correct	n/a	0.64453	no	n/a	n/a
160.6367188	n/a	41123	largeTSmallH	correct	incongruent	0.64453	no	T	H
161.28125	n/a	41288	responseLargeT	correct	n/a	0.64453	no	n/a	n/a
162.34375	n/a	41560	largeTSmallH	correct	incongruent	0.50391	no	T	H
162.8476562	n/a	41689	responseLargeT	correct	n/a	0.50391	no	n/a	n/a
163.9296875	n/a	41966	largeTSmallH	correct	incongruent	0.48438	no	T	H
164.4140625	n/a	42090	responseLargeT	correct	n/a	0.48438	no	n/a	n/a
165.4882812	n/a	42365	largeHSmallT	correct	incongruent	0.49609	no	H	T
165.984375	n/a	42492	responseLargeH	correct	n/a	0.49609	no	n/a	n/a
167.0625	n/a	42768	largeHSmallT	correct	incongruent	0.51953	no	H	T
167.5820312	n/a	42901	responseLargeH	correct	n/a	0.51953	no	n/a	n/a
168.6484375	n/a	43174	largeTSmallH	correct	incongruent	0.55859	no	T	H
169.2070312	n/a	43317	responseLargeT	correct	n/a	0.55859	no	n/a	n/a
170.2734375	n/a	43590	largeTSmallH	correct	incongruent	0.61719	no	T	H
170.890625	n/a	43748	responseLargeT	correct	n/a	0.61719	no	n/a	n/a
171.9570312	n/a	44021	largeHSmallH	correct	congruent	0.53516	no	H	H
172.4921875	n/a	44158	responseLargeH	correct	n/a	0.53516	no	n/a	n/a
173.5703125	n/a	44434	largeTSmallT	correct	congruent	0.51172	no	T	T
174.0820312	n/a	44565	responseLargeT	correct	n/a	0.51172	no	n/a	n/a
175.15625	n/a	44840	largeTSmallH	correct	incongruent	0.46875	no	T	H
175.625	n/a	44960	responseLargeT	correct	n/a	0.46875	no	n/a	n/a
176.703125	n/a	45236	largeTSmallT	correct	congruent	0.55469	no	T	T
177.2578125	n/a	45378	responseLargeT	correct	n/a	0.55469	no	n/a	n/a
178.328125	n/a	45652	largeTSmallH	correct	incongruent	0.47656	no	T	H
178.8046875	n/a	45774	responseLargeT	correct	n/a	0.47656	no	n/a	n/a
179.8867188	n/a	46051	largeTSmallH	correct	incongruent	0.41016	no	T	H
180.296875	n/a	46156	responseLargeT	correct	n/a	0.41016	no	n/a	n/a
181.3671875	n/a	46430	largeHSmallT	correct	incongruent	0.5	no	H	T
181.8671875	n/a	46558	responseLargeH	correct	n/a	0.5	no	n/a	n/a
182.9414062	n/a	46833	largeTSmallH	correct	incongruent	0.42969	no	T	H
183.3710938	n/a	46943	responseLargeT	correct	n/a	0.42969	no	n/a	n/a
184.4335938	n/a	47215	largeTSmallT	correct	congruent	0.45312	no	T	T
184.8867188	n/a	47331	responseLargeT	correct	n/a	0.45312	no	n/a	n/a
185.96875	n/a	47608	largeHSmallT	correct	incongruent	0.55469	no	H	T
186.5234375	n/a	47750	responseLargeH	correct	n/a	0.55469	no	n/a	n/a
187.59375	n/a	48024	largeHSmallT	correct	incongruent	0.47266	no	H	T
188.0664062	n/a	48145	responseLargeH	correct	n/a	0.47266	no	n/a	n/a
189.1289062	n/a	48417	largeHSmallT	correct	incongruent	0.41797	no	H	T
189.546875	n/a	48524	responseLargeH	correct	n/a	0.41797	no	n/a	n/a
190.6210938	n/a	48799	largeTSmallT	correct	congruent	0.47656	no	T	T
191.0976562	n/a	48921	responseLargeT	correct	n/a	0.47656	no	n/a	n/a
192.1679688	n/a	49195	largeTSmallH	correct	incongruent	0.43359	no	T	H
192.6015625	n/a	49306	responseLargeT	correct	n/a	0.43359	no	n/a	n/a
193.6757812	n/a	49581	largeTSmallH	correct	incongruent	0.48828	no	T	H
194.1640625	n/a	49706	responseLargeT	correct	n/a	0.48828	no	n/a	n/a
195.234375	n/a	49980	largeTSmallH	correct	incongruent	0.45312	no	T	H
195.6875	n/a	50096	responseLargeT	correct	n/a	0.45312	no	n/a	n/a
196.7695312	n/a	50373	largeHSmallT	correct	incongruent	0.49609	no	H	T
197.265625	n/a	50500	responseLargeH	correct	n/a	0.49609	no	n/a	n/a
198.3398438	n/a	50775	largeTSmallT	correct	congruent	0.5	no	T	T
198.8398438	n/a	50903	responseLargeT	correct	n/a	0.5	no	n/a	n/a
199.9140625	n/a	51178	largeHSmallT	correct	incongruent	0.47266	no	H	T
200.3867188	n/a	51299	responseLargeH	correct	n/a	0.47266	no	n/a	n/a
201.4609375	n/a	51574	largeHSmallH	correct	congruent	0.43359	no	H	H
201.8945312	n/a	51685	responseLargeH	correct	n/a	0.43359	no	n/a	n/a
202.96875	n/a	51960	largeTSmallH	correct	incongruent	0.49609	no	T	H
203.4648438	n/a	52087	responseLargeT	correct	n/a	0.49609	no	n/a	n/a
204.5273438	n/a	52359	largeTSmallH	correct	incongruent	0.53125	no	T	H
205.0585938	n/a	52495	responseLargeT	correct	n/a	0.53125	no	n/a	n/a
206.140625	n/a	52772	largeTSmallH	correct	incongruent	0.46875	no	T	H
206.609375	n/a	52892	responseLargeT	correct	n/a	0.46875	no	n/a	n/a
207.6875	n/a	53168	largeHSmallT	correct	incongruent	0.66797	no	H	T
208.3554688	n/a	53339	responseLargeH	correct	n/a	0.66797	no	n/a	n/a
209.4335938	n/a	53615	largeHSmallH	correct	congruent	0.5	no	H	H
209.9335938	n/a	53743	responseLargeH	correct	n/a	0.5	no	n/a	n/a
211.0078125	n/a	54018	largeTSmallH	correct	incongruent	0.55859	no	T	H
211.5664062	n/a	54161	responseLargeT	correct	n/a	0.55859	no	n/a	n/a
212.6484375	n/a	54438	largeHSmallT	correct	incongruent	0.48438	no	H	T
213.1328125	n/a	54562	responseLargeH	correct	n/a	0.48438	no	n/a	n/a
214.2070312	n/a	54837	largeTSmallH	correct	incongruent	0.47656	no	T	H
214.6835938	n/a	54959	responseLargeT	correct	n/a	0.47656	no	n/a	n/a
215.765625	n/a	55236	largeTSmallH	correct	incongruent	0.46094	no	T	H
216.2265625	n/a	55354	responseLargeT	correct	n/a	0.46094	no	n/a	n/a
217.2890625	n/a	55626	largeTSmallH	correct	incongruent	0.47266	no	T	H
217.7617188	n/a	55747	responseLargeT	correct	n/a	0.47266	no	n/a	n/a
218.8359375	n/a	56022	largeHSmallH	correct	congruent	0.48047	no	H	H
219.3164062	n/a	56145	responseLargeH	correct	n/a	0.48047	no	n/a	n/a
220.3945312	n/a	56421	largeTSmallH	correct	incongruent	0.41406	no	T	H
220.8085938	n/a	56527	responseLargeT	correct	n/a	0.41406	no	n/a	n/a
221.875	n/a	56800	largeTSmallH	correct	incongruent	0.64844	no	T	H
222.5234375	n/a	56966	responseLargeT	correct	n/a	0.64844	no	n/a	n/a
223.59375	n/a	57240	largeHSmallH	correct	congruent	0.48047	no	H	H
224.0742188	n/a	57363	responseLargeH	correct	n/a	0.48047	no	n/a	n/a
225.140625	n/a	57636	largeTSmallT	correct	congruent	0.42969	no	T	T
225.5703125	n/a	57746	responseLargeT	correct	n/a	0.42969	no	n/a	n/a
226.6328125	n/a	58018	largeHSmallT	error	incongruent	0.51172	no	H	T
227.1445312	n/a	58149	responseLargeT	error	n/a	0.51172	no	n/a	n/a
228.2070312	n/a	58421	largeTSmallH	correct	incongruent	0.61719	no	T	H
228.8242188	n/a	58579	responseLargeT	correct	n/a	0.61719	no	n/a	n/a
229.9023438	n/a	58855	largeHSmallT	correct	incongruent	0.59375	no	H	T
230.4960938	n/a	59007	responseLargeH	correct	n/a	0.59375	no	n/a	n/a
231.5664062	n/a	59281	largeHSmallH	correct	congruent	0.47656	no	H	H
232.0429688	n/a	59403	responseLargeH	correct	n/a	0.47656	no	n/a	n/a
233.1132812	n/a	59677	largeTSmallH	correct	incongruent	0.51953	no	T	H
233.6328125	n/a	59810	responseLargeT	correct	n/a	0.51953	no	n/a	n/a
234.6992188	n/a	60083	largeHSmallT	correct	incongruent	0.48047	no	H	T
235.1796875	n/a	60206	responseLargeH	correct	n/a	0.48047	no	n/a	n/a
236.2460938	n/a	60479	largeHSmallT	correct	incongruent	0.48047	no	H	T
236.7265625	n/a	60602	responseLargeH	correct	n/a	0.48047	no	n/a	n/a
237.8085938	n/a	60879	largeHSmallT	correct	incongruent	0.44922	no	H	T
238.2578125	n/a	60994	responseLargeH	correct	n/a	0.44922	no	n/a	n/a
239.328125	n/a	61268	largeTSmallT	correct	congruent	0.48828	no	T	T
239.8164062	n/a	61393	responseLargeT	correct	n/a	0.48828	no	n/a	n/a
240.875	n/a	61664	largeTSmallT	correct	congruent	0.52344	no	T	T
241.3984375	n/a	61798	responseLargeT	correct	n/a	0.52344	no	n/a	n/a
242.4726562	n/a	62073	largeHSmallT	correct	incongruent	0.49609	no	H	T
242.96875	n/a	62200	responseLargeH	correct	n/a	0.49609	no	n/a	n/a
244.046875	n/a	62476	largeHSmallH	correct	congruent	0.5625	no	H	H
244.609375	n/a	62620	responseLargeH	correct	n/a	0.5625	no	n/a	n/a
245.6875	n/a	62896	largeTSmallT	correct	congruent	0.4375	no	T	T
246.125	n/a	63008	responseLargeT	correct	n/a	0.4375	no	n/a	n/a
247.1953125	n/a	63282	largeTSmallT	correct	congruent	0.57422	no	T	T
247.7695312	n/a	63429	responseLargeT	correct	n/a	0.57422	no	n/a	n/a
248.8320312	n/a	63701	largeHSmallH	correct	congruent	0.50391	no	H	H
249.3359375	n/a	63830	responseLargeH	correct	n/a	0.50391	no	n/a	n/a
250.40625	n/a	64104	largeHSmallT	correct	incongruent	0.46875	no	H	T
250.875	n/a	64224	responseLargeH	correct	n/a	0.46875	no	n/a	n/a
251.9414062	n/a	64497	largeHSmallT	correct	incongruent	0.49219	no	H	T
252.4335938	n/a	64623	responseLargeH	correct	n/a	0.49219	no	n/a	n/a
253.5	n/a	64896	largeHSmallT	correct	incongruent	0.51172	no	H	T
254.0117188	n/a	65027	responseLargeH	correct	n/a	0.51172	no	n/a	n/a
255.0859375	n/a	65302	largeHSmallT	correct	incongruent	0.46484	no	H	T
255.5507812	n/a	65421	responseLargeH	correct	n/a	0.46484	no	n/a	n/a
256.6210938	n/a	65695	largeHSmallH	correct	congruent	0.43359	no	H	H
257.0546875	n/a	65806	responseLargeH	correct	n/a	0.43359	no	n/a	n/a
258.125	n/a	66080	largeHSmallH	correct	congruent	0.42969	no	H	H
258.5546875	n/a	66190	responseLargeH	correct	n/a	0.42969	no	n/a	n/a
259.6328125	n/a	66466	largeHSmallH	correct	congruent	0.4375	no	H	H
260.0703125	n/a	66578	responseLargeH	correct	n/a	0.4375	no	n/a	n/a
261.140625	n/a	66852	largeHSmallH	correct	congruent	0.40234	no	H	H
261.5429688	n/a	66955	responseLargeH	correct	n/a	0.40234	no	n/a	n/a
262.6054688	n/a	67227	largeTSmallT	correct	congruent	0.42188	no	T	T
263.0273438	n/a	67335	responseLargeT	correct	n/a	0.42188	no	n/a	n/a
264.1132812	n/a	67613	largeHSmallT	correct	incongruent	0.45312	no	H	T
264.5664062	n/a	67729	responseLargeH	correct	n/a	0.45312	no	n/a	n/a
265.6328125	n/a	68002	largeTSmallT	correct	congruent	0.47656	no	T	T
266.109375	n/a	68124	responseLargeT	correct	n/a	0.47656	no	n/a	n/a
267.1796875	n/a	68398	largeHSmallT	correct	incongruent	0.46875	no	H	T
267.6484375	n/a	68518	responseLargeH	correct	n/a	0.46875	no	n/a	n/a
268.7265625	n/a	68794	largeTSmallT	correct	congruent	0.50391	no	T	T
269.2304688	n/a	68923	responseLargeT	correct	n/a	0.50391	no	n/a	n/a
270.3007812	n/a	69197	largeHSmallH	correct	congruent	0.52734	no	H	H
270.828125	n/a	69332	responseLargeH	correct	n/a	0.52734	no	n/a	n/a
271.9140625	n/a	69610	largeTSmallT	correct	congruent	0.41797	no	T	T
272.3320312	n/a	69717	responseLargeT	correct	n/a	0.41797	no	n/a	n/a
273.40625	n/a	69992	largeTSmallT	correct	congruent	0.4375	no	T	T
273.84375	n/a	70104	responseLargeT	correct	n/a	0.4375	no	n/a	n/a
274.9140625	n/a	70378	largeTSmallT	correct	congruent	0.39844	no	T	T
275.3125	n/a	70480	responseLargeT	correct	n/a	0.39844	no	n/a	n/a
276.3789062	n/a	70753	largeTSmallH	correct	incongruent	0.55859	no	T	H
276.9375	n/a	70896	responseLargeT	correct	n/a	0.55859	no	n/a	n/a
278.0078125	n/a	71170	largeHSmallH	correct	congruent	0.45312	no	H	H
278.4609375	n/a	71286	responseLargeH	correct	n/a	0.45312	no	n/a	n/a
279.5390625	n/a	71562	largeTSmallH	correct	incongruent	0.48047	no	T	H
280.0195312	n/a	71685	responseLargeT	correct	n/a	0.48047	no	n/a	n/a
281.0976562	n/a	71961	largeTSmallT	correct	congruent	0.51562	no	T	T
281.6132812	n/a	72093	responseLargeT	correct	n/a	0.51562	no	n/a	n/a
282.6875	n/a	72368	largeHSmallT	error	incongruent	0.54297	no	H	T
283.2304688	n/a	72507	responseLargeT	error	n/a	0.54297	no	n/a	n/a
284.3007812	n/a	72781	largeTSmallH	correct	incongruent	0.5	no	T	H
284.8007812	n/a	72909	responseLargeT	correct	n/a	0.5	no	n/a	n/a
285.8710938	n/a	73183	largeTSmallT	correct	congruent	0.55859	no	T	T
286.4296875	n/a	73326	responseLargeT	correct	n/a	0.55859	no	n/a	n/a
287.5117188	n/a	73603	largeHSmallH	correct	congruent	0.51172	no	H	H
288.0234375	n/a	73734	responseLargeH	correct	n/a	0.51172	no	n/a	n/a
289.0976562	n/a	74009	largeHSmallT	correct	incongruent	0.45312	no	H	T
289.5507812	n/a	74125	responseLargeH	correct	n/a	0.45312	no	n/a	n/a
290.6328125	n/a	74402	largeTSmallH	correct	incongruent	0.46094	no	T	H
291.09375	n/a	74520	responseLargeT	correct	n/a	0.46094	no	n/a	n/a
292.1796875	n/a	74798	largeHSmallH	correct	congruent	0.4375	no	H	H
292.6171875	n/a	74910	responseLargeH	correct	n/a	0.4375	no	n/a	n/a
293.6875	n/a	75184	largeHSmallH	correct	congruent	0.50391	no	H	H
294.1914062	n/a	75313	responseLargeH	correct	n/a	0.50391	no	n/a	n/a
295.2578125	n/a	75586	largeTSmallH	correct	incongruent	0.57422	no	T	H
295.8320312	n/a	75733	responseLargeT	correct	n/a	0.57422	no	n/a	n/a
296.8984375	n/a	76006	largeHSmallT	correct	incongruent	0.50781	no	H	T
297.40625	n/a	76136	responseLargeH	correct	n/a	0.50781	no	n/a	n/a
298.4726562	n/a	76409	largeHSmallH	correct	congruent	0.4375	no	H	H
298.9101562	n/a	76521	responseLargeH	correct	n/a	0.4375	no	n/a	n/a
299.9921875	n/a	76798	largeTSmallT	correct	congruent	0.47656	no	T	T
300.46875	n/a	76920	responseLargeT	correct	n/a	0.47656	no	n/a	n/a
301.5507812	n/a	77197	largeTSmallT	correct	congruent	0.53516	no	T	T
302.0859375	n/a	77334	responseLargeT	correct	n/a	0.53516	no	n/a	n/a
303.1523438	n/a	77607	largeTSmallT	correct	congruent	0.46484	no	T	T
303.6171875	n/a	77726	responseLargeT	correct	n/a	0.46484	no	n/a	n/a
304.6835938	n/a	77999	largeHSmallH	correct	congruent	0.5	no	H	H
305.1835938	n/a	78127	responseLargeH	correct	n/a	0.5	no	n/a	n/a
306.2578125	n/a	78402	largeTSmallT	correct	congruent	0.48438	no	T	T
306.7421875	n/a	78526	responseLargeT	correct	n/a	0.48438	no	n/a	n/a
307.8203125	n/a	78802	largeTSmallT	correct	congruent	0.56641	no	T	T
308.3867188	n/a	78947	responseLargeT	correct	n/a	0.56641	no	n/a	n/a
309.4570312	n/a	79221	largeTSmallT	correct	congruent	0.49219	no	T	T
309.9492188	n/a	79347	responseLargeT	correct	n/a	0.49219	no	n/a	n/a
311.0195312	n/a	79621	largeHSmallT	correct	incongruent	0.46094	no	H	T
311.4804688	n/a	79739	responseLargeH	correct	n/a	0.46094	no	n/a	n/a
312.5664062	n/a	80017	largeHSmallH	correct	congruent	0.58203	no	H	H
313.1484375	n/a	80166	responseLargeH	correct	n/a	0.58203	no	n/a	n/a
314.21875	n/a	80440	largeHSmallH	correct	congruent	0.53125	no	H	H
314.75	n/a	80576	responseLargeH	correct	n/a	0.53125	no	n/a	n/a
315.8164062	n/a	80849	largeTSmallH	correct	incongruent	0.47656	no	T	H
316.2929688	n/a	80971	responseLargeT	correct	n/a	0.47656	no	n/a	n/a
317.3632812	n/a	81245	largeHSmallT	correct	incongruent	0.69922	no	H	T
318.0625	n/a	81424	responseLargeH	correct	n/a	0.69922	no	n/a	n/a
319.125	n/a	81696	largeHSmallT	correct	incongruent	0.97266	no	H	T
320.0976562	n/a	81945	responseLargeH	correct	n/a	0.97266	no	n/a	n/a
321.1796875	n/a	82222	largeHSmallH	correct	congruent	0.45703	no	H	H
321.6367188	n/a	82339	responseLargeH	correct	n/a	0.45703	no	n/a	n/a
322.6992188	n/a	82611	largeHSmallT	correct	incongruent	0.90234	no	H	T
323.6015625	n/a	82842	responseLargeH	correct	n/a	0.90234	no	n/a	n/a
324.6835938	n/a	83119	largeHSmallH	correct	congruent	0.42969	no	H	H
325.1132812	n/a	83229	responseLargeH	correct	n/a	0.42969	no	n/a	n/a
326.1796875	n/a	83502	largeTSmallT	correct	congruent	0.46484	no	T	T
326.6445312	n/a	83621	responseLargeT	correct	n/a	0.46484	no	n/a	n/a
327.7109375	n/a	83894	largeTSmallT	correct	congruent	0.48438	no	T	T
328.1953125	n/a	84018	responseLargeT	correct	n/a	0.48438	no	n/a	n/a
329.2695312	n/a	84293	largeTSmallT	correct	congruent	0.45703	no	T	T
329.7265625	n/a	84410	responseLargeT	correct	n/a	0.45703	no	n/a	n/a
336.8828125	n/a	86242	largeHSmallH	correct	congruent	0.45703	no	H	H
337.3398438	n/a	86359	responseSmallH	correct	n/a	0.45703	no	n/a	n/a
338.4179688	n/a	86635	largeTSmallH	correct	incongruent	0.40625	no	T	H
338.8242188	n/a	86739	responseSmallH	correct	n/a	0.40625	no	n/a	n/a
339.8984375	n/a	87014	largeTSmallH	correct	incongruent	0.375	no	T	H
340.2734375	n/a	87110	responseSmallH	correct	n/a	0.375	no	n/a	n/a
341.3359375	n/a	87382	largeHSmallT	error	incongruent	0.38281	no	H	T
341.71875	n/a	87480	responseSmallH	error	n/a	0.38281	no	n/a	n/a
342.7890625	n/a	87754	largeTSmallT	correct	congruent	0.41797	no	T	T
343.2070312	n/a	87861	responseSmallT	correct	n/a	0.41797	no	n/a	n/a
344.2695312	n/a	88133	largeTSmallT	correct	congruent	0.44141	no	T	T
344.7109375	n/a	88246	responseSmallT	correct	n/a	0.44141	no	n/a	n/a
345.7890625	n/a	88522	largeHSmallH	correct	congruent	0.42578	no	H	H
346.2148438	n/a	88631	responseSmallH	correct	n/a	0.42578	no	n/a	n/a
347.2851562	n/a	88905	largeTSmallH	correct	incongruent	0.51172	no	T	H
347.796875	n/a	89036	responseSmallH	correct	n/a	0.51172	no	n/a	n/a
348.8554688	n/a	89307	largeTSmallT	correct	congruent	0.44141	no	T	T
349.296875	n/a	89420	responseSmallT	correct	n/a	0.44141	no	n/a	n/a
350.3789062	n/a	89697	largeHSmallH	correct	congruent	0.40625	no	H	H
350.7851562	n/a	89801	responseSmallH	correct	n/a	0.40625	no	n/a	n/a
351.8554688	n/a	90075	largeHSmallT	error	incongruent	0.4375	no	H	T
352.2929688	n/a	90187	responseSmallH	error	n/a	0.4375	no	n/a	n/a
353.3789062	n/a	90465	largeTSmallH	correct	incongruent	0.53516	no	T	H
353.9140625	n/a	90602	responseSmallH	correct	n/a	0.53516	no	n/a	n/a
354.9921875	n/a	90878	largeHSmallH	correct	congruent	0.53125	no	H	H
355.5234375	n/a	91014	responseSmallH	correct	n/a	0.53125	no	n/a	n/a
356.6054688	n/a	91291	largeHSmallH	correct	congruent	0.40625	no	H	H
357.0117188	n/a	91395	responseSmallH	correct	n/a	0.40625	no	n/a	n/a
358.0820312	n/a	91669	largeHSmallT	correct	incongruent	3.5664	yes	H	T
361.6484375	n/a	92582	responseSmallT	correct	n/a	3.5664	yes	n/a	n/a
362.7109375	n/a	92854	largeHSmallH	correct	congruent	0.48438	no	H	H
363.1953125	n/a	92978	responseSmallH	correct	n/a	0.48438	no	n/a	n/a
364.2695312	n/a	93253	largeHSmallH	correct	congruent	0.42578	no	H	H
364.6953125	n/a	93362	responseSmallH	correct	n/a	0.42578	no	n/a	n/a
365.7773438	n/a	93639	largeHSmallH	correct	congruent	0.46094	no	H	H
366.2382812	n/a	93757	responseSmallH	correct	n/a	0.46094	no	n/a	n/a
367.3125	n/a	94032	largeTSmallT	correct	congruent	0.36328	no	T	T
367.6757812	n/a	94125	responseSmallT	correct	n/a	0.36328	no	n/a	n/a
368.75	n/a	94400	largeHSmallT	correct	incongruent	0.49219	no	H	T
369.2421875	n/a	94526	responseSmallT	correct	n/a	0.49219	no	n/a	n/a
370.3085938	n/a	94799	largeTSmallH	correct	incongruent	0.5	no	T	H
370.8085938	n/a	94927	responseSmallH	correct	n/a	0.5	no	n/a	n/a
371.8828125	n/a	95202	largeTSmallT	correct	congruent	0.47266	no	T	T
372.3554688	n/a	95323	responseSmallT	correct	n/a	0.47266	no	n/a	n/a
373.4296875	n/a	95598	largeHSmallH	correct	congruent	0.5	no	H	H
373.9296875	n/a	95726	responseSmallH	correct	n/a	0.5	no	n/a	n/a
374.9882812	n/a	95997	largeHSmallH	correct	congruent	0.42578	no	H	H
375.4140625	n/a	96106	responseSmallH	correct	n/a	0.42578	no	n/a	n/a
376.484375	n/a	96380	largeTSmallT	correct	congruent	0.44922	no	T	T
376.9335938	n/a	96495	responseSmallT	correct	n/a	0.44922	no	n/a	n/a
378.0039062	n/a	96769	largeHSmallT	correct	incongruent	0.44141	no	H	T
378.4453125	n/a	96882	responseSmallT	correct	n/a	0.44141	no	n/a	n/a
379.5117188	n/a	97155	largeHSmallH	correct	congruent	0.46875	no	H	H
379.9804688	n/a	97275	responseSmallH	correct	n/a	0.46875	no	n/a	n/a
381.0429688	n/a	97547	largeHSmallH	correct	congruent	0.51562	no	H	H
381.5585938	n/a	97679	responseSmallH	correct	n/a	0.51562	no	n/a	n/a
382.6171875	n/a	97950	largeTSmallT	correct	congruent	0.42969	no	T	T
383.046875	n/a	98060	responseSmallT	correct	n/a	0.42969	no	n/a	n/a
384.125	n/a	98336	largeTSmallH	error	incongruent	0.44922	no	T	H
384.5742188	n/a	98451	responseSmallT	error	n/a	0.44922	no	n/a	n/a
385.6445312	n/a	98725	largeTSmallH	correct	incongruent	0.55859	no	T	H
386.203125	n/a	98868	responseSmallH	correct	n/a	0.55859	no	n/a	n/a
387.2695312	n/a	99141	largeTSmallT	correct	congruent	0.44531	no	T	T
387.7148438	n/a	99255	responseSmallT	correct	n/a	0.44531	no	n/a	n/a
388.7773438	n/a	99527	largeHSmallT	correct	incongruent	0.58984	no	H	T
389.3671875	n/a	99678	responseSmallT	correct	n/a	0.58984	no	n/a	n/a
390.4414062	n/a	99953	largeTSmallH	correct	incongruent	0.92578	no	T	H
391.3671875	n/a	100190	responseSmallH	correct	n/a	0.92578	no	n/a	n/a
392.4296875	n/a	100462	largeTSmallT	correct	congruent	0.38672	no	T	T
392.8164062	n/a	100561	responseSmallT	correct	n/a	0.38672	no	n/a	n/a
393.8828125	n/a	100834	largeTSmallT	correct	congruent	0.51953	no	T	T
394.4023438	n/a	100967	responseSmallT	correct	n/a	0.51953	no	n/a	n/a
395.46875	n/a	101240	largeHSmallH	correct	congruent	0.41016	no	H	H
395.8789062	n/a	101345	responseSmallH	correct	n/a	0.41016	no	n/a	n/a
396.9492188	n/a	101619	largeHSmallT	correct	incongruent	0.44141	no	H	T
397.390625	n/a	101732	responseSmallT	correct	n/a	0.44141	no	n/a	n/a
398.4570312	n/a	102005	largeHSmallT	correct	incongruent	0.52344	no	H	T
398.9804688	n/a	102139	responseSmallT	correct	n/a	0.52344	no	n/a	n/a
400.0429688	n/a	102411	largeTSmallH	correct	incongruent	0.46094	no	T	H
400.5039062	n/a	102529	responseSmallH	correct	n/a	0.46094	no	n/a	n/a
401.5742188	n/a	102803	largeTSmallH	correct	incongruent	0.51562	no	T	H
402.0898438	n/a	102935	responseSmallH	correct	n/a	0.51562	no	n/a	n/a
403.1640625	n/a	103210	largeTSmallH	correct	incongruent	0.39844	no	T	H
403.5625	n/a	103312	responseSmallH	correct	n/a	0.39844	no	n/a	n/a
404.6289062	n/a	103585	largeTSmallH	correct	incongruent	0.41016	no	T	H
405.0390625	n/a	103690	responseSmallH	correct	n/a	0.41016	no	n/a	n/a
406.109375	n/a	103964	largeTSmallT	error	congruent	0.44922	no	T	T
406.5585938	n/a	104079	responseSmallH	error	n/a	0.44922	no	n/a	n/a
407.6289062	n/a	104353	largeHSmallH	correct	congruent	0.61719	no	H	H
408.2460938	n/a	104511	responseSmallH	correct	n/a	0.61719	no	n/a	n/a
409.3085938	n/a	104783	largeTSmallT	correct	congruent	0.44141	no	T	T
409.75	n/a	104896	responseSmallT	correct	n/a	0.44141	no	n/a	n/a
410.828125	n/a	105172	largeTSmallT	correct	congruent	0.50391	no	T	T
411.3320312	n/a	105301	responseSmallT	correct	n/a	0.50391	no	n/a	n/a
412.4023438	n/a	105575	largeTSmallH	correct	incongruent	0.42578	no	T	H
412.828125	n/a	105684	responseSmallH	correct	n/a	0.42578	no	n/a	n/a
413.8945312	n/a	105957	largeTSmallT	correct	congruent	0.45312	no	T	T
414.3476562	n/a	106073	responseSmallT	correct	n/a	0.45312	no	n/a	n/a
415.4140625	n/a	106346	largeTSmallH	correct	incongruent	0.41797	no	T	H
415.8320312	n/a	106453	responseSmallH	correct	n/a	0.41797	no	n/a	n/a
416.9101562	n/a	106729	largeHSmallT	correct	incongruent	0.55469	no	H	T
417.4648438	n/a	106871	responseSmallT	correct	n/a	0.55469	no	n/a	n/a
418.5351562	n/a	107145	largeTSmallT	correct	congruent	0.44531	no	T	T
418.9804688	n/a	107259	responseSmallT	correct	n/a	0.44531	no	n/a	n/a
420.0429688	n/a	107531	largeHSmallT	correct	incongruent	0.46094	no	H	T
420.5039062	n/a	107649	responseSmallT	correct	n/a	0.46094	no	n/a	n/a
421.5742188	n/a	107923	largeHSmallH	correct	congruent	0.50391	no	H	H
422.078125	n/a	108052	responseSmallH	correct	n/a	0.50391	no	n/a	n/a
423.1484375	n/a	108326	largeHSmallT	correct	incongruent	0.55078	no	H	T
423.6992188	n/a	108467	responseSmallT	correct	n/a	0.55078	no	n/a	n/a
424.7773438	n/a	108743	largeHSmallT	correct	incongruent	0.46094	no	H	T
425.2382812	n/a	108861	responseSmallT	correct	n/a	0.46094	no	n/a	n/a
426.3203125	n/a	109138	largeTSmallT	correct	congruent	0.44922	no	T	T
426.7695312	n/a	109253	responseSmallT	correct	n/a	0.44922	no	n/a	n/a
427.84375	n/a	109528	largeHSmallH	correct	congruent	0.73828	no	H	H
428.5820312	n/a	109717	responseSmallH	correct	n/a	0.73828	no	n/a	n/a
429.65625	n/a	109992	largeHSmallH	correct	congruent	0.53516	no	H	H
430.1914062	n/a	110129	responseSmallH	correct	n/a	0.53516	no	n/a	n/a
431.2695312	n/a	110405	largeTSmallT	correct	congruent	0.53516	no	T	T
431.8046875	n/a	110542	responseSmallT	correct	n/a	0.53516	no	n/a	n/a
432.8671875	n/a	110814	largeHSmallT	correct	incongruent	0.50391	no	H	T
433.3710938	n/a	110943	responseSmallT	correct	n/a	0.50391	no	n/a	n/a
434.4414062	n/a	111217	largeTSmallT	correct	congruent	0.46094	no	T	T
434.9023438	n/a	111335	responseSmallT	correct	n/a	0.46094	no	n/a	n/a
435.9765625	n/a	111610	largeHSmallT	correct	incongruent	0.51562	no	H	T
436.4921875	n/a	111742	responseSmallT	correct	n/a	0.51562	no	n/a	n/a
437.5625	n/a	112016	largeHSmallT	correct	incongruent	0.46875	no	H	T
438.03125	n/a	112136	responseSmallT	correct	n/a	0.46875	no	n/a	n/a
439.109375	n/a	112412	largeTSmallT	correct	congruent	0.45312	no	T	T
439.5625	n/a	112528	responseSmallT	correct	n/a	0.45312	no	n/a	n/a
440.640625	n/a	112804	largeTSmallH	correct	incongruent	0.47266	no	T	H
441.1132812	n/a	112925	responseSmallH	correct	n/a	0.47266	no	n/a	n/a
442.1757812	n/a	113197	largeTSmallH	correct	incongruent	0.50391	no	T	H
442.6796875	n/a	113326	responseSmallH	correct	n/a	0.50391	no	n/a	n/a
443.7617188	n/a	113603	largeTSmallH	correct	incongruent	0.50391	no	T	H
444.265625	n/a	113732	responseSmallH	correct	n/a	0.50391	no	n/a	n/a
445.3359375	n/a	114006	largeTSmallT	correct	congruent	0.52734	no	T	T
445.8632812	n/a	114141	responseSmallT	correct	n/a	0.52734	no	n/a	n/a
446.9335938	n/a	114415	largeHSmallH	correct	congruent	0.46484	no	H	H
447.3984375	n/a	114534	responseSmallH	correct	n/a	0.46484	no	n/a	n/a
448.46875	n/a	114808	largeHSmallH	correct	congruent	0.49219	no	H	H
448.9609375	n/a	114934	responseSmallH	correct	n/a	0.49219	no	n/a	n/a
450.0273438	n/a	115207	largeTSmallT	correct	congruent	0.47656	no	T	T
450.5039062	n/a	115329	responseSmallT	correct	n/a	0.47656	no	n/a	n/a
451.5742188	n/a	115603	largeTSmallH	correct	incongruent	0.45312	no	T	H
452.0273438	n/a	115719	responseSmallH	correct	n/a	0.45312	no	n/a	n/a
453.09375	n/a	115992	largeTSmallT	correct	congruent	0.5	no	T	T
453.59375	n/a	116120	responseSmallT	correct	n/a	0.5	no	n/a	n/a
454.6679688	n/a	116395	largeTSmallH	correct	incongruent	0.41797	no	T	H
455.0859375	n/a	116502	responseSmallH	correct	n/a	0.41797	no	n/a	n/a
456.1601562	n/a	116777	largeHSmallH	correct	congruent	0.48438	no	H	H
456.6445312	n/a	116901	responseSmallH	correct	n/a	0.48438	no	n/a	n/a
457.7226562	n/a	117177	largeHSmallH	correct	congruent	0.47656	no	H	H
458.1992188	n/a	117299	responseSmallH	correct	n/a	0.47656	no	n/a	n/a
459.28125	n/a	117576	largeTSmallT	correct	congruent	0.47266	no	T	T
459.7539062	n/a	117697	responseSmallT	correct	n/a	0.47266	no	n/a	n/a
460.828125	n/a	117972	largeTSmallT	correct	congruent	0.47656	no	T	T
461.3046875	n/a	118094	responseSmallT	correct	n/a	0.47656	no	n/a	n/a
462.359375	n/a	118364	largeHSmallT	correct	incongruent	0.52734	no	H	T
462.8867188	n/a	118499	responseSmallT	correct	n/a	0.52734	no	n/a	n/a
463.9609375	n/a	118774	largeHSmallT	correct	incongruent	0.65625	no	H	T
464.6171875	n/a	118942	responseSmallT	correct	n/a	0.65625	no	n/a	n/a
465.6953125	n/a	119218	largeHSmallH	correct	congruent	0.48047	no	H	H
466.1757812	n/a	119341	responseSmallH	correct	n/a	0.48047	no	n/a	n/a
467.2539062	n/a	119617	largeTSmallH	correct	incongruent	0.50391	no	T	H
467.7578125	n/a	119746	responseSmallH	correct	n/a	0.50391	no	n/a	n/a
468.828125	n/a	120020	largeHSmallT	correct	incongruent	0.48047	no	H	T
469.3085938	n/a	120143	responseSmallT	correct	n/a	0.48047	no	n/a	n/a
470.3867188	n/a	120419	largeTSmallH	correct	incongruent	0.46094	no	T	H
470.8476562	n/a	120537	responseSmallH	correct	n/a	0.46094	no	n/a	n/a
471.921875	n/a	120812	largeHSmallT	error	incongruent	0.48438	no	H	T
472.40625	n/a	120936	responseSmallH	error	n/a	0.48438	no	n/a	n/a
473.4804688	n/a	121211	largeTSmallH	error	incongruent	0.55078	no	T	H
474.03125	n/a	121352	responseSmallT	error	n/a	0.55078	no	n/a	n/a
475.09375	n/a	121624	largeHSmallH	correct	congruent	0.51562	no	H	H
475.609375	n/a	121756	responseSmallH	correct	n/a	0.51562	no	n/a	n/a
476.6679688	n/a	122027	largeHSmallH	correct	congruent	0.48828	no	H	H
477.15625	n/a	122152	responseSmallH	correct	n/a	0.48828	no	n/a	n/a
478.2265625	n/a	122426	largeTSmallH	correct	incongruent	0.62109	no	T	H
478.8476562	n/a	122585	responseSmallH	correct	n/a	0.62109	no	n/a	n/a
479.921875	n/a	122860	largeTSmallT	correct	congruent	0.49219	no	T	T
480.4140625	n/a	122986	responseSmallT	correct	n/a	0.49219	no	n/a	n/a
481.4804688	n/a	123259	largeTSmallT	correct	congruent	0.55078	no	T	T
482.03125	n/a	123400	responseSmallT	correct	n/a	0.55078	no	n/a	n/a
483.1054688	n/a	123675	largeHSmallH	correct	congruent	0.68359	no	H	H
483.7890625	n/a	123850	responseSmallH	correct	n/a	0.68359	no	n/a	n/a
484.8671875	n/a	124126	largeHSmallT	correct	incongruent	0.44141	no	H	T
485.3085938	n/a	124239	responseSmallT	correct	n/a	0.44141	no	n/a	n/a
486.375	n/a	124512	largeHSmallT	correct	incongruent	0.52344	no	H	T
486.8984375	n/a	124646	responseSmallT	correct	n/a	0.52344	no	n/a	n/a
487.9726562	n/a	124921	largeHSmallH	correct	congruent	0.50391	no	H	H
488.4765625	n/a	125050	responseSmallH	correct	n/a	0.50391	no	n/a	n/a
489.546875	n/a	125324	largeTSmallT	correct	congruent	0.5	no	T	T
490.046875	n/a	125452	responseSmallT	correct	n/a	0.5	no	n/a	n/a
491.1210938	n/a	125727	largeHSmallT	correct	incongruent	0.89844	no	H	T
492.0195312	n/a	125957	responseSmallT	correct	n/a	0.89844	no	n/a	n/a
493.0820312	n/a	126229	largeHSmallT	correct	incongruent	0.51172	no	H	T
493.59375	n/a	126360	responseSmallT	correct	n/a	0.51172	no	n/a	n/a
494.6523438	n/a	126631	largeTSmallT	correct	congruent	0.50781	no	T	T
495.1601562	n/a	126761	responseSmallT	correct	n/a	0.50781	no	n/a	n/a
496.2421875	n/a	127038	largeHSmallH	correct	congruent	0.47266	no	H	H
496.7148438	n/a	127159	responseSmallH	correct	n/a	0.47266	no	n/a	n/a
497.7734375	n/a	127430	largeHSmallH	correct	congruent	0.53125	no	H	H
498.3046875	n/a	127566	responseSmallH	correct	n/a	0.53125	no	n/a	n/a
499.375	n/a	127840	largeTSmallH	correct	incongruent	0.48438	no	T	H
499.859375	n/a	127964	responseSmallH	correct	n/a	0.48438	no	n/a	n/a
500.9335938	n/a	128239	largeHSmallT	correct	incongruent	0.56641	no	H	T
501.5	n/a	128384	responseSmallT	correct	n/a	0.56641	no	n/a	n/a
502.5742188	n/a	128659	largeTSmallT	correct	congruent	0.50391	no	T	T
503.078125	n/a	128788	responseSmallT	correct	n/a	0.50391	no	n/a	n/a
504.1484375	n/a	129062	largeHSmallT	correct	incongruent	0.49609	no	H	T
504.6445312	n/a	129189	responseSmallT	correct	n/a	0.49609	no	n/a	n/a
505.71875	n/a	129464	largeTSmallH	correct	incongruent	0.55469	no	T	H
506.2734375	n/a	129606	responseSmallH	correct	n/a	0.55469	no	n/a	n/a
507.3476562	n/a	129881	largeHSmallT	correct	incongruent	0.5625	no	H	T
507.9101562	n/a	130025	responseSmallT	correct	n/a	0.5625	no	n/a	n/a
508.9882812	n/a	130301	largeTSmallT	correct	congruent	0.91797	no	T	T
509.90625	n/a	130536	responseSmallT	correct	n/a	0.91797	no	n/a	n/a
510.9726562	n/a	130809	largeTSmallH	correct	incongruent	0.46094	no	T	H
511.4335938	n/a	130927	responseSmallH	correct	n/a	0.46094	no	n/a	n/a
512.5078125	n/a	131202	largeTSmallH	correct	incongruent	0.54688	no	T	H
513.0546875	n/a	131342	responseSmallH	correct	n/a	0.54688	no	n/a	n/a
514.1328125	n/a	131618	largeHSmallT	correct	incongruent	0.46875	no	H	T
514.6015625	n/a	131738	responseSmallT	correct	n/a	0.46875	no	n/a	n/a
515.6679688	n/a	132011	largeTSmallT	correct	congruent	0.52344	no	T	T
516.1914062	n/a	132145	responseSmallT	correct	n/a	0.52344	no	n/a	n/a
517.265625	n/a	132420	largeTSmallH	correct	incongruent	0.48438	no	T	H
517.75	n/a	132544	responseSmallH	correct	n/a	0.48438	no	n/a	n/a
518.828125	n/a	132820	largeTSmallH	correct	incongruent	0.5	no	T	H
519.328125	n/a	132948	responseSmallH	correct	n/a	0.5	no	n/a	n/a
520.3984375	n/a	133222	largeHSmallH	correct	congruent	0.52344	no	H	H
520.921875	n/a	133356	responseSmallH	correct	n/a	0.52344	no	n/a	n/a
521.9882812	n/a	133629	largeHSmallH	correct	congruent	0.52344	no	H	H
522.5117188	n/a	133763	responseSmallH	correct	n/a	0.52344	no	n/a	n/a
523.5859375	n/a	134038	largeHSmallH	correct	congruent	0.45703	no	H	H
524.0429688	n/a	134155	responseSmallH	correct	n/a	0.45703	no	n/a	n/a
525.1054688	n/a	134427	largeHSmallT	correct	incongruent	0.53906	no	H	T
525.6445312	n/a	134565	responseSmallT	correct	n/a	0.53906	no	n/a	n/a
526.71875	n/a	134840	largeHSmallH	correct	congruent	0.45312	no	H	H
527.171875	n/a	134956	responseSmallH	correct	n/a	0.45312	no	n/a	n/a
528.2382812	n/a	135229	largeHSmallH	correct	congruent	0.44531	no	H	H
528.6835938	n/a	135343	responseSmallH	correct	n/a	0.44531	no	n/a	n/a
529.7578125	n/a	135618	largeTSmallH	error	incongruent	0.60547	no	T	H
530.3632812	n/a	135773	responseSmallT	error	n/a	0.60547	no	n/a	n/a
531.4257812	n/a	136045	largeHSmallT	correct	incongruent	0.46484	no	H	T
531.890625	n/a	136164	responseSmallT	correct	n/a	0.46484	no	n/a	n/a
532.9609375	n/a	136438	largeTSmallT	correct	congruent	0.49219	no	T	T
533.453125	n/a	136564	responseSmallT	correct	n/a	0.49219	no	n/a	n/a
534.5195312	n/a	136837	largeHSmallH	correct	congruent	0.59766	no	H	H
535.1171875	n/a	136990	responseSmallH	correct	n/a	0.59766	no	n/a	n/a
536.1875	n/a	137264	largeHSmallH	correct	congruent	0.73438	no	H	H
536.921875	n/a	137452	responseSmallH	correct	n/a	0.73438	no	n/a	n/a
538	n/a	137728	largeHSmallH	correct	congruent	0.53906	no	H	H
538.5390625	n/a	137866	responseSmallH	correct	n/a	0.53906	no	n/a	n/a
539.5976562	n/a	138137	largeTSmallH	correct	incongruent	0.64844	no	T	H
540.2460938	n/a	138303	responseSmallH	correct	n/a	0.64844	no	n/a	n/a
541.3203125	n/a	138578	largeHSmallH	correct	congruent	0.47266	no	H	H
541.7929688	n/a	138699	responseSmallH	correct	n/a	0.47266	no	n/a	n/a
542.8671875	n/a	138974	largeTSmallT	correct	congruent	0.50391	no	T	T
543.3710938	n/a	139103	responseSmallT	correct	n/a	0.50391	no	n/a	n/a
544.4375	n/a	139376	largeHSmallH	correct	congruent	0.54297	no	H	H
544.9804688	n/a	139515	responseSmallH	correct	n/a	0.54297	no	n/a	n/a
546.0507812	n/a	139789	largeHSmallT	correct	incongruent	0.52734	no	H	T
546.578125	n/a	139924	responseSmallT	correct	n/a	0.52734	no	n/a	n/a
547.6523438	n/a	140199	largeTSmallH	correct	incongruent	0.47656	no	T	H
548.1289062	n/a	140321	responseSmallH	correct	n/a	0.47656	no	n/a	n/a
550.8007812	n/a	141005	largeHSmallT	error	incongruent	0.44531	no	H	T
551.2460938	n/a	141119	responseSmallH	error	n/a	0.44531	no	n/a	n/a
552.3203125	n/a	141394	largeTSmallH	correct	incongruent	0.57812	no	T	H
552.8984375	n/a	141542	responseSmallH	correct	n/a	0.57812	no	n/a	n/a
553.9726562	n/a	141817	largeHSmallT	correct	incongruent	0.48047	no	H	T
554.453125	n/a	141940	responseSmallT	correct	n/a	0.48047	no	n/a	n/a
555.5195312	n/a	142213	largeTSmallH	correct	incongruent	0.42188	no	T	H
555.9414062	n/a	142321	responseSmallH	correct	n/a	0.42188	no	n/a	n/a
557.0117188	n/a	142595	largeTSmallT	correct	congruent	0.60938	no	T	T
557.6210938	n/a	142751	responseSmallT	correct	n/a	0.60938	no	n/a	n/a
558.6914062	n/a	143025	largeHSmallT	correct	incongruent	0.57031	no	H	T
559.2617188	n/a	143171	responseSmallT	correct	n/a	0.57031	no	n/a	n/a
560.3320312	n/a	143445	largeHSmallH	correct	congruent	0.60938	no	H	H
560.9414062	n/a	143601	responseSmallH	correct	n/a	0.60938	no	n/a	n/a
562.0273438	n/a	143879	largeHSmallT	correct	incongruent	0.53516	no	H	T
562.5625	n/a	144016	responseSmallT	correct	n/a	0.53516	no	n/a	n/a
563.625	n/a	144288	largeHSmallT	correct	incongruent	0.5	no	H	T
564.125	n/a	144416	responseSmallT	correct	n/a	0.5	no	n/a	n/a
565.2109375	n/a	144694	largeHSmallH	correct	congruent	0.45703	no	H	H
565.6679688	n/a	144811	responseSmallH	correct	n/a	0.45703	no	n/a	n/a
566.7304688	n/a	145083	largeHSmallT	correct	incongruent	0.48828	no	H	T
567.21875	n/a	145208	responseSmallT	correct	n/a	0.48828	no	n/a	n/a
568.2929688	n/a	145483	largeTSmallH	correct	incongruent	0.51953	no	T	H
568.8125	n/a	145616	responseSmallH	correct	n/a	0.51953	no	n/a	n/a
569.8789062	n/a	145889	largeHSmallH	correct	congruent	0.49219	no	H	H
570.3710938	n/a	146015	responseSmallH	correct	n/a	0.49219	no	n/a	n/a
571.4375	n/a	146288	largeHSmallH	correct	congruent	0.46094	no	H	H
571.8984375	n/a	146406	responseSmallH	correct	n/a	0.46094	no	n/a	n/a
572.9726562	n/a	146681	largeHSmallH	correct	congruent	0.4375	no	H	H
573.4101562	n/a	146793	responseSmallH	correct	n/a	0.4375	no	n/a	n/a
574.4804688	n/a	147067	largeHSmallT	correct	incongruent	0.85938	no	H	T
575.3398438	n/a	147287	responseSmallT	correct	n/a	0.85938	no	n/a	n/a
576.4101562	n/a	147561	largeTSmallT	correct	congruent	0.50781	no	T	T
576.9179688	n/a	147691	responseSmallT	correct	n/a	0.50781	no	n/a	n/a
578	n/a	147968	largeTSmallT	correct	congruent	0.51953	no	T	T
578.5195312	n/a	148101	responseSmallT	correct	n/a	0.51953	no	n/a	n/a
579.5859375	n/a	148374	largeTSmallT	correct	congruent	0.43359	no	T	T
580.0195312	n/a	148485	responseSmallT	correct	n/a	0.43359	no	n/a	n/a
581.0898438	n/a	148759	largeTSmallH	correct	incongruent	0.5	no	T	H
581.5898438	n/a	148887	responseSmallH	correct	n/a	0.5	no	n/a	n/a
582.6640625	n/a	149162	largeTSmallT	correct	congruent	0.47266	no	T	T
583.1367188	n/a	149283	responseSmallT	correct	n/a	0.47266	no	n/a	n/a
584.1992188	n/a	149555	largeTSmallH	correct	incongruent	0.51953	no	T	H
584.71875	n/a	149688	responseSmallH	correct	n/a	0.51953	no	n/a	n/a
585.796875	n/a	149964	largeTSmallT	correct	congruent	0.44922	no	T	T
586.2460938	n/a	150079	responseSmallT	correct	n/a	0.44922	no	n/a	n/a
587.3046875	n/a	150350	largeTSmallT	correct	congruent	0.45703	no	T	T
587.7617188	n/a	150467	responseSmallT	correct	n/a	0.45703	no	n/a	n/a
588.8398438	n/a	150743	largeHSmallT	correct	incongruent	0.54688	no	H	T
589.3867188	n/a	150883	responseSmallT	correct	n/a	0.54688	no	n/a	n/a
590.4648438	n/a	151159	largeTSmallT	correct	congruent	0.44922	no	T	T
590.9140625	n/a	151274	responseSmallT	correct	n/a	0.44922	no	n/a	n/a
591.984375	n/a	151548	largeHSmallT	correct	incongruent	0.50781	no	H	T
592.4921875	n/a	151678	responseSmallT	correct	n/a	0.50781	no	n/a	n/a
593.5703125	n/a	151954	largeTSmallT	correct	congruent	0.51562	no	T	T
594.0859375	n/a	152086	responseSmallT	correct	n/a	0.51562	no	n/a	n/a
595.15625	n/a	152360	largeTSmallH	correct	incongruent	0.46484	no	T	H
595.6210938	n/a	152479	responseSmallH	correct	n/a	0.46484	no	n/a	n/a
596.6914062	n/a	152753	largeHSmallH	error	congruent	0.58984	no	H	H
597.28125	n/a	152904	responseSmallT	error	n/a	0.58984	no	n/a	n/a
598.359375	n/a	153180	largeTSmallT	correct	congruent	0.51562	no	T	T
598.875	n/a	153312	responseSmallT	correct	n/a	0.51562	no	n/a	n/a
599.9453125	n/a	153586	largeHSmallT	correct	incongruent	0.60938	no	H	T
600.5546875	n/a	153742	responseSmallT	correct	n/a	0.60938	no	n/a	n/a
601.625	n/a	154016	largeTSmallH	correct	incongruent	0.48047	no	T	H
602.1054688	n/a	154139	responseSmallH	correct	n/a	0.48047	no	n/a	n/a
603.171875	n/a	154412	largeTSmallH	correct	incongruent	0.48047	no	T	H
603.6523438	n/a	154535	responseSmallH	correct	n/a	0.48047	no	n/a	n/a
604.71875	n/a	154808	largeTSmallH	correct	incongruent	0.53125	no	T	H
605.25	n/a	154944	responseSmallH	correct	n/a	0.53125	no	n/a	n/a
606.3320312	n/a	155221	largeTSmallH	correct	incongruent	0.51953	no	T	H
606.8515625	n/a	155354	responseSmallH	correct	n/a	0.51953	no	n/a	n/a
607.9179688	n/a	155627	largeHSmallT	correct	incongruent	0.52734	no	H	T
608.4453125	n/a	155762	responseSmallT	correct	n/a	0.52734	no	n/a	n/a
609.515625	n/a	156036	largeTSmallT	correct	congruent	0.55469	no	T	T
610.0703125	n/a	156178	responseSmallT	correct	n/a	0.55469	no	n/a	n/a
611.1445312	n/a	156453	largeTSmallH	error	incongruent	0.42578	no	T	H
611.5703125	n/a	156562	responseSmallT	error	n/a	0.42578	no	n/a	n/a
612.6367188	n/a	156835	largeHSmallT	correct	incongruent	0.52344	no	H	T
613.1601562	n/a	156969	responseSmallT	correct	n/a	0.52344	no	n/a	n/a
614.2382812	n/a	157245	largeHSmallT	correct	incongruent	0.49609	no	H	T
614.734375	n/a	157372	responseSmallT	correct	n/a	0.49609	no	n/a	n/a
615.8125	n/a	157648	largeHSmallH	correct	congruent	0.45703	no	H	H
616.2695312	n/a	157765	responseSmallH	correct	n/a	0.45703	no	n/a	n/a
617.34375	n/a	158040	largeTSmallH	correct	incongruent	0.53516	no	T	H
617.8789062	n/a	158177	responseSmallH	correct	n/a	0.53516	no	n/a	n/a
618.9453125	n/a	158450	largeHSmallT	correct	incongruent	0.45312	no	H	T
619.3984375	n/a	158566	responseSmallT	correct	n/a	0.45312	no	n/a	n/a
620.4765625	n/a	158842	largeTSmallH	correct	incongruent	0.51172	no	T	H
620.9882812	n/a	158973	responseSmallH	correct	n/a	0.51172	no	n/a	n/a
622.0625	n/a	159248	largeHSmallT	correct	incongruent	0.67578	no	H	T
622.7382812	n/a	159421	responseSmallT	correct	n/a	0.67578	no	n/a	n/a
623.8125	n/a	159696	largeHSmallT	correct	incongruent	0.50391	no	H	T
624.3164062	n/a	159825	responseSmallT	correct	n/a	0.50391	no	n/a	n/a
625.3828125	n/a	160098	largeHSmallH	correct	congruent	0.49219	no	H	H
625.875	n/a	160224	responseSmallH	correct	n/a	0.49219	no	n/a	n/a
626.9453125	n/a	160498	largeTSmallT	correct	congruent	0.48047	no	T	T
627.4257812	n/a	160621	responseSmallT	correct	n/a	0.48047	no	n/a	n/a
628.4921875	n/a	160894	largeTSmallH	correct	incongruent	0.46875	no	T	H
628.9609375	n/a	161014	responseSmallH	correct	n/a	0.46875	no	n/a	n/a
630.0351562	n/a	161289	largeHSmallT	correct	incongruent	0.57031	no	H	T
630.6054688	n/a	161435	responseSmallT	correct	n/a	0.57031	no	n/a	n/a
631.6757812	n/a	161709	largeTSmallT	correct	congruent	0.64062	no	T	T
632.3164062	n/a	161873	responseSmallT	correct	n/a	0.64062	no	n/a	n/a
633.3984375	n/a	162150	largeTSmallH	correct	incongruent	0.48047	no	T	H
633.8789062	n/a	162273	responseSmallH	correct	n/a	0.48047	no	n/a	n/a
634.9570312	n/a	162549	largeTSmallT	correct	congruent	0.45703	no	T	T
635.4140625	n/a	162666	responseSmallT	correct	n/a	0.45703	no	n/a	n/a
636.4765625	n/a	162938	largeHSmallH	correct	congruent	0.53125	no	H	H
637.0078125	n/a	163074	responseSmallH	correct	n/a	0.53125	no	n/a	n/a
638.0898438	n/a	163351	largeHSmallT	correct	incongruent	0.49609	no	H	T
638.5859375	n/a	163478	responseSmallT	correct	n/a	0.49609	no	n/a	n/a
639.6640625	n/a	163754	largeHSmallH	correct	congruent	0.51953	no	H	H
640.1835938	n/a	163887	responseSmallH	correct	n/a	0.51953	no	n/a	n/a
641.25	n/a	164160	largeHSmallT	correct	incongruent	0.54297	no	H	T
641.7929688	n/a	164299	responseSmallT	correct	n/a	0.54297	no	n/a	n/a
642.8632812	n/a	164573	largeTSmallH	correct	incongruent	0.52344	no	T	H
643.3867188	n/a	164707	responseSmallH	correct	n/a	0.52344	no	n/a	n/a
644.4492188	n/a	164979	largeTSmallT	correct	congruent	0.43359	no	T	T
644.8828125	n/a	165090	responseSmallT	correct	n/a	0.43359	no	n/a	n/a
645.9570312	n/a	165365	largeHSmallH	correct	congruent	0.48828	no	H	H
646.4453125	n/a	165490	responseSmallH	correct	n/a	0.48828	no	n/a	n/a
647.515625	n/a	165764	largeTSmallH	error	incongruent	0.41406	no	T	H
647.9296875	n/a	165870	responseSmallT	error	n/a	0.41406	no	n/a	n/a
648.9960938	n/a	166143	largeTSmallT	correct	congruent	0.44531	no	T	T
649.4414062	n/a	166257	responseSmallT	correct	n/a	0.44531	no	n/a	n/a
650.515625	n/a	166532	largeHSmallT	correct	incongruent	0.51562	no	H	T
651.03125	n/a	166664	responseSmallT	correct	n/a	0.51562	no	n/a	n/a
661.1171875	n/a	169246	largeTSmallH	correct	incongruent	0.57812	no	T	H
661.6953125	n/a	169394	responseLargeT	correct	n/a	0.57812	no	n/a	n/a
662.7695312	n/a	169669	largeTSmallH	correct	incongruent	0.42578	no	T	H
663.1953125	n/a	169778	responseLargeT	correct	n/a	0.42578	no	n/a	n/a
664.2617188	n/a	170051	largeTSmallH	correct	incongruent	0.41406	no	T	H
664.6757812	n/a	170157	responseLargeT	correct	n/a	0.41406	no	n/a	n/a
665.7421875	n/a	170430	largeTSmallH	correct	incongruent	0.39453	no	T	H
666.1367188	n/a	170531	responseLargeT	correct	n/a	0.39453	no	n/a	n/a
667.2109375	n/a	170806	largeTSmallT	correct	congruent	0.40234	no	T	T
667.6132812	n/a	170909	responseLargeT	correct	n/a	0.40234	no	n/a	n/a
668.6757812	n/a	171181	largeHSmallT	correct	incongruent	0.44141	no	H	T
669.1171875	n/a	171294	responseLargeH	correct	n/a	0.44141	no	n/a	n/a
670.1953125	n/a	171570	largeHSmallT	correct	incongruent	0.44922	no	H	T
670.6445312	n/a	171685	responseLargeH	correct	n/a	0.44922	no	n/a	n/a
671.7148438	n/a	171959	largeHSmallH	correct	congruent	0.42969	no	H	H
672.1445312	n/a	172069	responseLargeH	correct	n/a	0.42969	no	n/a	n/a
673.2226562	n/a	172345	largeTSmallT	correct	congruent	0.42578	no	T	T
673.6484375	n/a	172454	responseLargeT	correct	n/a	0.42578	no	n/a	n/a
674.7148438	n/a	172727	largeTSmallT	correct	congruent	0.4375	no	T	T
675.1523438	n/a	172839	responseLargeT	correct	n/a	0.4375	no	n/a	n/a
676.234375	n/a	173116	largeHSmallH	correct	congruent	0.42969	no	H	H
676.6640625	n/a	173226	responseLargeH	correct	n/a	0.42969	no	n/a	n/a
677.7421875	n/a	173502	largeHSmallH	correct	congruent	0.42578	no	H	H
678.1679688	n/a	173611	responseLargeH	correct	n/a	0.42578	no	n/a	n/a
679.234375	n/a	173884	largeTSmallT	correct	congruent	0.40234	no	T	T
679.6367188	n/a	173987	responseLargeT	correct	n/a	0.40234	no	n/a	n/a
680.703125	n/a	174260	largeTSmallH	error	incongruent	0.60938	no	T	H
681.3125	n/a	174416	responseLargeH	error	n/a	0.60938	no	n/a	n/a
682.3945312	n/a	174693	largeHSmallH	correct	congruent	0.5	no	H	H
682.8945312	n/a	174821	responseLargeH	correct	n/a	0.5	no	n/a	n/a
683.96875	n/a	175096	largeHSmallT	error	incongruent	0.57031	no	H	T
684.5390625	n/a	175242	responseLargeT	error	n/a	0.57031	no	n/a	n/a
685.609375	n/a	175516	largeHSmallT	error	incongruent	0.52344	no	H	T
686.1328125	n/a	175650	responseLargeT	error	n/a	0.52344	no	n/a	n/a
687.2070312	n/a	175925	largeHSmallT	correct	incongruent	0.68359	no	H	T
687.890625	n/a	176100	responseLargeH	correct	n/a	0.68359	no	n/a	n/a
688.9570312	n/a	176373	largeTSmallH	correct	incongruent	0.42188	no	T	H
689.3789062	n/a	176481	responseLargeT	correct	n/a	0.42188	no	n/a	n/a
690.4609375	n/a	176758	largeHSmallT	correct	incongruent	0.60547	no	H	T
691.0664062	n/a	176913	responseLargeH	correct	n/a	0.60547	no	n/a	n/a
692.140625	n/a	177188	largeHSmallH	correct	congruent	0.52734	no	H	H
692.6679688	n/a	177323	responseLargeH	correct	n/a	0.52734	no	n/a	n/a
693.7304688	n/a	177595	largeTSmallT	correct	congruent	0.45312	no	T	T
694.1835938	n/a	177711	responseLargeT	correct	n/a	0.45312	no	n/a	n/a
695.2617188	n/a	177987	largeHSmallT	correct	incongruent	0.62109	no	H	T
695.8828125	n/a	178146	responseLargeH	correct	n/a	0.62109	no	n/a	n/a
696.9414062	n/a	178417	largeHSmallH	correct	congruent	0.51953	no	H	H
697.4609375	n/a	178550	responseLargeH	correct	n/a	0.51953	no	n/a	n/a
698.5429688	n/a	178827	largeTSmallH	correct	incongruent	0.42578	no	T	H
698.96875	n/a	178936	responseLargeT	correct	n/a	0.42578	no	n/a	n/a
700.0351562	n/a	179209	largeTSmallH	error	incongruent	0.72656	no	T	H
700.7617188	n/a	179395	responseLargeH	error	n/a	0.72656	no	n/a	n/a
701.8203125	n/a	179666	largeTSmallT	correct	congruent	0.51562	no	T	T
702.3359375	n/a	179798	responseLargeT	correct	n/a	0.51562	no	n/a	n/a
703.4101562	n/a	180073	largeTSmallH	correct	incongruent	0.45312	no	T	H
703.8632812	n/a	180189	responseLargeT	correct	n/a	0.45312	no	n/a	n/a
704.9296875	n/a	180462	largeHSmallH	correct	congruent	0.47656	no	H	H
705.40625	n/a	180584	responseLargeH	correct	n/a	0.47656	no	n/a	n/a
706.4765625	n/a	180858	largeHSmallT	correct	incongruent	0.66406	no	H	T
707.140625	n/a	181028	responseLargeH	correct	n/a	0.66406	no	n/a	n/a
708.2070312	n/a	181301	largeHSmallT	correct	incongruent	0.47656	no	H	T
708.6835938	n/a	181423	responseLargeH	correct	n/a	0.47656	no	n/a	n/a
709.7539062	n/a	181697	largeHSmallH	correct	congruent	0.45312	no	H	H
710.2070312	n/a	181813	responseLargeH	correct	n/a	0.45312	no	n/a	n/a
711.2890625	n/a	182090	largeHSmallT	correct	incongruent	0.48828	no	H	T
711.7773438	n/a	182215	responseLargeH	correct	n/a	0.48828	no	n/a	n/a
712.8476562	n/a	182489	largeHSmallH	correct	congruent	0.46094	no	H	H
713.3085938	n/a	182607	responseLargeH	correct	n/a	0.46094	no	n/a	n/a
714.3671875	n/a	182878	largeHSmallH	correct	congruent	0.41797	no	H	H
714.7851562	n/a	182985	responseLargeH	correct	n/a	0.41797	no	n/a	n/a
715.8476562	n/a	183257	largeTSmallH	correct	incongruent	0.39844	no	T	H
716.2460938	n/a	183359	responseLargeT	correct	n/a	0.39844	no	n/a	n/a
717.3164062	n/a	183633	largeHSmallT	correct	incongruent	0.41797	no	H	T
717.734375	n/a	183740	responseLargeH	correct	n/a	0.41797	no	n/a	n/a
718.8085938	n/a	184015	largeTSmallT	correct	congruent	0.51562	no	T	T
719.3242188	n/a	184147	responseLargeT	correct	n/a	0.51562	no	n/a	n/a
720.3945312	n/a	184421	largeTSmallH	correct	incongruent	0.60938	no	T	H
721.0039062	n/a	184577	responseLargeT	correct	n/a	0.60938	no	n/a	n/a
722.0742188	n/a	184851	largeHSmallH	correct	congruent	0.39453	no	H	H
722.46875	n/a	184952	responseLargeH	correct	n/a	0.39453	no	n/a	n/a
723.5429688	n/a	185227	largeTSmallT	correct	congruent	0.54688	no	T	T
724.0898438	n/a	185367	responseLargeT	correct	n/a	0.54688	no	n/a	n/a
725.1679688	n/a	185643	largeHSmallH	correct	congruent	0.46094	no	H	H
725.6289062	n/a	185761	responseLargeH	correct	n/a	0.46094	no	n/a	n/a
726.703125	n/a	186036	largeTSmallT	correct	congruent	0.51172	no	T	T
727.2148438	n/a	186167	responseLargeT	correct	n/a	0.51172	no	n/a	n/a
728.2890625	n/a	186442	largeHSmallT	correct	incongruent	0.46094	no	H	T
728.75	n/a	186560	responseLargeH	correct	n/a	0.46094	no	n/a	n/a
729.8203125	n/a	186834	largeHSmallH	correct	congruent	0.47656	no	H	H
730.296875	n/a	186956	responseLargeH	correct	n/a	0.47656	no	n/a	n/a
731.3554688	n/a	187227	largeHSmallH	correct	congruent	0.53516	no	H	H
731.890625	n/a	187364	responseLargeH	correct	n/a	0.53516	no	n/a	n/a
732.96875	n/a	187640	largeHSmallT	error	incongruent	0.50781	no	H	T
733.4765625	n/a	187770	responseLargeT	error	n/a	0.50781	no	n/a	n/a
734.5390625	n/a	188042	largeHSmallH	correct	congruent	0.42969	no	H	H
734.96875	n/a	188152	responseLargeH	correct	n/a	0.42969	no	n/a	n/a
736.0351562	n/a	188425	largeTSmallH	correct	incongruent	0.46484	no	T	H
736.5	n/a	188544	responseLargeT	correct	n/a	0.46484	no	n/a	n/a
737.5664062	n/a	188817	largeTSmallH	error	incongruent	0.50781	no	T	H
738.0742188	n/a	188947	responseLargeH	error	n/a	0.50781	no	n/a	n/a
739.140625	n/a	189220	largeTSmallH	correct	incongruent	0.58203	no	T	H
739.7226562	n/a	189369	responseLargeT	correct	n/a	0.58203	no	n/a	n/a
740.7929688	n/a	189643	largeTSmallT	correct	congruent	0.53906	no	T	T
741.3320312	n/a	189781	responseLargeT	correct	n/a	0.53906	no	n/a	n/a
742.40625	n/a	190056	largeTSmallT	correct	congruent	0.45703	no	T	T
742.8632812	n/a	190173	responseLargeT	correct	n/a	0.45703	no	n/a	n/a
743.9257812	n/a	190445	largeTSmallH	error	incongruent	0.51953	no	T	H
744.4453125	n/a	190578	responseLargeH	error	n/a	0.51953	no	n/a	n/a
745.5273438	n/a	190855	largeTSmallH	correct	incongruent	0.49219	no	T	H
746.0195312	n/a	190981	responseLargeT	correct	n/a	0.49219	no	n/a	n/a
747.0859375	n/a	191254	largeTSmallH	correct	incongruent	0.41406	no	T	H
747.5	n/a	191360	responseLargeT	correct	n/a	0.41406	no	n/a	n/a
748.5664062	n/a	191633	largeHSmallT	correct	incongruent	0.58594	no	H	T
749.1523438	n/a	191783	responseLargeH	correct	n/a	0.58594	no	n/a	n/a
750.2226562	n/a	192057	largeHSmallT	correct	incongruent	0.82422	no	H	T
751.046875	n/a	192268	responseLargeH	correct	n/a	0.82422	no	n/a	n/a
752.1289062	n/a	192545	largeHSmallT	correct	incongruent	0.42969	no	H	T
752.5585938	n/a	192655	responseLargeH	correct	n/a	0.42969	no	n/a	n/a
753.6328125	n/a	192930	largeHSmallH	correct	congruent	0.42578	no	H	H
754.0585938	n/a	193039	responseLargeH	correct	n/a	0.42578	no	n/a	n/a
755.140625	n/a	193316	largeTSmallT	correct	congruent	0.44531	no	T	T
755.5859375	n/a	193430	responseLargeT	correct	n/a	0.44531	no	n/a	n/a
756.6601562	n/a	193705	largeTSmallT	correct	congruent	0.53516	no	T	T
757.1953125	n/a	193842	responseLargeT	correct	n/a	0.53516	no	n/a	n/a
758.2734375	n/a	194118	largeHSmallT	correct	incongruent	0.47266	no	H	T
758.7460938	n/a	194239	responseLargeH	correct	n/a	0.47266	no	n/a	n/a
759.8085938	n/a	194511	largeTSmallH	correct	incongruent	0.41406	no	T	H
760.2226562	n/a	194617	responseLargeT	correct	n/a	0.41406	no	n/a	n/a
761.3007812	n/a	194893	largeTSmallH	correct	incongruent	0.71484	no	T	H
762.015625	n/a	195076	responseLargeT	correct	n/a	0.71484	no	n/a	n/a
763.0859375	n/a	195350	largeHSmallH	correct	congruent	0.42188	no	H	H
763.5078125	n/a	195458	responseLargeH	correct	n/a	0.42188	no	n/a	n/a
764.59375	n/a	195736	largeHSmallH	correct	congruent	0.44141	no	H	H
765.0351562	n/a	195849	responseLargeH	correct	n/a	0.44141	no	n/a	n/a
766.1015625	n/a	196122	largeHSmallT	correct	incongruent	0.63281	no	H	T
766.734375	n/a	196284	responseLargeH	correct	n/a	0.63281	no	n/a	n/a
767.8085938	n/a	196559	largeTSmallT	correct	congruent	0.41797	no	T	T
768.2265625	n/a	196666	responseLargeT	correct	n/a	0.41797	no	n/a	n/a
769.3007812	n/a	196941	largeHSmallT	correct	incongruent	0.48828	no	H	T
769.7890625	n/a	197066	responseLargeH	correct	n/a	0.48828	no	n/a	n/a
770.859375	n/a	197340	largeHSmallH	correct	congruent	0.56641	no	H	H
771.4257812	n/a	197485	responseLargeH	correct	n/a	0.56641	no	n/a	n/a
772.5	n/a	197760	largeHSmallH	correct	congruent	0.42578	no	H	H
772.9257812	n/a	197869	responseLargeH	correct	n/a	0.42578	no	n/a	n/a
773.9921875	n/a	198142	largeTSmallH	correct	incongruent	0.46875	no	T	H
774.4609375	n/a	198262	responseLargeT	correct	n/a	0.46875	no	n/a	n/a
775.5273438	n/a	198535	largeTSmallH	error	incongruent	0.53906	no	T	H
776.0664062	n/a	198673	responseLargeH	error	n/a	0.53906	no	n/a	n/a
777.1523438	n/a	198951	largeHSmallT	correct	incongruent	0.45703	no	H	T
777.609375	n/a	199068	responseLargeH	correct	n/a	0.45703	no	n/a	n/a
778.671875	n/a	199340	largeTSmallT	correct	congruent	0.45312	no	T	T
779.125	n/a	199456	responseLargeT	correct	n/a	0.45312	no	n/a	n/a
780.2070312	n/a	199733	largeTSmallT	correct	congruent	0.44531	no	T	T
780.6523438	n/a	199847	responseLargeT	correct	n/a	0.44531	no	n/a	n/a
781.7148438	n/a	200119	largeHSmallH	correct	congruent	0.45703	no	H	H
782.171875	n/a	200236	responseLargeH	correct	n/a	0.45703	no	n/a	n/a
783.2460938	n/a	200511	largeHSmallT	correct	incongruent	0.48828	no	H	T
783.734375	n/a	200636	responseLargeH	correct	n/a	0.48828	no	n/a	n/a
784.8046875	n/a	200910	largeTSmallH	correct	incongruent	0.52734	no	T	H
785.3320312	n/a	201045	responseLargeT	correct	n/a	0.52734	no	n/a	n/a
786.3945312	n/a	201317	largeTSmallT	correct	congruent	0.49609	no	T	T
786.890625	n/a	201444	responseLargeT	correct	n/a	0.49609	no	n/a	n/a
787.953125	n/a	201716	largeHSmallH	correct	congruent	0.55859	no	H	H
788.5117188	n/a	201859	responseLargeH	correct	n/a	0.55859	no	n/a	n/a
789.578125	n/a	202132	largeHSmallT	correct	incongruent	0.43359	no	H	T
790.0117188	n/a	202243	responseLargeH	correct	n/a	0.43359	no	n/a	n/a
791.0742188	n/a	202515	largeHSmallH	correct	congruent	0.47656	no	H	H
791.5507812	n/a	202637	responseLargeH	correct	n/a	0.47656	no	n/a	n/a
792.6210938	n/a	202911	largeHSmallT	correct	incongruent	0.41797	no	H	T
793.0390625	n/a	203018	responseLargeH	correct	n/a	0.41797	no	n/a	n/a
794.125	n/a	203296	largeHSmallH	correct	congruent	0.4375	no	H	H
794.5625	n/a	203408	responseLargeH	correct	n/a	0.4375	no	n/a	n/a
795.6328125	n/a	203682	largeTSmallT	correct	congruent	0.46875	no	T	T
796.1015625	n/a	203802	responseLargeT	correct	n/a	0.46875	no	n/a	n/a
797.1796875	n/a	204078	largeTSmallT	correct	congruent	0.53516	no	T	T
797.7148438	n/a	204215	responseLargeT	correct	n/a	0.53516	no	n/a	n/a
798.78125	n/a	204488	largeHSmallT	correct	incongruent	0.45703	no	H	T
799.2382812	n/a	204605	responseLargeH	correct	n/a	0.45703	no	n/a	n/a
800.3125	n/a	204880	largeHSmallH	correct	congruent	0.42578	no	H	H
800.7382812	n/a	204989	responseLargeH	correct	n/a	0.42578	no	n/a	n/a
801.8046875	n/a	205262	largeTSmallT	correct	congruent	0.47656	no	T	T
802.28125	n/a	205384	responseLargeT	correct	n/a	0.47656	no	n/a	n/a
803.3515625	n/a	205658	largeTSmallT	correct	congruent	0.5	no	T	T
803.8515625	n/a	205786	responseLargeT	correct	n/a	0.5	no	n/a	n/a
804.9140625	n/a	206058	largeHSmallT	correct	incongruent	0.53125	no	H	T
805.4453125	n/a	206194	responseLargeH	correct	n/a	0.53125	no	n/a	n/a
806.5273438	n/a	206471	largeTSmallT	correct	congruent	0.64062	no	T	T
807.1679688	n/a	206635	responseLargeT	correct	n/a	0.64062	no	n/a	n/a
808.234375	n/a	206908	largeHSmallH	correct	congruent	0.39062	no	H	H
808.625	n/a	207008	responseLargeH	correct	n/a	0.39062	no	n/a	n/a
809.6875	n/a	207280	largeTSmallT	correct	congruent	0.48047	no	T	T
810.1679688	n/a	207403	responseLargeT	correct	n/a	0.48047	no	n/a	n/a
811.2460938	n/a	207679	largeTSmallT	error	congruent	0.57031	no	T	T
811.8164062	n/a	207825	responseLargeH	error	n/a	0.57031	no	n/a	n/a
812.8867188	n/a	208099	largeTSmallH	correct	incongruent	0.79688	no	T	H
813.6835938	n/a	208303	responseLargeT	correct	n/a	0.79688	no	n/a	n/a
814.7539062	n/a	208577	largeTSmallH	correct	incongruent	0.63672	no	T	H
815.390625	n/a	208740	responseLargeT	correct	n/a	0.63672	no	n/a	n/a
816.4570312	n/a	209013	largeTSmallT	correct	congruent	0.55078	no	T	T
817.0078125	n/a	209154	responseLargeT	correct	n/a	0.55078	no	n/a	n/a
818.0859375	n/a	209430	largeHSmallT	correct	incongruent	0.52344	no	H	T
818.609375	n/a	209564	responseLargeH	correct	n/a	0.52344	no	n/a	n/a
819.6875	n/a	209840	largeTSmallH	error	incongruent	0.67188	no	T	H
820.359375	n/a	210012	responseLargeH	error	n/a	0.67188	no	n/a	n/a
821.4335938	n/a	210287	largeHSmallT	correct	incongruent	0.9375	no	H	T
822.3710938	n/a	210527	responseLargeH	correct	n/a	0.9375	no	n/a	n/a
823.4453125	n/a	210802	largeHSmallT	correct	incongruent	0.48438	no	H	T
823.9296875	n/a	210926	responseLargeH	correct	n/a	0.48438	no	n/a	n/a
825.0039062	n/a	211201	largeTSmallH	correct	incongruent	0.42578	no	T	H
825.4296875	n/a	211310	responseLargeT	correct	n/a	0.42578	no	n/a	n/a
826.5117188	n/a	211587	largeTSmallT	correct	congruent	0.42969	no	T	T
826.9414062	n/a	211697	responseLargeT	correct	n/a	0.42969	no	n/a	n/a
828.0195312	n/a	211973	largeTSmallH	correct	incongruent	0.53906	no	T	H
828.5585938	n/a	212111	responseLargeT	correct	n/a	0.53906	no	n/a	n/a
829.6328125	n/a	212386	largeTSmallT	correct	congruent	0.44531	no	T	T
830.078125	n/a	212500	responseLargeT	correct	n/a	0.44531	no	n/a	n/a
831.1523438	n/a	212775	largeHSmallH	correct	congruent	0.51562	no	H	H
831.6679688	n/a	212907	responseLargeH	correct	n/a	0.51562	no	n/a	n/a
832.7382812	n/a	213181	largeHSmallH	correct	congruent	0.62891	no	H	H
833.3671875	n/a	213342	responseLargeH	correct	n/a	0.62891	no	n/a	n/a
834.4453125	n/a	213618	largeTSmallT	correct	congruent	0.5	no	T	T
834.9453125	n/a	213746	responseLargeT	correct	n/a	0.5	no	n/a	n/a
836.0195312	n/a	214021	largeHSmallT	correct	incongruent	0.57812	no	H	T
836.5976562	n/a	214169	responseLargeH	correct	n/a	0.57812	no	n/a	n/a
837.671875	n/a	214444	largeHSmallT	correct	incongruent	0.58594	no	H	T
838.2578125	n/a	214594	responseLargeH	correct	n/a	0.58594	no	n/a	n/a
839.3242188	n/a	214867	largeHSmallT	correct	incongruent	0.38281	no	H	T
839.7070312	n/a	214965	responseLargeH	correct	n/a	0.38281	no	n/a	n/a
840.7773438	n/a	215239	largeTSmallT	correct	congruent	0.49609	no	T	T
841.2734375	n/a	215366	responseLargeT	correct	n/a	0.49609	no	n/a	n/a
842.3398438	n/a	215639	largeHSmallT	correct	incongruent	0.48047	no	H	T
842.8203125	n/a	215762	responseLargeH	correct	n/a	0.48047	no	n/a	n/a
843.8984375	n/a	216038	largeHSmallH	correct	congruent	0.86328	no	H	H
844.7617188	n/a	216259	responseLargeH	correct	n/a	0.86328	no	n/a	n/a
845.8320312	n/a	216533	largeTSmallT	correct	congruent	0.44531	no	T	T
846.2773438	n/a	216647	responseLargeT	correct	n/a	0.44531	no	n/a	n/a
847.3515625	n/a	216922	largeHSmallT	correct	incongruent	0.79297	no	H	T
848.1445312	n/a	217125	responseLargeH	correct	n/a	0.79297	no	n/a	n/a
849.21875	n/a	217400	largeTSmallT	correct	congruent	0.49219	no	T	T
849.7109375	n/a	217526	responseLargeT	correct	n/a	0.49219	no	n/a	n/a
850.7773438	n/a	217799	largeHSmallT	correct	incongruent	0.5	no	H	T
851.2773438	n/a	217927	responseLargeH	correct	n/a	0.5	no	n/a	n/a
852.3515625	n/a	218202	largeTSmallT	correct	congruent	0.59375	no	T	T
852.9453125	n/a	218354	responseLargeT	correct	n/a	0.59375	no	n/a	n/a
854.0195312	n/a	218629	largeHSmallH	correct	congruent	0.44141	no	H	H
854.4609375	n/a	218742	responseLargeH	correct	n/a	0.44141	no	n/a	n/a
855.5390625	n/a	219018	largeHSmallH	correct	congruent	0.46094	no	H	H
856	n/a	219136	responseLargeH	correct	n/a	0.46094	no	n/a	n/a
857.0703125	n/a	219410	largeTSmallH	correct	incongruent	0.53125	no	T	H
857.6015625	n/a	219546	responseLargeT	correct	n/a	0.53125	no	n/a	n/a
858.671875	n/a	219820	largeHSmallT	correct	incongruent	0.47266	no	H	T
859.1445312	n/a	219941	responseLargeH	correct	n/a	0.47266	no	n/a	n/a
860.21875	n/a	220216	largeHSmallT	correct	incongruent	0.53906	no	H	T
860.7578125	n/a	220354	responseLargeH	correct	n/a	0.53906	no	n/a	n/a
861.8164062	n/a	220625	largeHSmallH	correct	congruent	0.47656	no	H	H
862.2929688	n/a	220747	responseLargeH	correct	n/a	0.47656	no	n/a	n/a
863.3632812	n/a	221021	largeTSmallT	correct	congruent	0.43359	no	T	T
863.796875	n/a	221132	responseLargeT	correct	n/a	0.43359	no	n/a	n/a
864.8710938	n/a	221407	largeTSmallH	correct	incongruent	0.55078	no	T	H
865.421875	n/a	221548	responseLargeT	correct	n/a	0.55078	no	n/a	n/a
866.484375	n/a	221820	largeHSmallT	correct	incongruent	0.47266	no	H	T
866.9570312	n/a	221941	responseLargeH	correct	n/a	0.47266	no	n/a	n/a
868.03125	n/a	222216	largeTSmallT	correct	congruent	0.48047	no	T	T
868.5117188	n/a	222339	responseLargeT	correct	n/a	0.48047	no	n/a	n/a
869.578125	n/a	222612	largeTSmallT	correct	congruent	0.53516	no	T	T
870.1132812	n/a	222749	responseLargeT	correct	n/a	0.53516	no	n/a	n/a
871.1757812	n/a	223021	largeHSmallT	correct	incongruent	0.46875	no	H	T
871.6445312	n/a	223141	responseLargeH	correct	n/a	0.46875	no	n/a	n/a
872.7109375	n/a	223414	largeTSmallH	correct	incongruent	0.69922	no	T	H
873.4101562	n/a	223593	responseLargeT	correct	n/a	0.69922	no	n/a	n/a
874.4726562	n/a	223865	largeHSmallH	correct	congruent	0.46484	no	H	H
874.9375	n/a	223984	responseLargeH	correct	n/a	0.46484	no	n/a	n/a
876.0039062	n/a	224257	largeHSmallH	correct	congruent	0.50391	no	H	H
876.5078125	n/a	224386	responseLargeH	correct	n/a	0.50391	no	n/a	n/a
877.578125	n/a	224660	largeTSmallT	correct	congruent	0.48828	no	T	T
878.0664062	n/a	224785	responseLargeT	correct	n/a	0.48828	no	n/a	n/a
879.1367188	n/a	225059	largeHSmallT	correct	incongruent	0.48828	no	H	T
879.625	n/a	225184	responseLargeH	correct	n/a	0.48828	no	n/a	n/a
880.6992188	n/a	225459	largeTSmallT	correct	congruent	0.44141	no	T	T
881.140625	n/a	225572	responseLargeT	correct	n/a	0.44141	no	n/a	n/a
882.21875	n/a	225848	largeTSmallH	correct	incongruent	0.52344	no	T	H
882.7421875	n/a	225982	responseLargeT	correct	n/a	0.52344	no	n/a	n/a
883.8164062	n/a	226257	largeTSmallT	correct	congruent	0.51953	no	T	T
884.3359375	n/a	226390	responseLargeT	correct	n/a	0.51953	no	n/a	n/a
885.4023438	n/a	226663	largeHSmallT	correct	incongruent	0.51172	no	H	T
885.9140625	n/a	226794	responseLargeH	correct	n/a	0.51172	no	n/a	n/a
886.9921875	n/a	227070	largeHSmallH	correct	congruent	0.44922	no	H	H
887.4414062	n/a	227185	responseLargeH	correct	n/a	0.44922	no	n/a	n/a
888.5117188	n/a	227459	largeHSmallT	correct	incongruent	0.51953	no	H	T
889.03125	n/a	227592	responseLargeH	correct	n/a	0.51953	no	n/a	n/a
890.109375	n/a	227868	largeHSmallT	correct	incongruent	0.48047	no	H	T
890.5898438	n/a	227991	responseLargeH	correct	n/a	0.48047	no	n/a	n/a
891.671875	n/a	228268	largeHSmallH	correct	congruent	0.44922	no	H	H
892.1210938	n/a	228383	responseLargeH	correct	n/a	0.44922	no	n/a	n/a
893.1914062	n/a	228657	largeTSmallT	correct	congruent	0.4375	no	T	T
893.6289062	n/a	228769	responseLargeT	correct	n/a	0.4375	no	n/a	n/a
894.6953125	n/a	229042	largeHSmallH	correct	congruent	0.53906	no	H	H
895.234375	n/a	229180	responseLargeH	correct	n/a	0.53906	no	n/a	n/a
896.296875	n/a	229452	largeHSmallT	correct	incongruent	0.48047	no	H	T
896.7773438	n/a	229575	responseLargeH	correct	n/a	0.48047	no	n/a	n/a
897.84375	n/a	229848	largeTSmallH	correct	incongruent	0.41797	no	T	H
898.2617188	n/a	229955	responseLargeT	correct	n/a	0.41797	no	n/a	n/a
899.3242188	n/a	230227	largeHSmallT	correct	incongruent	0.63281	no	H	T
899.9570312	n/a	230389	responseLargeH	correct	n/a	0.63281	no	n/a	n/a
901.03125	n/a	230664	largeTSmallH	correct	incongruent	0.36719	no	T	H
901.3984375	n/a	230758	responseLargeT	correct	n/a	0.36719	no	n/a	n/a
902.46875	n/a	231032	largeTSmallH	correct	incongruent	0.44141	no	T	H
902.9101562	n/a	231145	responseLargeT	correct	n/a	0.44141	no	n/a	n/a
903.9765625	n/a	231418	largeTSmallT	correct	congruent	0.46094	no	T	T
904.4375	n/a	231536	responseLargeT	correct	n/a	0.46094	no	n/a	n/a
905.4960938	n/a	231807	largeHSmallH	correct	congruent	0.46875	no	H	H
905.9648438	n/a	231927	responseLargeH	correct	n/a	0.46875	no	n/a	n/a
907.03125	n/a	232200	largeTSmallH	correct	incongruent	0.42188	no	T	H
907.453125	n/a	232308	responseLargeT	correct	n/a	0.42188	no	n/a	n/a
908.5234375	n/a	232582	largeTSmallH	correct	incongruent	0.52734	no	T	H
909.0507812	n/a	232717	responseLargeT	correct	n/a	0.52734	no	n/a	n/a
910.1210938	n/a	232991	largeTSmallT	correct	congruent	0.57812	no	T	T
910.6992188	n/a	233139	responseLargeT	correct	n/a	0.57812	no	n/a	n/a
911.7773438	n/a	233415	largeHSmallH	correct	congruent	0.48047	no	H	H
912.2578125	n/a	233538	responseLargeH	correct	n/a	0.48047	no	n/a	n/a
913.3359375	n/a	233814	largeHSmallH	correct	congruent	0.46484	no	H	H
913.8007812	n/a	233933	responseLargeH	correct	n/a	0.46484	no	n/a	n/a
914.8710938	n/a	234207	largeTSmallH	correct	incongruent	0.60547	no	T	H
915.4765625	n/a	234362	responseLargeT	correct	n/a	0.60547	no	n/a	n/a
916.5507812	n/a	234637	largeHSmallH	correct	congruent	0.42969	no	H	H
916.9804688	n/a	234747	responseLargeH	correct	n/a	0.42969	no	n/a	n/a
918.0429688	n/a	235019	largeHSmallT	correct	incongruent	0.51562	no	H	T
918.5585938	n/a	235151	responseLargeH	correct	n/a	0.51562	no	n/a	n/a
919.6171875	n/a	235422	largeTSmallH	correct	incongruent	0.44922	no	T	H
920.0664062	n/a	235537	responseLargeT	correct	n/a	0.44922	no	n/a	n/a
921.1367188	n/a	235811	largeHSmallT	correct	incongruent	0.39844	no	H	T
921.5351562	n/a	235913	responseLargeH	correct	n/a	0.39844	no	n/a	n/a
922.6015625	n/a	236186	largeTSmallH	correct	incongruent	0.40625	no	T	H
923.0078125	n/a	236290	responseLargeT	correct	n/a	0.40625	no	n/a	n/a
924.0820312	n/a	236565	largeTSmallH	error	incongruent	0.46484	no	T	H
924.546875	n/a	236684	responseLargeH	error	n/a	0.46484	no	n/a	n/a
925.6171875	n/a	236958	largeTSmallT	correct	congruent	0.51562	no	T	T
926.1328125	n/a	237090	responseLargeT	correct	n/a	0.51562	no	n/a	n/a
927.203125	n/a	237364	largeHSmallH	correct	congruent	0.42969	no	H	H
927.6328125	n/a	237474	responseLargeH	correct	n/a	0.42969	no	n/a	n/a
928.7109375	n/a	237750	largeHSmallH	correct	congruent	0.47656	no	H	H
929.1875	n/a	237872	responseLargeH	correct	n/a	0.47656	no	n/a	n/a
930.2578125	n/a	238146	largeTSmallT	correct	congruent	0.49609	no	T	T
930.7539062	n/a	238273	responseLargeT	correct	n/a	0.49609	no	n/a	n/a
931.8164062	n/a	238545	largeTSmallH	error	incongruent	0.58203	no	T	H
932.3984375	n/a	238694	responseLargeH	error	n/a	0.58203	no	n/a	n/a
933.46875	n/a	238968	largeHSmallH	correct	congruent	0.48438	no	H	H
933.953125	n/a	239092	responseLargeH	correct	n/a	0.48438	no	n/a	n/a
935.015625	n/a	239364	largeHSmallT	correct	incongruent	0.5625	no	H	T
935.578125	n/a	239508	responseLargeH	correct	n/a	0.5625	no	n/a	n/a
936.65625	n/a	239784	largeTSmallT	correct	congruent	0.5	no	T	T
937.15625	n/a	239912	responseLargeT	correct	n/a	0.5	no	n/a	n/a
938.2304688	n/a	240187	largeTSmallH	correct	incongruent	0.48047	no	T	H
938.7109375	n/a	240310	responseLargeT	correct	n/a	0.48047	no	n/a	n/a
939.7773438	n/a	240583	largeTSmallH	correct	incongruent	0.94922	no	T	H
940.7265625	n/a	240826	responseLargeT	correct	n/a	0.94922	no	n/a	n/a
941.8007812	n/a	241101	largeTSmallH	correct	incongruent	0.4375	no	T	H
942.2382812	n/a	241213	responseLargeT	correct	n/a	0.4375	no	n/a	n/a
943.3242188	n/a	241491	largeTSmallH	correct	incongruent	0.42969	no	T	H
943.7539062	n/a	241601	responseLargeT	correct	n/a	0.42969	no	n/a	n/a
944.828125	n/a	241876	largeHSmallT	correct	incongruent	0.63281	no	H	T
945.4609375	n/a	242038	responseLargeH	correct	n/a	0.63281	no	n/a	n/a
946.5351562	n/a	242313	largeHSmallH	correct	congruent	0.49219	no	H	H
947.0273438	n/a	242439	responseLargeH	correct	n/a	0.49219	no	n/a	n/a
948.09375	n/a	242712	largeHSmallT	error	incongruent	0.55859	no	H	T
948.6523438	n/a	242855	responseLargeT	error	n/a	0.55859	no	n/a	n/a
949.734375	n/a	243132	largeTSmallT	correct	congruent	0.44922	no	T	T
950.1835938	n/a	243247	responseLargeT	correct	n/a	0.44922	no	n/a	n/a
951.2539062	n/a	243521	largeTSmallT	correct	congruent	0.49219	no	T	T
951.7460938	n/a	243647	responseLargeT	correct	n/a	0.49219	no	n/a	n/a
952.8164062	n/a	243921	largeTSmallH	correct	incongruent	0.45703	no	T	H
953.2734375	n/a	244038	responseLargeT	correct	n/a	0.45703	no	n/a	n/a
954.3476562	n/a	244313	largeTSmallT	error	congruent	0.52344	no	T	T
954.8710938	n/a	244447	responseLargeH	error	n/a	0.52344	no	n/a	n/a
955.9335938	n/a	244719	largeHSmallH	correct	congruent	0.37109	no	H	H
956.3046875	n/a	244814	responseLargeH	correct	n/a	0.37109	no	n/a	n/a
957.375	n/a	245088	largeTSmallH	error	incongruent	0.51562	no	T	H
957.890625	n/a	245220	responseLargeH	error	n/a	0.51562	no	n/a	n/a
958.9609375	n/a	245494	largeHSmallT	correct	incongruent	0.49609	no	H	T
959.4570312	n/a	245621	responseLargeH	correct	n/a	0.49609	no	n/a	n/a
960.5234375	n/a	245894	largeTSmallT	correct	congruent	0.53906	no	T	T
961.0625	n/a	246032	responseLargeT	correct	n/a	0.53906	no	n/a	n/a
962.1367188	n/a	246307	largeHSmallH	correct	congruent	0.48047	no	H	H
962.6171875	n/a	246430	responseLargeH	correct	n/a	0.48047	no	n/a	n/a
963.6953125	n/a	246706	largeHSmallH	correct	congruent	0.46875	no	H	H
964.1640625	n/a	246826	responseLargeH	correct	n/a	0.46875	no	n/a	n/a
965.2421875	n/a	247102	largeTSmallT	correct	congruent	0.4375	no	T	T
965.6796875	n/a	247214	responseLargeT	correct	n/a	0.4375	no	n/a	n/a
966.75	n/a	247488	largeHSmallH	correct	congruent	0.46094	no	H	H
967.2109375	n/a	247606	responseLargeH	correct	n/a	0.46094	no	n/a	n/a
968.28125	n/a	247880	largeTSmallH	correct	incongruent	0.54297	no	T	H
968.8242188	n/a	248019	responseLargeT	correct	n/a	0.54297	no	n/a	n/a
969.8945312	n/a	248293	largeTSmallH	correct	incongruent	0.53906	no	T	H
970.4335938	n/a	248431	responseLargeT	correct	n/a	0.53906	no	n/a	n/a
971.5078125	n/a	248706	largeTSmallT	correct	congruent	0.50781	no	T	T
972.015625	n/a	248836	responseLargeT	correct	n/a	0.50781	no	n/a	n/a
973.0820312	n/a	249109	largeHSmallH	correct	congruent	0.46094	no	H	H
973.5429688	n/a	249227	responseLargeH	correct	n/a	0.46094	no	n/a	n/a
974.6132812	n/a	249501	largeTSmallH	correct	incongruent	0.51172	no	T	H
975.125	n/a	249632	responseLargeT	correct	n/a	0.51172	no	n/a	n/a
1017.839844	n/a	260567	largeHSmallH	correct	congruent	0.48438	no	H	H
1018.324219	n/a	260691	responseSmallH	correct	n/a	0.48438	no	n/a	n/a
1019.402344	n/a	260967	largeHSmallH	correct	congruent	0.49609	no	H	H
1019.898438	n/a	261094	responseSmallH	correct	n/a	0.49609	no	n/a	n/a
1020.972656	n/a	261369	largeTSmallH	error	incongruent	0.41797	no	T	H
1021.390625	n/a	261476	responseSmallT	error	n/a	0.41797	no	n/a	n/a
1022.453125	n/a	261748	largeHSmallT	correct	incongruent	0.46094	no	H	T
1022.914062	n/a	261866	responseSmallT	correct	n/a	0.46094	no	n/a	n/a
1023.988281	n/a	262141	largeTSmallH	correct	incongruent	0.44531	no	T	H
1024.433594	n/a	262255	responseSmallH	correct	n/a	0.44531	no	n/a	n/a
1025.492188	n/a	262526	largeHSmallH	correct	congruent	0.49219	no	H	H
1025.984375	n/a	262652	responseSmallH	correct	n/a	0.49219	no	n/a	n/a
1027.066406	n/a	262929	largeHSmallT	correct	incongruent	0.41406	no	H	T
1027.480469	n/a	263035	responseSmallT	correct	n/a	0.41406	no	n/a	n/a
1028.558594	n/a	263311	largeTSmallH	correct	incongruent	0.43359	no	T	H
1028.992188	n/a	263422	responseSmallH	correct	n/a	0.43359	no	n/a	n/a
1030.066406	n/a	263697	largeHSmallT	correct	incongruent	0.36719	no	H	T
1030.433594	n/a	263791	responseSmallT	correct	n/a	0.36719	no	n/a	n/a
1031.507812	n/a	264066	largeHSmallT	correct	incongruent	0.42969	no	H	T
1031.9375	n/a	264176	responseSmallT	correct	n/a	0.42969	no	n/a	n/a
1033	n/a	264448	largeTSmallT	correct	congruent	0.44141	no	T	T
1033.441406	n/a	264561	responseSmallT	correct	n/a	0.44141	no	n/a	n/a
1034.519531	n/a	264837	largeTSmallH	correct	incongruent	0.46094	no	T	H
1034.980469	n/a	264955	responseSmallH	correct	n/a	0.46094	no	n/a	n/a
1036.066406	n/a	265233	largeTSmallT	correct	congruent	0.41406	no	T	T
1036.480469	n/a	265339	responseSmallT	correct	n/a	0.41406	no	n/a	n/a
1037.558594	n/a	265615	largeHSmallT	correct	incongruent	0.4375	no	H	T
1037.996094	n/a	265727	responseSmallT	correct	n/a	0.4375	no	n/a	n/a
1039.066406	n/a	266001	largeHSmallH	correct	congruent	0.41797	no	H	H
1039.484375	n/a	266108	responseSmallH	correct	n/a	0.41797	no	n/a	n/a
1040.546875	n/a	266380	largeHSmallH	correct	congruent	0.40234	no	H	H
1040.949219	n/a	266483	responseSmallH	correct	n/a	0.40234	no	n/a	n/a
1042.011719	n/a	266755	largeTSmallH	correct	incongruent	0.47656	no	T	H
1042.488281	n/a	266877	responseSmallH	correct	n/a	0.47656	no	n/a	n/a
1043.558594	n/a	267151	largeTSmallT	correct	congruent	0.51172	no	T	T
1044.070312	n/a	267282	responseSmallT	correct	n/a	0.51172	no	n/a	n/a
1045.144531	n/a	267557	largeHSmallH	correct	congruent	0.39844	no	H	H
1045.542969	n/a	267659	responseSmallH	correct	n/a	0.39844	no	n/a	n/a
1046.625	n/a	267936	largeHSmallT	correct	incongruent	0.5	no	H	T
1047.125	n/a	268064	responseSmallT	correct	n/a	0.5	no	n/a	n/a
1048.199219	n/a	268339	largeHSmallH	correct	congruent	0.44531	no	H	H
1048.644531	n/a	268453	responseSmallH	correct	n/a	0.44531	no	n/a	n/a
1049.707031	n/a	268725	largeHSmallT	correct	incongruent	0.47656	no	H	T
1050.183594	n/a	268847	responseSmallT	correct	n/a	0.47656	no	n/a	n/a
1051.253906	n/a	269121	largeTSmallH	correct	incongruent	0.47266	no	T	H
1051.726562	n/a	269242	responseSmallH	correct	n/a	0.47266	no	n/a	n/a
1052.800781	n/a	269517	largeTSmallH	correct	incongruent	0.50391	no	T	H
1053.304688	n/a	269646	responseSmallH	correct	n/a	0.50391	no	n/a	n/a
1054.371094	n/a	269919	largeHSmallH	correct	congruent	0.51562	no	H	H
1054.886719	n/a	270051	responseSmallH	correct	n/a	0.51562	no	n/a	n/a
1055.960938	n/a	270326	largeHSmallT	correct	incongruent	0.46875	no	H	T
1056.429688	n/a	270446	responseSmallT	correct	n/a	0.46875	no	n/a	n/a
1057.492188	n/a	270718	largeTSmallH	correct	incongruent	0.5	no	T	H
1057.992188	n/a	270846	responseSmallH	correct	n/a	0.5	no	n/a	n/a
1059.066406	n/a	271121	largeHSmallT	correct	incongruent	0.55469	no	H	T
1059.621094	n/a	271263	responseSmallT	correct	n/a	0.55469	no	n/a	n/a
1060.691406	n/a	271537	largeHSmallT	correct	incongruent	0.58594	no	H	T
1061.277344	n/a	271687	responseSmallT	correct	n/a	0.58594	no	n/a	n/a
1062.347656	n/a	271961	largeTSmallH	correct	incongruent	0.54297	no	T	H
1062.890625	n/a	272100	responseSmallH	correct	n/a	0.54297	no	n/a	n/a
1063.972656	n/a	272377	largeHSmallT	correct	incongruent	0.49609	no	H	T
1064.46875	n/a	272504	responseSmallT	correct	n/a	0.49609	no	n/a	n/a
1065.546875	n/a	272780	largeTSmallT	correct	congruent	0.51953	no	T	T
1066.066406	n/a	272913	responseSmallT	correct	n/a	0.51953	no	n/a	n/a
1067.132812	n/a	273186	largeTSmallH	correct	incongruent	0.4375	no	T	H
1067.570312	n/a	273298	responseSmallH	correct	n/a	0.4375	no	n/a	n/a
1068.652344	n/a	273575	largeTSmallT	correct	congruent	0.46875	no	T	T
1069.121094	n/a	273695	responseSmallT	correct	n/a	0.46875	no	n/a	n/a
1070.1875	n/a	273968	largeTSmallH	error	incongruent	0.40625	no	T	H
1070.59375	n/a	274072	responseSmallT	error	n/a	0.40625	no	n/a	n/a
1071.652344	n/a	274343	largeHSmallT	correct	incongruent	0.51953	no	H	T
1072.171875	n/a	274476	responseSmallT	correct	n/a	0.51953	no	n/a	n/a
1073.238281	n/a	274749	largeTSmallT	correct	congruent	0.60547	no	T	T
1073.84375	n/a	274904	responseSmallT	correct	n/a	0.60547	no	n/a	n/a
1074.917969	n/a	275179	largeTSmallT	correct	congruent	0.53906	no	T	T
1075.457031	n/a	275317	responseSmallT	correct	n/a	0.53906	no	n/a	n/a
1076.53125	n/a	275592	largeTSmallT	correct	congruent	0.49219	no	T	T
1077.023438	n/a	275718	responseSmallT	correct	n/a	0.49219	no	n/a	n/a
1078.105469	n/a	275995	largeTSmallT	correct	congruent	0.49219	no	T	T
1078.597656	n/a	276121	responseSmallT	correct	n/a	0.49219	no	n/a	n/a
1079.664062	n/a	276394	largeHSmallH	correct	congruent	0.45703	no	H	H
1080.121094	n/a	276511	responseSmallH	correct	n/a	0.45703	no	n/a	n/a
1081.199219	n/a	276787	largeHSmallH	correct	congruent	0.51562	no	H	H
1081.714844	n/a	276919	responseSmallH	correct	n/a	0.51562	no	n/a	n/a
1082.785156	n/a	277193	largeTSmallH	correct	incongruent	0.46484	no	T	H
1083.25	n/a	277312	responseSmallH	correct	n/a	0.46484	no	n/a	n/a
1084.332031	n/a	277589	largeTSmallT	error	congruent	0.49219	no	T	T
1084.824219	n/a	277715	responseSmallH	error	n/a	0.49219	no	n/a	n/a
1085.90625	n/a	277992	largeHSmallH	correct	congruent	0.53125	no	H	H
1086.4375	n/a	278128	responseSmallH	correct	n/a	0.53125	no	n/a	n/a
1087.503906	n/a	278401	largeTSmallH	correct	incongruent	0.51953	no	T	H
1088.023438	n/a	278534	responseSmallH	correct	n/a	0.51953	no	n/a	n/a
1089.105469	n/a	278811	largeTSmallH	error	incongruent	0.5625	no	T	H
1089.667969	n/a	278955	responseSmallT	error	n/a	0.5625	no	n/a	n/a
1090.746094	n/a	279231	largeHSmallT	correct	incongruent	0.59375	no	H	T
1091.339844	n/a	279383	responseSmallT	correct	n/a	0.59375	no	n/a	n/a
1092.410156	n/a	279657	largeTSmallH	correct	incongruent	0.55469	no	T	H
1092.964844	n/a	279799	responseSmallH	correct	n/a	0.55469	no	n/a	n/a
1094.023438	n/a	280070	largeTSmallH	correct	incongruent	0.63281	no	T	H
1094.65625	n/a	280232	responseSmallH	correct	n/a	0.63281	no	n/a	n/a
1095.730469	n/a	280507	largeTSmallT	correct	congruent	0.53125	no	T	T
1096.261719	n/a	280643	responseSmallT	correct	n/a	0.53125	no	n/a	n/a
1097.332031	n/a	280917	largeHSmallT	correct	incongruent	0.8125	no	H	T
1098.144531	n/a	281125	responseSmallT	correct	n/a	0.8125	no	n/a	n/a
1099.210938	n/a	281398	largeHSmallH	correct	congruent	0.59766	no	H	H
1099.808594	n/a	281551	responseSmallH	correct	n/a	0.59766	no	n/a	n/a
1100.878906	n/a	281825	largeHSmallT	correct	incongruent	0.54297	no	H	T
1101.421875	n/a	281964	responseSmallT	correct	n/a	0.54297	no	n/a	n/a
1102.476562	n/a	282234	largeHSmallT	correct	incongruent	0.58984	no	H	T
1103.066406	n/a	282385	responseSmallT	correct	n/a	0.58984	no	n/a	n/a
1104.132812	n/a	282658	largeTSmallT	correct	congruent	0.50781	no	T	T
1104.640625	n/a	282788	responseSmallT	correct	n/a	0.50781	no	n/a	n/a
1105.71875	n/a	283064	largeHSmallH	correct	congruent	0.63672	no	H	H
1106.355469	n/a	283227	responseSmallH	correct	n/a	0.63672	no	n/a	n/a
1107.425781	n/a	283501	largeTSmallH	correct	incongruent	0.68359	no	T	H
1108.109375	n/a	283676	responseSmallH	correct	n/a	0.68359	no	n/a	n/a
1109.183594	n/a	283951	largeTSmallT	correct	congruent	0.48438	no	T	T
1109.667969	n/a	284075	responseSmallT	correct	n/a	0.48438	no	n/a	n/a
1110.730469	n/a	284347	largeHSmallH	correct	congruent	0.875	no	H	H
1111.605469	n/a	284571	responseSmallH	correct	n/a	0.875	no	n/a	n/a
1112.679688	n/a	284846	largeTSmallH	correct	incongruent	0.5	no	T	H
1113.179688	n/a	284974	responseSmallH	correct	n/a	0.5	no	n/a	n/a
1114.25	n/a	285248	largeHSmallT	correct	incongruent	0.46094	no	H	T
1114.710938	n/a	285366	responseSmallT	correct	n/a	0.46094	no	n/a	n/a
1115.769531	n/a	285637	largeTSmallT	correct	congruent	0.52344	no	T	T
1116.292969	n/a	285771	responseSmallT	correct	n/a	0.52344	no	n/a	n/a
1117.371094	n/a	286047	largeHSmallH	correct	congruent	0.4375	no	H	H
1117.808594	n/a	286159	responseSmallH	correct	n/a	0.4375	no	n/a	n/a
1118.878906	n/a	286433	largeHSmallH	correct	congruent	0.50391	no	H	H
1119.382812	n/a	286562	responseSmallH	correct	n/a	0.50391	no	n/a	n/a
1120.449219	n/a	286835	largeTSmallT	correct	congruent	0.40625	no	T	T
1120.855469	n/a	286939	responseSmallT	correct	n/a	0.40625	no	n/a	n/a
1121.917969	n/a	287211	largeHSmallT	correct	incongruent	0.60938	no	H	T
1122.527344	n/a	287367	responseSmallT	correct	n/a	0.60938	no	n/a	n/a
1123.585938	n/a	287638	largeHSmallH	correct	congruent	0.41797	no	H	H
1124.003906	n/a	287745	responseSmallH	correct	n/a	0.41797	no	n/a	n/a
1125.078125	n/a	288020	largeTSmallT	correct	congruent	0.52344	no	T	T
1125.601562	n/a	288154	responseSmallT	correct	n/a	0.52344	no	n/a	n/a
1126.664062	n/a	288426	largeHSmallT	correct	incongruent	0.51172	no	H	T
1127.175781	n/a	288557	responseSmallT	correct	n/a	0.51172	no	n/a	n/a
1128.238281	n/a	288829	largeHSmallH	correct	congruent	0.48438	no	H	H
1128.722656	n/a	288953	responseSmallH	correct	n/a	0.48438	no	n/a	n/a
1129.785156	n/a	289225	largeTSmallT	correct	congruent	0.40625	no	T	T
1130.191406	n/a	289329	responseSmallT	correct	n/a	0.40625	no	n/a	n/a
1131.265625	n/a	289604	largeHSmallH	correct	congruent	0.50391	no	H	H
1131.769531	n/a	289733	responseSmallH	correct	n/a	0.50391	no	n/a	n/a
1132.835938	n/a	290006	largeTSmallH	correct	incongruent	0.77344	no	T	H
1133.609375	n/a	290204	responseSmallH	correct	n/a	0.77344	no	n/a	n/a
1134.675781	n/a	290477	largeHSmallH	correct	congruent	0.55469	no	H	H
1135.230469	n/a	290619	responseSmallH	correct	n/a	0.55469	no	n/a	n/a
1136.304688	n/a	290894	largeTSmallH	correct	incongruent	0.57812	no	T	H
1136.882812	n/a	291042	responseSmallH	correct	n/a	0.57812	no	n/a	n/a
1137.957031	n/a	291317	largeTSmallT	correct	congruent	0.49609	no	T	T
1138.453125	n/a	291444	responseSmallT	correct	n/a	0.49609	no	n/a	n/a
1139.515625	n/a	291716	largeTSmallT	correct	congruent	0.48438	no	T	T
1140	n/a	291840	responseSmallT	correct	n/a	0.48438	no	n/a	n/a
1141.078125	n/a	292116	largeHSmallH	correct	congruent	0.49219	no	H	H
1141.570312	n/a	292242	responseSmallH	correct	n/a	0.49219	no	n/a	n/a
1142.636719	n/a	292515	largeHSmallT	correct	incongruent	0.41406	no	H	T
1143.050781	n/a	292621	responseSmallT	correct	n/a	0.41406	no	n/a	n/a
1144.117188	n/a	292894	largeTSmallH	correct	incongruent	0.55859	no	T	H
1144.675781	n/a	293037	responseSmallH	correct	n/a	0.55859	no	n/a	n/a
1145.742188	n/a	293310	largeTSmallH	correct	incongruent	0.46484	no	T	H
1146.207031	n/a	293429	responseSmallH	correct	n/a	0.46484	no	n/a	n/a
1147.277344	n/a	293703	largeTSmallT	correct	congruent	0.42578	no	T	T
1147.703125	n/a	293812	responseSmallT	correct	n/a	0.42578	no	n/a	n/a
1148.769531	n/a	294085	largeHSmallT	correct	incongruent	0.57812	no	H	T
1149.347656	n/a	294233	responseSmallT	correct	n/a	0.57812	no	n/a	n/a
1150.421875	n/a	294508	largeHSmallT	correct	incongruent	0.49219	no	H	T
1150.914062	n/a	294634	responseSmallT	correct	n/a	0.49219	no	n/a	n/a
1151.984375	n/a	294908	largeHSmallT	correct	incongruent	0.56641	no	H	T
1152.550781	n/a	295053	responseSmallT	correct	n/a	0.56641	no	n/a	n/a
1153.625	n/a	295328	largeHSmallH	correct	congruent	0.48438	no	H	H
1154.109375	n/a	295452	responseSmallH	correct	n/a	0.48438	no	n/a	n/a
1155.183594	n/a	295727	largeHSmallH	correct	congruent	0.48828	no	H	H
1155.671875	n/a	295852	responseSmallH	correct	n/a	0.48828	no	n/a	n/a
1156.742188	n/a	296126	largeHSmallH	correct	congruent	0.51172	no	H	H
1157.253906	n/a	296257	responseSmallH	correct	n/a	0.51172	no	n/a	n/a
1158.332031	n/a	296533	largeTSmallT	correct	congruent	0.61328	no	T	T
1158.945312	n/a	296690	responseSmallT	correct	n/a	0.61328	no	n/a	n/a
1160.023438	n/a	296966	largeTSmallT	correct	congruent	0.42969	no	T	T
1160.453125	n/a	297076	responseSmallT	correct	n/a	0.42969	no	n/a	n/a
1161.53125	n/a	297352	largeHSmallT	correct	incongruent	0.53906	no	H	T
1162.070312	n/a	297490	responseSmallT	correct	n/a	0.53906	no	n/a	n/a
1163.144531	n/a	297765	largeTSmallT	correct	congruent	0.46094	no	T	T
1163.605469	n/a	297883	responseSmallT	correct	n/a	0.46094	no	n/a	n/a
1164.675781	n/a	298157	largeHSmallH	correct	congruent	0.48828	no	H	H
1165.164062	n/a	298282	responseSmallH	correct	n/a	0.48828	no	n/a	n/a
1166.25	n/a	298560	largeTSmallT	correct	congruent	0.44531	no	T	T
1166.695312	n/a	298674	responseSmallT	correct	n/a	0.44531	no	n/a	n/a
1167.769531	n/a	298949	largeTSmallH	correct	incongruent	0.50391	no	T	H
1168.273438	n/a	299078	responseSmallH	correct	n/a	0.50391	no	n/a	n/a
1169.34375	n/a	299352	largeHSmallT	correct	incongruent	0.45312	no	H	T
1169.796875	n/a	299468	responseSmallT	correct	n/a	0.45312	no	n/a	n/a
1170.863281	n/a	299741	largeHSmallT	correct	incongruent	0.51953	no	H	T
1171.382812	n/a	299874	responseSmallT	correct	n/a	0.51953	no	n/a	n/a
1172.449219	n/a	300147	largeTSmallH	correct	incongruent	0.41797	no	T	H
1172.867188	n/a	300254	responseSmallH	correct	n/a	0.41797	no	n/a	n/a
1173.929688	n/a	300526	largeTSmallH	correct	incongruent	0.50781	no	T	H
1174.4375	n/a	300656	responseSmallH	correct	n/a	0.50781	no	n/a	n/a
1175.503906	n/a	300929	largeHSmallT	correct	incongruent	0.51172	no	H	T
1176.015625	n/a	301060	responseSmallT	correct	n/a	0.51172	no	n/a	n/a
1177.089844	n/a	301335	largeHSmallH	correct	congruent	0.49219	no	H	H
1177.582031	n/a	301461	responseSmallH	correct	n/a	0.49219	no	n/a	n/a
1178.664062	n/a	301738	largeHSmallH	correct	congruent	0.51172	no	H	H
1179.175781	n/a	301869	responseSmallH	correct	n/a	0.51172	no	n/a	n/a
1180.25	n/a	302144	largeHSmallT	correct	incongruent	0.62109	no	H	T
1180.871094	n/a	302303	responseSmallT	correct	n/a	0.62109	no	n/a	n/a
1181.929688	n/a	302574	largeHSmallH	correct	congruent	0.42578	no	H	H
1182.355469	n/a	302683	responseSmallH	correct	n/a	0.42578	no	n/a	n/a
1183.4375	n/a	302960	largeTSmallH	correct	incongruent	0.46484	no	T	H
1183.902344	n/a	303079	responseSmallH	correct	n/a	0.46484	no	n/a	n/a
1184.984375	n/a	303356	largeHSmallT	correct	incongruent	0.46484	no	H	T
1185.449219	n/a	303475	responseSmallT	correct	n/a	0.46484	no	n/a	n/a
1186.53125	n/a	303752	largeHSmallH	correct	congruent	0.37891	no	H	H
1186.910156	n/a	303849	responseSmallH	correct	n/a	0.37891	no	n/a	n/a
1187.96875	n/a	304120	largeHSmallT	correct	incongruent	0.54688	no	H	T
1188.515625	n/a	304260	responseSmallT	correct	n/a	0.54688	no	n/a	n/a
1189.597656	n/a	304537	largeHSmallT	correct	incongruent	0.57812	no	H	T
1190.175781	n/a	304685	responseSmallT	correct	n/a	0.57812	no	n/a	n/a
1191.25	n/a	304960	largeTSmallH	correct	incongruent	0.45312	no	T	H
1191.703125	n/a	305076	responseSmallH	correct	n/a	0.45312	no	n/a	n/a
1192.78125	n/a	305352	largeTSmallH	correct	incongruent	0.82031	no	T	H
1193.601562	n/a	305562	responseSmallH	correct	n/a	0.82031	no	n/a	n/a
1194.664062	n/a	305834	largeTSmallH	correct	incongruent	0.46094	no	T	H
1195.125	n/a	305952	responseSmallH	correct	n/a	0.46094	no	n/a	n/a
1196.195312	n/a	306226	largeTSmallH	correct	incongruent	0.46094	no	T	H
1196.65625	n/a	306344	responseSmallH	correct	n/a	0.46094	no	n/a	n/a
1197.730469	n/a	306619	largeHSmallT	correct	incongruent	0.53516	no	H	T
1198.265625	n/a	306756	responseSmallT	correct	n/a	0.53516	no	n/a	n/a
1199.328125	n/a	307028	largeHSmallH	correct	congruent	0.41797	no	H	H
1199.746094	n/a	307135	responseSmallH	correct	n/a	0.41797	no	n/a	n/a
1200.808594	n/a	307407	largeHSmallT	correct	incongruent	0.49609	no	H	T
1201.304688	n/a	307534	responseSmallT	correct	n/a	0.49609	no	n/a	n/a
1202.367188	n/a	307806	largeHSmallT	correct	incongruent	0.55859	no	H	T
1202.925781	n/a	307949	responseSmallT	correct	n/a	0.55859	no	n/a	n/a
1203.996094	n/a	308223	largeTSmallT	correct	congruent	0.57031	no	T	T
1204.566406	n/a	308369	responseSmallT	correct	n/a	0.57031	no	n/a	n/a
1205.636719	n/a	308643	largeTSmallH	correct	incongruent	0.39453	no	T	H
1206.03125	n/a	308744	responseSmallH	correct	n/a	0.39453	no	n/a	n/a
1207.101562	n/a	309018	largeHSmallT	correct	incongruent	0.47266	no	H	T
1207.574219	n/a	309139	responseSmallT	correct	n/a	0.47266	no	n/a	n/a
1208.648438	n/a	309414	largeTSmallT	correct	congruent	0.54297	no	T	T
1209.191406	n/a	309553	responseSmallT	correct	n/a	0.54297	no	n/a	n/a
1210.261719	n/a	309827	largeTSmallT	correct	congruent	0.41797	no	T	T
1210.679688	n/a	309934	responseSmallT	correct	n/a	0.41797	no	n/a	n/a
1211.753906	n/a	310209	largeHSmallH	correct	congruent	0.48438	no	H	H
1212.238281	n/a	310333	responseSmallH	correct	n/a	0.48438	no	n/a	n/a
1213.300781	n/a	310605	largeTSmallT	correct	congruent	0.32812	no	T	T
1213.628906	n/a	310689	responseSmallT	correct	n/a	0.32812	no	n/a	n/a
1214.703125	n/a	310964	largeTSmallT	error	congruent	0.47656	no	T	T
1215.179688	n/a	311086	responseSmallH	error	n/a	0.47656	no	n/a	n/a
1216.261719	n/a	311363	largeHSmallH	correct	congruent	0.43359	no	H	H
1216.695312	n/a	311474	responseSmallH	correct	n/a	0.43359	no	n/a	n/a
1217.769531	n/a	311749	largeHSmallH	correct	congruent	0.59766	no	H	H
1218.367188	n/a	311902	responseSmallH	correct	n/a	0.59766	no	n/a	n/a
1219.433594	n/a	312175	largeTSmallH	correct	incongruent	0.46094	no	T	H
1219.894531	n/a	312293	responseSmallH	correct	n/a	0.46094	no	n/a	n/a
1220.96875	n/a	312568	largeTSmallT	correct	congruent	0.49609	no	T	T
1221.464844	n/a	312695	responseSmallT	correct	n/a	0.49609	no	n/a	n/a
1222.527344	n/a	312967	largeTSmallH	correct	incongruent	0.53516	no	T	H
1223.0625	n/a	313104	responseSmallH	correct	n/a	0.53516	no	n/a	n/a
1224.140625	n/a	313380	largeTSmallH	correct	incongruent	0.5625	no	T	H
1224.703125	n/a	313524	responseSmallH	correct	n/a	0.5625	no	n/a	n/a
1225.769531	n/a	313797	largeHSmallT	correct	incongruent	0.45312	no	H	T
1226.222656	n/a	313913	responseSmallT	correct	n/a	0.45312	no	n/a	n/a
