onset	duration	sample	value	response_type	congruence	response_time	response_out_of_range	largeletter	smallletter
21.27587891	n/a	5446.625	largeTSmallH	correct	incongruent	0.59912	no	T	H
21.875	n/a	5600	responseLargeT	correct	n/a	0.59912	no	n/a	n/a
22.94042969	n/a	5872.75	largeHSmallH	correct	congruent	0.48242	no	H	H
23.42285156	n/a	5996.25	responseLargeH	correct	n/a	0.48242	no	n/a	n/a
24.48779297	n/a	6268.875	largeHSmallT	correct	incongruent	0.44629	no	H	T
24.93408203	n/a	6383.125	responseLargeH	correct	n/a	0.44629	no	n/a	n/a
25.99462891	n/a	6654.625	largeHSmallH	correct	congruent	0.52344	no	H	H
26.51806641	n/a	6788.625	responseLargeH	correct	n/a	0.52344	no	n/a	n/a
27.59472656	n/a	7064.25	largeTSmallT	correct	congruent	0.4209	no	T	T
28.015625	n/a	7172	responseLargeT	correct	n/a	0.4209	no	n/a	n/a
29.08789062	n/a	7446.5	largeHSmallH	correct	congruent	0.43994	no	H	H
29.52783203	n/a	7559.125	responseLargeH	correct	n/a	0.43994	no	n/a	n/a
30.60791016	n/a	7835.625	largeHSmallT	correct	incongruent	0.43115	no	H	T
31.0390625	n/a	7946	responseLargeH	correct	n/a	0.43115	no	n/a	n/a
32.11425781	n/a	8221.25	largeTSmallH	correct	incongruent	0.42139	no	T	H
32.53564453	n/a	8329.125	responseLargeT	correct	n/a	0.42139	no	n/a	n/a
33.61621094	n/a	8605.75	largeTSmallT	correct	congruent	0.40088	no	T	T
34.01708984	n/a	8708.375	responseLargeT	correct	n/a	0.40088	no	n/a	n/a
35.08740234	n/a	8982.375	largeHSmallH	correct	congruent	0.3833	no	H	H
35.47070312	n/a	9080.5	responseLargeH	correct	n/a	0.3833	no	n/a	n/a
36.54101562	n/a	9354.5	largeHSmallH	correct	congruent	0.36377	no	H	H
36.90478516	n/a	9447.625	responseLargeH	correct	n/a	0.36377	no	n/a	n/a
37.98095703	n/a	9723.125	largeTSmallT	correct	congruent	0.44043	no	T	T
38.42138672	n/a	9835.875	responseLargeT	correct	n/a	0.44043	no	n/a	n/a
39.50097656	n/a	10112.25	largeTSmallH	correct	incongruent	0.36084	no	T	H
39.86181641	n/a	10204.625	responseLargeT	correct	n/a	0.36084	no	n/a	n/a
40.92773438	n/a	10477.5	largeTSmallT	correct	congruent	0.46533	no	T	T
41.39306641	n/a	10596.625	responseLargeT	correct	n/a	0.46533	no	n/a	n/a
42.46044922	n/a	10869.875	largeHSmallH	correct	congruent	0.48877	no	H	H
42.94921875	n/a	10995	responseLargeH	correct	n/a	0.48877	no	n/a	n/a
44.02050781	n/a	11269.25	largeHSmallT	correct	incongruent	0.47266	no	H	T
44.49316406	n/a	11390.25	responseLargeH	correct	n/a	0.47266	no	n/a	n/a
45.55419922	n/a	11661.875	largeTSmallT	correct	congruent	0.41406	no	T	T
45.96826172	n/a	11767.875	responseLargeT	correct	n/a	0.41406	no	n/a	n/a
47.04736328	n/a	12044.125	largeHSmallT	correct	incongruent	0.49951	no	H	T
47.546875	n/a	12172	responseLargeH	correct	n/a	0.49951	no	n/a	n/a
48.62060547	n/a	12446.875	largeHSmallH	correct	congruent	0.4541	no	H	H
49.07470703	n/a	12563.125	responseLargeH	correct	n/a	0.4541	no	n/a	n/a
50.15380859	n/a	12839.375	largeTSmallT	correct	congruent	0.61182	no	T	T
50.765625	n/a	12996	responseLargeT	correct	n/a	0.61182	no	n/a	n/a
51.83300781	n/a	13269.25	largeHSmallT	correct	incongruent	0.45166	no	H	T
52.28466797	n/a	13384.875	responseLargeH	correct	n/a	0.45166	no	n/a	n/a
53.3671875	n/a	13662	largeHSmallH	correct	congruent	0.43994	no	H	H
53.80712891	n/a	13774.625	responseLargeH	correct	n/a	0.43994	no	n/a	n/a
54.87402344	n/a	14047.75	largeTSmallH	correct	incongruent	0.53467	no	T	H
55.40869141	n/a	14184.625	responseLargeT	correct	n/a	0.53467	no	n/a	n/a
56.48730469	n/a	14460.75	largeTSmallH	correct	incongruent	0.37109	no	T	H
56.85839844	n/a	14555.75	responseLargeT	correct	n/a	0.37109	no	n/a	n/a
57.92675781	n/a	14829.25	largeHSmallH	correct	congruent	0.42773	no	H	H
58.35449219	n/a	14938.75	responseLargeH	correct	n/a	0.42773	no	n/a	n/a
59.43359375	n/a	15215	largeHSmallT	correct	incongruent	0.39941	no	H	T
59.83300781	n/a	15317.25	responseLargeH	correct	n/a	0.39941	no	n/a	n/a
60.90039062	n/a	15590.5	largeHSmallT	correct	incongruent	0.38721	no	H	T
61.28759766	n/a	15689.625	responseLargeH	correct	n/a	0.38721	no	n/a	n/a
62.36669922	n/a	15965.875	largeHSmallT	correct	incongruent	0.40186	no	H	T
62.76855469	n/a	16068.75	responseLargeH	correct	n/a	0.40186	no	n/a	n/a
63.84716797	n/a	16344.875	largeTSmallT	correct	congruent	0.44775	no	T	T
64.29492188	n/a	16459.5	responseLargeT	correct	n/a	0.44775	no	n/a	n/a
65.35351562	n/a	16730.5	largeTSmallT	correct	congruent	0.33496	no	T	T
65.68847656	n/a	16816.25	responseLargeT	correct	n/a	0.33496	no	n/a	n/a
66.76708984	n/a	17092.375	largeHSmallT	correct	incongruent	0.44141	no	H	T
67.20849609	n/a	17205.375	responseLargeH	correct	n/a	0.44141	no	n/a	n/a
68.2734375	n/a	17478	largeTSmallH	correct	incongruent	0.45508	no	T	H
68.72851562	n/a	17594.5	responseLargeT	correct	n/a	0.45508	no	n/a	n/a
69.80664062	n/a	17870.5	largeTSmallT	correct	congruent	0.46484	no	T	T
70.27148438	n/a	17989.5	responseLargeT	correct	n/a	0.46484	no	n/a	n/a
71.35351562	n/a	18266.5	largeHSmallT	correct	incongruent	0.37256	no	H	T
71.72607422	n/a	18361.875	responseLargeH	correct	n/a	0.37256	no	n/a	n/a
72.79345703	n/a	18635.125	largeHSmallT	correct	incongruent	0.40137	no	H	T
73.19482422	n/a	18737.875	responseLargeH	correct	n/a	0.40137	no	n/a	n/a
74.2734375	n/a	19014	largeTSmallH	correct	incongruent	0.39258	no	T	H
74.66601562	n/a	19114.5	responseLargeT	correct	n/a	0.39258	no	n/a	n/a
75.7265625	n/a	19386	largeHSmallH	correct	congruent	0.45166	no	H	H
76.17822266	n/a	19501.625	responseLargeH	correct	n/a	0.45166	no	n/a	n/a
77.24658203	n/a	19775.125	largeTSmallH	correct	incongruent	0.3584	no	T	H
77.60498047	n/a	19866.875	responseLargeT	correct	n/a	0.3584	no	n/a	n/a
78.68652344	n/a	20143.75	largeHSmallT	correct	incongruent	0.37158	no	H	T
79.05810547	n/a	20238.875	responseLargeH	correct	n/a	0.37158	no	n/a	n/a
80.12646484	n/a	20512.375	largeTSmallH	correct	incongruent	0.3418	no	T	H
80.46826172	n/a	20599.875	responseLargeT	correct	n/a	0.3418	no	n/a	n/a
81.63964844	n/a	20899.75	largeTSmallT	correct	congruent	0.43848	no	T	T
82.078125	n/a	21012	responseLargeT	correct	n/a	0.43848	no	n/a	n/a
83.13964844	n/a	21283.75	largeHSmallH	correct	congruent	0.40234	no	H	H
83.54199219	n/a	21386.75	responseLargeH	correct	n/a	0.40234	no	n/a	n/a
84.60644531	n/a	21659.25	largeTSmallT	correct	congruent	0.40625	no	T	T
85.01269531	n/a	21763.25	responseLargeT	correct	n/a	0.40625	no	n/a	n/a
86.08642578	n/a	22038.125	largeTSmallH	correct	incongruent	0.44482	no	T	H
86.53125	n/a	22152	responseLargeT	correct	n/a	0.44482	no	n/a	n/a
87.60644531	n/a	22427.25	largeTSmallT	correct	congruent	0.44482	no	T	T
88.05126953	n/a	22541.125	responseLargeT	correct	n/a	0.44482	no	n/a	n/a
89.11279297	n/a	22812.875	largeTSmallT	correct	congruent	0.41699	no	T	T
89.52978516	n/a	22919.625	responseLargeT	correct	n/a	0.41699	no	n/a	n/a
90.59277344	n/a	23191.75	largeHSmallH	correct	congruent	0.43848	no	H	H
91.03125	n/a	23304	responseLargeH	correct	n/a	0.43848	no	n/a	n/a
92.09960938	n/a	23577.5	largeTSmallH	correct	incongruent	0.44482	no	T	H
92.54443359	n/a	23691.375	responseLargeT	correct	n/a	0.44482	no	n/a	n/a
93.65966797	n/a	23976.875	largeHSmallT	correct	incongruent	0.54199	no	H	T
94.20166016	n/a	24115.625	responseLargeH	correct	n/a	0.54199	no	n/a	n/a
95.27294922	n/a	24389.875	largeTSmallH	correct	incongruent	0.38916	no	T	H
95.66210938	n/a	24489.5	responseLargeT	correct	n/a	0.38916	no	n/a	n/a
96.72607422	n/a	24761.875	largeHSmallH	correct	congruent	0.42432	no	H	H
97.15039062	n/a	24870.5	responseLargeH	correct	n/a	0.42432	no	n/a	n/a
98.23291016	n/a	25147.625	largeHSmallT	correct	incongruent	0.43848	no	H	T
98.67138672	n/a	25259.875	responseLargeH	correct	n/a	0.43848	no	n/a	n/a
99.73925781	n/a	25533.25	largeTSmallH	correct	incongruent	0.41064	no	T	H
100.1499023	n/a	25638.375	responseLargeT	correct	n/a	0.41064	no	n/a	n/a
101.2192383	n/a	25912.125	largeHSmallH	correct	congruent	0.43799	no	H	H
101.6572266	n/a	26024.25	responseLargeH	correct	n/a	0.43799	no	n/a	n/a
102.7392578	n/a	26301.25	largeTSmallH	correct	incongruent	0.41797	no	T	H
103.1572266	n/a	26408.25	responseLargeT	correct	n/a	0.41797	no	n/a	n/a
104.2324219	n/a	26683.5	largeHSmallT	correct	incongruent	0.43018	no	H	T
104.6625977	n/a	26793.625	responseLargeH	correct	n/a	0.43018	no	n/a	n/a
105.7260742	n/a	27065.875	largeHSmallT	correct	incongruent	0.44971	no	H	T
106.1757812	n/a	27181	responseLargeH	correct	n/a	0.44971	no	n/a	n/a
107.2460938	n/a	27455	largeHSmallH	correct	congruent	0.47021	no	H	H
107.7163086	n/a	27575.375	responseLargeH	correct	n/a	0.47021	no	n/a	n/a
108.7924805	n/a	27850.875	largeTSmallT	correct	congruent	0.41162	no	T	T
109.2041016	n/a	27956.25	responseLargeT	correct	n/a	0.41162	no	n/a	n/a
110.2724609	n/a	28229.75	largeTSmallT	correct	congruent	0.41406	no	T	T
110.6865234	n/a	28335.75	responseLargeT	correct	n/a	0.41406	no	n/a	n/a
111.7524414	n/a	28608.625	largeHSmallH	correct	congruent	0.43311	no	H	H
112.1855469	n/a	28719.5	responseLargeH	correct	n/a	0.43311	no	n/a	n/a
113.2456055	n/a	28990.875	largeTSmallT	correct	congruent	0.40479	no	T	T
113.6503906	n/a	29094.5	responseLargeT	correct	n/a	0.40479	no	n/a	n/a
114.7124023	n/a	29366.375	largeTSmallH	error	incongruent	0.52246	no	T	H
115.2348633	n/a	29500.125	responseLargeH	error	n/a	0.52246	no	n/a	n/a
116.3125	n/a	29776	largeHSmallT	correct	incongruent	0.38867	no	H	T
116.7011719	n/a	29875.5	responseLargeH	correct	n/a	0.38867	no	n/a	n/a
117.7788086	n/a	30151.375	largeHSmallH	correct	congruent	0.42676	no	H	H
118.2055664	n/a	30260.625	responseLargeH	correct	n/a	0.42676	no	n/a	n/a
119.2719727	n/a	30533.625	largeTSmallH	correct	incongruent	0.47705	no	T	H
119.7490234	n/a	30655.75	responseLargeT	correct	n/a	0.47705	no	n/a	n/a
120.8188477	n/a	30929.625	largeHSmallH	correct	congruent	0.4292	no	H	H
121.2480469	n/a	31039.5	responseLargeH	correct	n/a	0.4292	no	n/a	n/a
122.3120117	n/a	31311.875	largeTSmallT	correct	congruent	0.39648	no	T	T
122.7084961	n/a	31413.375	responseLargeT	correct	n/a	0.39648	no	n/a	n/a
123.7788086	n/a	31687.375	largeHSmallH	correct	congruent	0.41406	no	H	H
124.1928711	n/a	31793.375	responseLargeH	correct	n/a	0.41406	no	n/a	n/a
125.2587891	n/a	32066.25	largeHSmallH	correct	congruent	0.37793	no	H	H
125.6367188	n/a	32163	responseLargeH	correct	n/a	0.37793	no	n/a	n/a
126.7119141	n/a	32438.25	largeTSmallT	correct	congruent	0.43164	no	T	T
127.1435547	n/a	32548.75	responseLargeT	correct	n/a	0.43164	no	n/a	n/a
128.21875	n/a	32824	largeHSmallH	correct	congruent	0.36816	no	H	H
128.5869141	n/a	32918.25	responseLargeH	correct	n/a	0.36816	no	n/a	n/a
129.6577148	n/a	33192.375	largeHSmallT	correct	incongruent	0.41699	no	H	T
130.074707	n/a	33299.125	responseLargeH	correct	n/a	0.41699	no	n/a	n/a
131.1386719	n/a	33571.5	largeHSmallT	correct	incongruent	0.44287	no	H	T
131.581543	n/a	33684.875	responseLargeH	correct	n/a	0.44287	no	n/a	n/a
132.6586914	n/a	33960.625	largeTSmallH	correct	incongruent	0.56641	no	T	H
133.2250977	n/a	34105.625	responseLargeT	correct	n/a	0.56641	no	n/a	n/a
134.2983398	n/a	34380.375	largeTSmallH	correct	incongruent	0.44629	no	T	H
134.7446289	n/a	34494.625	responseLargeT	correct	n/a	0.44629	no	n/a	n/a
135.8051758	n/a	34766.125	largeHSmallT	correct	incongruent	0.43896	no	H	T
136.2441406	n/a	34878.5	responseLargeH	correct	n/a	0.43896	no	n/a	n/a
137.3251953	n/a	35155.25	largeTSmallT	correct	congruent	0.41553	no	T	T
137.7407227	n/a	35261.625	responseLargeT	correct	n/a	0.41553	no	n/a	n/a
138.8183594	n/a	35537.5	largeHSmallH	correct	congruent	0.37988	no	H	H
139.1982422	n/a	35634.75	responseLargeH	correct	n/a	0.37988	no	n/a	n/a
140.2714844	n/a	35909.5	largeTSmallH	correct	incongruent	0.42627	no	T	H
140.6977539	n/a	36018.625	responseLargeT	correct	n/a	0.42627	no	n/a	n/a
141.7651367	n/a	36291.875	largeTSmallT	correct	congruent	0.40137	no	T	T
142.1665039	n/a	36394.625	responseLargeT	correct	n/a	0.40137	no	n/a	n/a
143.2314453	n/a	36667.25	largeHSmallH	correct	congruent	0.42969	no	H	H
143.6611328	n/a	36777.25	responseLargeH	correct	n/a	0.42969	no	n/a	n/a
144.7250977	n/a	37049.625	largeHSmallH	correct	congruent	0.43945	no	H	H
145.1645508	n/a	37162.125	responseLargeH	correct	n/a	0.43945	no	n/a	n/a
146.2314453	n/a	37435.25	largeHSmallT	correct	incongruent	0.44873	no	H	T
146.6801758	n/a	37550.125	responseLargeH	correct	n/a	0.44873	no	n/a	n/a
147.7646484	n/a	37827.75	largeTSmallH	correct	incongruent	0.44434	no	T	H
148.2089844	n/a	37941.5	responseLargeT	correct	n/a	0.44434	no	n/a	n/a
149.284668	n/a	38216.875	largeHSmallH	correct	congruent	0.41357	no	H	H
149.6982422	n/a	38322.75	responseLargeH	correct	n/a	0.41357	no	n/a	n/a
150.7646484	n/a	38595.75	largeHSmallH	correct	congruent	0.44482	no	H	H
151.2094727	n/a	38709.625	responseLargeH	correct	n/a	0.44482	no	n/a	n/a
152.284668	n/a	38984.875	largeHSmallT	correct	incongruent	0.43359	no	H	T
152.7182617	n/a	39095.875	responseLargeH	correct	n/a	0.43359	no	n/a	n/a
153.7915039	n/a	39370.625	largeTSmallT	correct	congruent	0.44141	no	T	T
154.2329102	n/a	39483.625	responseLargeT	correct	n/a	0.44141	no	n/a	n/a
155.3115234	n/a	39759.75	largeTSmallT	correct	congruent	0.36621	no	T	T
155.6777344	n/a	39853.5	responseLargeT	correct	n/a	0.36621	no	n/a	n/a
156.737793	n/a	40124.875	largeTSmallT	correct	congruent	0.43604	no	T	T
157.1738281	n/a	40236.5	responseLargeT	correct	n/a	0.43604	no	n/a	n/a
158.2446289	n/a	40510.625	largeHSmallH	correct	congruent	0.39355	no	H	H
158.6381836	n/a	40611.375	responseLargeH	correct	n/a	0.39355	no	n/a	n/a
159.7114258	n/a	40886.125	largeTSmallH	correct	incongruent	0.41504	no	T	H
160.1264648	n/a	40992.375	responseLargeT	correct	n/a	0.41504	no	n/a	n/a
161.2045898	n/a	41268.375	largeTSmallH	correct	incongruent	0.40967	no	T	H
161.6142578	n/a	41373.25	responseLargeT	correct	n/a	0.40967	no	n/a	n/a
162.6845703	n/a	41647.25	largeHSmallT	correct	incongruent	0.48535	no	H	T
163.1699219	n/a	41771.5	responseLargeH	correct	n/a	0.48535	no	n/a	n/a
164.2446289	n/a	42046.625	largeTSmallT	correct	congruent	0.42676	no	T	T
164.6713867	n/a	42155.875	responseLargeT	correct	n/a	0.42676	no	n/a	n/a
165.7509766	n/a	42432.25	largeTSmallT	correct	congruent	0.48633	no	T	T
166.2373047	n/a	42556.75	responseLargeT	correct	n/a	0.48633	no	n/a	n/a
167.3110352	n/a	42831.625	largeHSmallH	correct	congruent	0.40332	no	H	H
167.7143555	n/a	42934.875	responseLargeH	correct	n/a	0.40332	no	n/a	n/a
168.7910156	n/a	43210.5	largeHSmallT	correct	incongruent	0.37305	no	H	T
169.1640625	n/a	43306	responseLargeH	correct	n/a	0.37305	no	n/a	n/a
170.230957	n/a	43579.125	largeTSmallH	correct	incongruent	0.34229	no	T	H
170.5732422	n/a	43666.75	responseLargeT	correct	n/a	0.34229	no	n/a	n/a
171.644043	n/a	43940.875	largeHSmallH	correct	congruent	0.43799	no	H	H
172.0820312	n/a	44053	responseLargeH	correct	n/a	0.43799	no	n/a	n/a
173.1508789	n/a	44326.625	largeHSmallH	correct	congruent	0.45264	no	H	H
173.6035156	n/a	44442.5	responseLargeH	correct	n/a	0.45264	no	n/a	n/a
174.6708984	n/a	44715.75	largeTSmallT	correct	congruent	0.47656	no	T	T
175.1474609	n/a	44837.75	responseLargeT	correct	n/a	0.47656	no	n/a	n/a
176.2172852	n/a	45111.625	largeHSmallH	correct	congruent	0.43555	no	H	H
176.652832	n/a	45223.125	responseLargeH	correct	n/a	0.43555	no	n/a	n/a
177.7241211	n/a	45497.375	largeHSmallT	correct	incongruent	0.9873	no	H	T
178.7114258	n/a	45750.125	responseLargeH	correct	n/a	0.9873	no	n/a	n/a
179.7905273	n/a	46026.375	largeTSmallH	correct	incongruent	0.52002	no	T	H
180.3105469	n/a	46159.5	responseLargeT	correct	n/a	0.52002	no	n/a	n/a
181.3774414	n/a	46432.625	largeHSmallH	correct	congruent	0.46094	no	H	H
181.8383789	n/a	46550.625	responseLargeH	correct	n/a	0.46094	no	n/a	n/a
182.9106445	n/a	46825.125	largeHSmallH	correct	congruent	0.42578	no	H	H
183.3364258	n/a	46934.125	responseLargeH	correct	n/a	0.42578	no	n/a	n/a
184.4038086	n/a	47207.375	largeHSmallT	correct	incongruent	0.44971	no	H	T
184.8535156	n/a	47322.5	responseLargeH	correct	n/a	0.44971	no	n/a	n/a
185.9370117	n/a	47599.875	largeTSmallH	correct	incongruent	0.50195	no	T	H
186.4389648	n/a	47728.375	responseLargeT	correct	n/a	0.50195	no	n/a	n/a
187.5102539	n/a	48002.625	largeTSmallH	correct	incongruent	0.45557	no	T	H
187.9658203	n/a	48119.25	responseLargeT	correct	n/a	0.45557	no	n/a	n/a
189.0307617	n/a	48391.875	largeTSmallT	correct	congruent	0.47852	no	T	T
189.5092773	n/a	48514.375	responseLargeT	correct	n/a	0.47852	no	n/a	n/a
190.5771484	n/a	48787.75	largeHSmallH	correct	congruent	0.41113	no	H	H
190.9882812	n/a	48893	responseLargeH	correct	n/a	0.41113	no	n/a	n/a
192.0571289	n/a	49166.625	largeHSmallT	correct	incongruent	0.54834	no	H	T
192.6054688	n/a	49307	responseLargeH	correct	n/a	0.54834	no	n/a	n/a
193.6835938	n/a	49583	largeTSmallT	correct	congruent	0.40479	no	T	T
194.0883789	n/a	49686.625	responseLargeT	correct	n/a	0.40479	no	n/a	n/a
195.1635742	n/a	49961.875	largeHSmallH	correct	congruent	0.42432	no	H	H
195.5878906	n/a	50070.5	responseLargeH	correct	n/a	0.42432	no	n/a	n/a
196.6704102	n/a	50347.625	largeHSmallH	correct	congruent	0.43213	no	H	H
197.1025391	n/a	50458.25	responseLargeH	correct	n/a	0.43213	no	n/a	n/a
198.1767578	n/a	50733.25	largeHSmallH	correct	congruent	0.47119	no	H	H
198.6479492	n/a	50853.875	responseLargeH	correct	n/a	0.47119	no	n/a	n/a
199.7236328	n/a	51129.25	largeTSmallH	correct	incongruent	0.4668	no	T	H
200.1904297	n/a	51248.75	responseLargeT	correct	n/a	0.4668	no	n/a	n/a
201.2700195	n/a	51525.125	largeTSmallH	correct	incongruent	0.40918	no	T	H
201.6791992	n/a	51629.875	responseLargeT	correct	n/a	0.40918	no	n/a	n/a
202.75	n/a	51904	largeHSmallT	correct	incongruent	0.44287	no	H	T
203.1928711	n/a	52017.375	responseLargeH	correct	n/a	0.44287	no	n/a	n/a
204.2568359	n/a	52289.75	largeTSmallT	correct	congruent	0.40527	no	T	T
204.6621094	n/a	52393.5	responseLargeT	correct	n/a	0.40527	no	n/a	n/a
205.7236328	n/a	52665.25	largeHSmallH	correct	congruent	0.43018	no	H	H
206.1538086	n/a	52775.375	responseLargeH	correct	n/a	0.43018	no	n/a	n/a
207.2299805	n/a	53050.875	largeHSmallT	correct	incongruent	0.47314	no	H	T
207.703125	n/a	53172	responseLargeH	correct	n/a	0.47314	no	n/a	n/a
208.7631836	n/a	53443.375	largeHSmallT	correct	incongruent	0.45361	no	H	T
209.2167969	n/a	53559.5	responseLargeH	correct	n/a	0.45361	no	n/a	n/a
210.2832031	n/a	53832.5	largeHSmallH	correct	congruent	0.41064	no	H	H
210.6938477	n/a	53937.625	responseLargeH	correct	n/a	0.41064	no	n/a	n/a
211.7631836	n/a	54211.375	largeHSmallH	correct	congruent	0.41113	no	H	H
212.1743164	n/a	54316.625	responseLargeH	correct	n/a	0.41113	no	n/a	n/a
213.2431641	n/a	54590.25	largeHSmallT	correct	incongruent	0.44336	no	H	T
213.6865234	n/a	54703.75	responseLargeH	correct	n/a	0.44336	no	n/a	n/a
214.7631836	n/a	54979.375	largeTSmallT	correct	congruent	0.43652	no	T	T
215.199707	n/a	55091.125	responseLargeT	correct	n/a	0.43652	no	n/a	n/a
216.2700195	n/a	55365.125	largeHSmallT	correct	incongruent	0.43604	no	H	T
216.7060547	n/a	55476.75	responseLargeH	correct	n/a	0.43604	no	n/a	n/a
217.7763672	n/a	55750.75	largeHSmallT	correct	incongruent	0.47559	no	H	T
218.2519531	n/a	55872.5	responseLargeH	correct	n/a	0.47559	no	n/a	n/a
219.3364258	n/a	56150.125	largeTSmallH	correct	incongruent	0.4541	no	T	H
219.7905273	n/a	56266.375	responseLargeT	correct	n/a	0.4541	no	n/a	n/a
220.8564453	n/a	56539.25	largeHSmallT	correct	incongruent	0.44092	no	H	T
221.2973633	n/a	56652.125	responseLargeH	correct	n/a	0.44092	no	n/a	n/a
222.3759766	n/a	56928.25	largeTSmallH	correct	incongruent	0.40039	no	T	H
222.7763672	n/a	57030.75	responseLargeT	correct	n/a	0.40039	no	n/a	n/a
223.8554688	n/a	57307	largeTSmallT	correct	congruent	0.43506	no	T	T
224.2905273	n/a	57418.375	responseLargeT	correct	n/a	0.43506	no	n/a	n/a
225.362793	n/a	57692.875	largeTSmallT	correct	congruent	0.41162	no	T	T
225.7744141	n/a	57798.25	responseLargeT	correct	n/a	0.41162	no	n/a	n/a
226.855957	n/a	58075.125	largeHSmallT	correct	incongruent	0.5293	no	H	T
227.3852539	n/a	58210.625	responseLargeH	correct	n/a	0.5293	no	n/a	n/a
228.4560547	n/a	58484.75	largeHSmallT	correct	incongruent	0.5083	no	H	T
228.9643555	n/a	58614.875	responseLargeH	correct	n/a	0.5083	no	n/a	n/a
230.0292969	n/a	58887.5	largeHSmallT	correct	incongruent	0.38428	no	H	T
230.4135742	n/a	58985.875	responseLargeH	correct	n/a	0.38428	no	n/a	n/a
231.4829102	n/a	59259.625	largeHSmallT	correct	incongruent	0.4043	no	H	T
231.887207	n/a	59363.125	responseLargeH	correct	n/a	0.4043	no	n/a	n/a
232.9628906	n/a	59638.5	largeTSmallH	correct	incongruent	0.58154	no	T	H
233.5444336	n/a	59787.375	responseLargeT	correct	n/a	0.58154	no	n/a	n/a
234.6162109	n/a	60061.75	largeHSmallH	correct	congruent	0.35645	no	H	H
234.9726562	n/a	60153	responseLargeH	correct	n/a	0.35645	no	n/a	n/a
236.0424805	n/a	60426.875	largeTSmallH	correct	incongruent	0.41748	no	T	H
236.4599609	n/a	60533.75	responseLargeT	correct	n/a	0.41748	no	n/a	n/a
237.5361328	n/a	60809.25	largeTSmallT	correct	congruent	0.42578	no	T	T
237.9619141	n/a	60918.25	responseLargeT	correct	n/a	0.42578	no	n/a	n/a
239.0292969	n/a	61191.5	largeTSmallH	correct	incongruent	0.41846	no	T	H
239.4477539	n/a	61298.625	responseLargeT	correct	n/a	0.41846	no	n/a	n/a
240.5092773	n/a	61570.375	largeHSmallT	correct	incongruent	0.43555	no	H	T
240.9448242	n/a	61681.875	responseLargeH	correct	n/a	0.43555	no	n/a	n/a
242.015625	n/a	61956	largeTSmallT	correct	congruent	0.42432	no	T	T
242.4399414	n/a	62064.625	responseLargeT	correct	n/a	0.42432	no	n/a	n/a
243.5087891	n/a	62338.25	largeHSmallH	correct	congruent	0.43164	no	H	H
243.9404297	n/a	62448.75	responseLargeH	correct	n/a	0.43164	no	n/a	n/a
245.0024414	n/a	62720.625	largeTSmallT	correct	congruent	0.44482	no	T	T
245.4472656	n/a	62834.5	responseLargeT	correct	n/a	0.44482	no	n/a	n/a
246.5224609	n/a	63109.75	largeHSmallT	error	incongruent	0.39893	no	H	T
246.9213867	n/a	63211.875	responseLargeT	error	n/a	0.39893	no	n/a	n/a
247.9887695	n/a	63485.125	largeTSmallT	correct	congruent	0.45752	no	T	T
248.4462891	n/a	63602.25	responseLargeT	correct	n/a	0.45752	no	n/a	n/a
249.5219727	n/a	63877.625	largeHSmallT	correct	incongruent	0.39111	no	H	T
249.9130859	n/a	63977.75	responseLargeH	correct	n/a	0.39111	no	n/a	n/a
250.9887695	n/a	64253.125	largeTSmallT	correct	congruent	0.38574	no	T	T
251.3745117	n/a	64351.875	responseLargeT	correct	n/a	0.38574	no	n/a	n/a
252.4555664	n/a	64628.625	largeHSmallT	correct	incongruent	0.375	no	H	T
252.8305664	n/a	64724.625	responseLargeH	correct	n/a	0.375	no	n/a	n/a
253.8955078	n/a	64997.25	largeTSmallT	correct	congruent	0.3916	no	T	T
254.2871094	n/a	65097.5	responseLargeT	correct	n/a	0.3916	no	n/a	n/a
255.3486328	n/a	65369.25	largeTSmallH	correct	incongruent	0.47705	no	T	H
255.8256836	n/a	65491.375	responseLargeT	correct	n/a	0.47705	no	n/a	n/a
256.8955078	n/a	65765.25	largeHSmallT	correct	incongruent	0.42676	no	H	T
257.3222656	n/a	65874.5	responseLargeH	correct	n/a	0.42676	no	n/a	n/a
258.3886719	n/a	66147.5	largeTSmallH	correct	incongruent	0.37158	no	T	H
258.7602539	n/a	66242.625	responseLargeT	correct	n/a	0.37158	no	n/a	n/a
259.8286133	n/a	66516.125	largeTSmallH	correct	incongruent	0.52441	no	T	H
260.3530273	n/a	66650.375	responseLargeT	correct	n/a	0.52441	no	n/a	n/a
261.4150391	n/a	66922.25	largeHSmallH	correct	congruent	0.37891	no	H	H
261.7939453	n/a	67019.25	responseLargeH	correct	n/a	0.37891	no	n/a	n/a
262.8686523	n/a	67294.375	largeTSmallT	correct	congruent	0.4458	no	T	T
263.3144531	n/a	67408.5	responseLargeT	correct	n/a	0.4458	no	n/a	n/a
264.3886719	n/a	67683.5	largeTSmallT	correct	congruent	0.43604	no	T	T
264.824707	n/a	67795.125	responseLargeT	correct	n/a	0.43604	no	n/a	n/a
265.8950195	n/a	68069.125	largeTSmallH	correct	incongruent	0.40771	no	T	H
266.3027344	n/a	68173.5	responseLargeT	correct	n/a	0.40771	no	n/a	n/a
267.375	n/a	68448	largeHSmallT	correct	incongruent	0.41504	no	H	T
267.7900391	n/a	68554.25	responseLargeH	correct	n/a	0.41504	no	n/a	n/a
268.8549805	n/a	68826.875	largeTSmallT	correct	congruent	0.49854	no	T	T
269.3535156	n/a	68954.5	responseLargeT	correct	n/a	0.49854	no	n/a	n/a
270.4155273	n/a	69226.375	largeTSmallH	correct	incongruent	0.44922	no	T	H
270.8647461	n/a	69341.375	responseLargeT	correct	n/a	0.44922	no	n/a	n/a
271.9350586	n/a	69615.375	largeHSmallH	correct	congruent	0.48438	no	H	H
272.4194336	n/a	69739.375	responseLargeH	correct	n/a	0.48438	no	n/a	n/a
273.4951172	n/a	70014.75	largeTSmallT	correct	congruent	0.41602	no	T	T
273.9111328	n/a	70121.25	responseLargeT	correct	n/a	0.41602	no	n/a	n/a
274.9750977	n/a	70393.625	largeTSmallH	correct	incongruent	0.42236	no	T	H
275.3974609	n/a	70501.75	responseLargeT	correct	n/a	0.42236	no	n/a	n/a
276.4682617	n/a	70775.875	largeHSmallH	correct	congruent	0.43359	no	H	H
276.9018555	n/a	70886.875	responseLargeH	correct	n/a	0.43359	no	n/a	n/a
277.9746094	n/a	71161.5	largeHSmallH	correct	congruent	0.52148	no	H	H
278.4960938	n/a	71295	responseLargeH	correct	n/a	0.52148	no	n/a	n/a
279.6201172	n/a	71582.75	largeTSmallH	correct	incongruent	0.41553	no	T	H
280.0356445	n/a	71689.125	responseLargeT	correct	n/a	0.41553	no	n/a	n/a
281.1079102	n/a	71963.625	largeHSmallH	correct	congruent	0.56396	no	H	H
281.671875	n/a	72108	responseLargeH	correct	n/a	0.56396	no	n/a	n/a
282.7480469	n/a	72383.5	largeHSmallH	correct	congruent	0.43652	no	H	H
283.1845703	n/a	72495.25	responseLargeH	correct	n/a	0.43652	no	n/a	n/a
284.2548828	n/a	72769.25	largeTSmallH	correct	incongruent	0.74707	no	T	H
285.0019531	n/a	72960.5	responseLargeT	correct	n/a	0.74707	no	n/a	n/a
286.0678711	n/a	73233.375	largeTSmallH	correct	incongruent	0.46143	no	T	H
286.5292969	n/a	73351.5	responseLargeT	correct	n/a	0.46143	no	n/a	n/a
287.6015625	n/a	73626	largeTSmallH	correct	incongruent	0.43408	no	T	H
288.0356445	n/a	73737.125	responseLargeT	correct	n/a	0.43408	no	n/a	n/a
289.1079102	n/a	74011.625	largeTSmallH	correct	incongruent	0.45557	no	T	H
289.5634766	n/a	74128.25	responseLargeT	correct	n/a	0.45557	no	n/a	n/a
290.6411133	n/a	74404.125	largeTSmallT	correct	congruent	0.57959	no	T	T
291.2207031	n/a	74552.5	responseLargeT	correct	n/a	0.57959	no	n/a	n/a
292.2944336	n/a	74827.375	largeTSmallH	correct	incongruent	0.62402	no	T	H
292.918457	n/a	74987.125	responseLargeT	correct	n/a	0.62402	no	n/a	n/a
293.987793	n/a	75260.875	largeTSmallT	correct	congruent	0.54346	no	T	T
294.53125	n/a	75400	responseLargeT	correct	n/a	0.54346	no	n/a	n/a
295.6010742	n/a	75673.875	largeHSmallT	correct	incongruent	0.47119	no	H	T
296.0722656	n/a	75794.5	responseLargeH	correct	n/a	0.47119	no	n/a	n/a
297.1474609	n/a	76069.75	largeTSmallH	correct	incongruent	0.4502	no	T	H
297.5976562	n/a	76185	responseLargeT	correct	n/a	0.4502	no	n/a	n/a
298.6674805	n/a	76458.875	largeTSmallH	correct	incongruent	0.43311	no	T	H
299.1005859	n/a	76569.75	responseLargeT	correct	n/a	0.43311	no	n/a	n/a
300.1743164	n/a	76844.625	largeTSmallT	correct	congruent	0.46875	no	T	T
300.6430664	n/a	76964.625	responseLargeT	correct	n/a	0.46875	no	n/a	n/a
301.7075195	n/a	77237.125	largeHSmallT	correct	incongruent	0.51611	no	H	T
302.2236328	n/a	77369.25	responseLargeH	correct	n/a	0.51611	no	n/a	n/a
303.2944336	n/a	77643.375	largeHSmallH	correct	congruent	0.43115	no	H	H
303.7255859	n/a	77753.75	responseLargeH	correct	n/a	0.43115	no	n/a	n/a
304.8007812	n/a	78029	largeHSmallT	error	incongruent	0.56885	no	H	T
305.3696289	n/a	78174.625	responseLargeT	error	n/a	0.56885	no	n/a	n/a
306.440918	n/a	78448.875	largeTSmallH	correct	incongruent	0.46143	no	T	H
306.9023438	n/a	78567	responseLargeT	correct	n/a	0.46143	no	n/a	n/a
307.9741211	n/a	78841.375	largeTSmallT	correct	congruent	0.58838	no	T	T
308.5625	n/a	78992	responseLargeT	correct	n/a	0.58838	no	n/a	n/a
309.640625	n/a	79268	largeTSmallT	correct	congruent	0.49658	no	T	T
310.137207	n/a	79395.125	responseLargeT	correct	n/a	0.49658	no	n/a	n/a
311.2138672	n/a	79670.75	largeHSmallT	correct	incongruent	0.37988	no	H	T
311.59375	n/a	79768	responseLargeH	correct	n/a	0.37988	no	n/a	n/a
312.6674805	n/a	80042.875	largeTSmallH	error	incongruent	0.38867	no	T	H
313.0561523	n/a	80142.375	responseLargeH	error	n/a	0.38867	no	n/a	n/a
314.1337891	n/a	80418.25	largeTSmallT	correct	congruent	0.45703	no	T	T
314.5908203	n/a	80535.25	responseLargeT	correct	n/a	0.45703	no	n/a	n/a
315.6665039	n/a	80810.625	largeHSmallT	correct	incongruent	0.45459	no	H	T
316.1210938	n/a	80927	responseLargeH	correct	n/a	0.45459	no	n/a	n/a
317.1875	n/a	81200	largeTSmallH	correct	incongruent	0.63574	no	T	H
317.8232422	n/a	81362.75	responseLargeT	correct	n/a	0.63574	no	n/a	n/a
318.894043	n/a	81636.875	largeTSmallT	correct	congruent	0.7373	no	T	T
319.6313477	n/a	81825.625	responseLargeT	correct	n/a	0.7373	no	n/a	n/a
320.7070312	n/a	82101	largeTSmallT	correct	congruent	0.48242	no	T	T
321.1894531	n/a	82224.5	responseLargeT	correct	n/a	0.48242	no	n/a	n/a
322.2539062	n/a	82497	largeHSmallT	correct	incongruent	0.4292	no	H	T
322.6831055	n/a	82606.875	responseLargeH	correct	n/a	0.4292	no	n/a	n/a
323.7602539	n/a	82882.625	largeHSmallH	correct	congruent	0.39648	no	H	H
324.1567383	n/a	82984.125	responseLargeH	correct	n/a	0.39648	no	n/a	n/a
333.546875	n/a	85388	largeTSmallT	correct	congruent	0.61865	no	T	T
334.1655273	n/a	85546.375	responseSmallT	correct	n/a	0.61865	no	n/a	n/a
335.2402344	n/a	85821.5	largeHSmallH	correct	congruent	0.43506	no	H	H
335.675293	n/a	85932.875	responseSmallH	correct	n/a	0.43506	no	n/a	n/a
336.746582	n/a	86207.125	largeTSmallH	correct	incongruent	0.47217	no	T	H
337.21875	n/a	86328	responseSmallH	correct	n/a	0.47217	no	n/a	n/a
338.293457	n/a	86603.125	largeTSmallH	correct	incongruent	0.5415	no	T	H
338.8349609	n/a	86741.75	responseSmallH	correct	n/a	0.5415	no	n/a	n/a
339.9067383	n/a	87016.125	largeHSmallH	correct	congruent	0.45947	no	H	H
340.3662109	n/a	87133.75	responseSmallH	correct	n/a	0.45947	no	n/a	n/a
341.4262695	n/a	87405.125	largeTSmallT	correct	congruent	0.41895	no	T	T
341.8452148	n/a	87512.375	responseSmallT	correct	n/a	0.41895	no	n/a	n/a
342.9199219	n/a	87787.5	largeTSmallH	correct	incongruent	0.56885	no	T	H
343.4887695	n/a	87933.125	responseSmallH	correct	n/a	0.56885	no	n/a	n/a
344.5463867	n/a	88203.875	largeHSmallT	correct	incongruent	0.49316	no	H	T
345.0395508	n/a	88330.125	responseSmallT	correct	n/a	0.49316	no	n/a	n/a
346.1064453	n/a	88603.25	largeTSmallT	correct	congruent	0.42139	no	T	T
346.527832	n/a	88711.125	responseSmallT	correct	n/a	0.42139	no	n/a	n/a
347.5996094	n/a	88985.5	largeTSmallT	correct	congruent	0.47168	no	T	T
348.0712891	n/a	89106.25	responseSmallT	correct	n/a	0.47168	no	n/a	n/a
349.1333008	n/a	89378.125	largeTSmallH	correct	incongruent	0.40283	no	T	H
349.5361328	n/a	89481.25	responseSmallH	correct	n/a	0.40283	no	n/a	n/a
350.5996094	n/a	89753.5	largeTSmallH	correct	incongruent	0.44775	no	T	H
351.0473633	n/a	89868.125	responseSmallH	correct	n/a	0.44775	no	n/a	n/a
352.1196289	n/a	90142.625	largeTSmallH	correct	incongruent	0.44043	no	T	H
352.5600586	n/a	90255.375	responseSmallH	correct	n/a	0.44043	no	n/a	n/a
353.6264648	n/a	90528.375	largeHSmallT	correct	incongruent	0.42188	no	H	T
354.0483398	n/a	90636.375	responseSmallT	correct	n/a	0.42188	no	n/a	n/a
355.1196289	n/a	90910.625	largeHSmallH	correct	congruent	0.47119	no	H	H
355.5908203	n/a	91031.25	responseSmallH	correct	n/a	0.47119	no	n/a	n/a
356.6533203	n/a	91303.25	largeHSmallH	correct	congruent	0.41504	no	H	H
357.0683594	n/a	91409.5	responseSmallH	correct	n/a	0.41504	no	n/a	n/a
358.1464844	n/a	91685.5	largeTSmallT	correct	congruent	0.44482	no	T	T
358.5913086	n/a	91799.375	responseSmallT	correct	n/a	0.44482	no	n/a	n/a
359.6660156	n/a	92074.5	largeHSmallT	correct	incongruent	0.51953	no	H	T
360.1855469	n/a	92207.5	responseSmallT	correct	n/a	0.51953	no	n/a	n/a
361.2661133	n/a	92484.125	largeTSmallT	correct	congruent	0.44238	no	T	T
361.7084961	n/a	92597.375	responseSmallT	correct	n/a	0.44238	no	n/a	n/a
362.7724609	n/a	92869.75	largeHSmallT	error	incongruent	0.55322	no	H	T
363.3256836	n/a	93011.375	responseSmallH	error	n/a	0.55322	no	n/a	n/a
364.3994141	n/a	93286.25	largeTSmallH	correct	incongruent	0.47852	no	T	H
364.8779297	n/a	93408.75	responseSmallH	correct	n/a	0.47852	no	n/a	n/a
365.9594727	n/a	93685.625	largeTSmallT	correct	congruent	0.48486	no	T	T
366.4443359	n/a	93809.75	responseSmallT	correct	n/a	0.48486	no	n/a	n/a
367.519043	n/a	94084.875	largeTSmallH	correct	incongruent	0.55518	no	T	H
368.0742188	n/a	94227	responseSmallH	correct	n/a	0.55518	no	n/a	n/a
369.1323242	n/a	94497.875	largeTSmallT	correct	congruent	0.41797	no	T	T
369.550293	n/a	94604.875	responseSmallT	correct	n/a	0.41797	no	n/a	n/a
370.6259766	n/a	94880.25	largeTSmallH	correct	incongruent	0.49316	no	T	H
371.1191406	n/a	95006.5	responseSmallH	correct	n/a	0.49316	no	n/a	n/a
372.1992188	n/a	95283	largeHSmallT	correct	incongruent	0.44287	no	H	T
372.6420898	n/a	95396.375	responseSmallT	correct	n/a	0.44287	no	n/a	n/a
373.7055664	n/a	95668.625	largeTSmallH	correct	incongruent	0.53369	no	T	H
374.2392578	n/a	95805.25	responseSmallH	correct	n/a	0.53369	no	n/a	n/a
375.3188477	n/a	96081.625	largeTSmallH	correct	incongruent	0.49023	no	T	H
375.809082	n/a	96207.125	responseSmallH	correct	n/a	0.49023	no	n/a	n/a
376.8789062	n/a	96481	largeTSmallT	correct	congruent	0.50391	no	T	T
377.3828125	n/a	96610	responseSmallT	correct	n/a	0.50391	no	n/a	n/a
378.4521484	n/a	96883.75	largeHSmallH	correct	congruent	0.39258	no	H	H
378.8447266	n/a	96984.25	responseSmallH	correct	n/a	0.39258	no	n/a	n/a
379.9189453	n/a	97259.25	largeHSmallH	correct	congruent	0.37891	no	H	H
380.2978516	n/a	97356.25	responseSmallH	correct	n/a	0.37891	no	n/a	n/a
381.3720703	n/a	97631.25	largeHSmallT	correct	incongruent	0.41602	no	H	T
381.7880859	n/a	97737.75	responseSmallT	correct	n/a	0.41602	no	n/a	n/a
382.8652344	n/a	98013.5	largeHSmallH	correct	congruent	0.40088	no	H	H
383.2661133	n/a	98116.125	responseSmallH	correct	n/a	0.40088	no	n/a	n/a
384.3320312	n/a	98389	largeTSmallH	correct	incongruent	0.65039	no	T	H
384.9824219	n/a	98555.5	responseSmallH	correct	n/a	0.65039	no	n/a	n/a
386.0522461	n/a	98829.375	largeHSmallT	error	incongruent	0.49414	no	H	T
386.5463867	n/a	98955.875	responseSmallH	error	n/a	0.49414	no	n/a	n/a
387.6704102	n/a	99243.625	largeHSmallH	correct	congruent	0.46045	no	H	H
388.1308594	n/a	99361.5	responseSmallH	correct	n/a	0.46045	no	n/a	n/a
389.1987305	n/a	99634.875	largeTSmallH	correct	incongruent	0.6665	no	T	H
389.8652344	n/a	99805.5	responseSmallH	correct	n/a	0.6665	no	n/a	n/a
390.9321289	n/a	100078.625	largeHSmallT	correct	incongruent	0.48193	no	H	T
391.4140625	n/a	100202	responseSmallT	correct	n/a	0.48193	no	n/a	n/a
392.4916992	n/a	100477.875	largeHSmallT	correct	incongruent	0.49805	no	H	T
392.9897461	n/a	100605.375	responseSmallT	correct	n/a	0.49805	no	n/a	n/a
394.0654297	n/a	100880.75	largeTSmallH	correct	incongruent	0.55029	no	T	H
394.6157227	n/a	101021.625	responseSmallH	correct	n/a	0.55029	no	n/a	n/a
395.6918945	n/a	101297.125	largeHSmallT	correct	incongruent	0.46973	no	H	T
396.1616211	n/a	101417.375	responseSmallT	correct	n/a	0.46973	no	n/a	n/a
397.2382812	n/a	101693	largeTSmallT	correct	congruent	0.55762	no	T	T
397.7958984	n/a	101835.75	responseSmallT	correct	n/a	0.55762	no	n/a	n/a
398.8652344	n/a	102109.5	largeHSmallT	correct	incongruent	0.5083	no	H	T
399.3735352	n/a	102239.625	responseSmallT	correct	n/a	0.5083	no	n/a	n/a
400.4516602	n/a	102515.625	largeHSmallT	error	incongruent	0.4502	no	H	T
400.9018555	n/a	102630.875	responseSmallH	error	n/a	0.4502	no	n/a	n/a
401.9716797	n/a	102904.75	largeHSmallH	correct	congruent	0.44922	no	H	H
402.4208984	n/a	103019.75	responseSmallH	correct	n/a	0.44922	no	n/a	n/a
403.5981445	n/a	103321.125	largeTSmallH	correct	incongruent	0.58252	no	T	H
404.1806641	n/a	103470.25	responseSmallH	correct	n/a	0.58252	no	n/a	n/a
405.2514648	n/a	103744.375	largeTSmallH	correct	incongruent	0.44824	no	T	H
405.699707	n/a	103859.125	responseSmallH	correct	n/a	0.44824	no	n/a	n/a
406.7714844	n/a	104133.5	largeTSmallT	correct	congruent	0.47461	no	T	T
407.2460938	n/a	104255	responseSmallT	correct	n/a	0.47461	no	n/a	n/a
408.3046875	n/a	104526	largeTSmallT	correct	congruent	0.50439	no	T	T
408.809082	n/a	104655.125	responseSmallT	correct	n/a	0.50439	no	n/a	n/a
409.8916016	n/a	104932.25	largeHSmallH	correct	congruent	0.42725	no	H	H
410.3188477	n/a	105041.625	responseSmallH	correct	n/a	0.42725	no	n/a	n/a
411.3847656	n/a	105314.5	largeHSmallT	correct	incongruent	0.51416	no	H	T
411.8989258	n/a	105446.125	responseSmallT	correct	n/a	0.51416	no	n/a	n/a
412.9711914	n/a	105720.625	largeHSmallH	correct	congruent	0.50537	no	H	H
413.4765625	n/a	105850	responseSmallH	correct	n/a	0.50537	no	n/a	n/a
414.6113281	n/a	106140.5	largeTSmallH	correct	incongruent	0.49121	no	T	H
415.1025391	n/a	106266.25	responseSmallH	correct	n/a	0.49121	no	n/a	n/a
416.1713867	n/a	106539.875	largeHSmallH	correct	congruent	0.4541	no	H	H
416.6254883	n/a	106656.125	responseSmallH	correct	n/a	0.4541	no	n/a	n/a
417.7045898	n/a	106932.375	largeHSmallT	correct	incongruent	0.49121	no	H	T
418.1958008	n/a	107058.125	responseSmallT	correct	n/a	0.49121	no	n/a	n/a
419.2646484	n/a	107331.75	largeTSmallT	correct	congruent	0.47168	no	T	T
419.7363281	n/a	107452.5	responseSmallT	correct	n/a	0.47168	no	n/a	n/a
420.8110352	n/a	107727.625	largeHSmallT	error	incongruent	0.45068	no	H	T
421.2617188	n/a	107843	responseSmallH	error	n/a	0.45068	no	n/a	n/a
422.3310547	n/a	108116.75	largeHSmallH	correct	congruent	0.43164	no	H	H
422.7626953	n/a	108227.25	responseSmallH	correct	n/a	0.43164	no	n/a	n/a
423.8378906	n/a	108502.5	largeHSmallT	correct	incongruent	0.4585	no	H	T
424.2963867	n/a	108619.875	responseSmallT	correct	n/a	0.4585	no	n/a	n/a
425.3579102	n/a	108891.625	largeHSmallT	correct	incongruent	0.43604	no	H	T
425.7939453	n/a	109003.25	responseSmallT	correct	n/a	0.43604	no	n/a	n/a
426.8515625	n/a	109274	largeTSmallT	correct	congruent	0.46973	no	T	T
427.3212891	n/a	109394.25	responseSmallT	correct	n/a	0.46973	no	n/a	n/a
428.3842773	n/a	109666.375	largeHSmallT	correct	incongruent	0.54736	no	H	T
428.9316406	n/a	109806.5	responseSmallT	correct	n/a	0.54736	no	n/a	n/a
430.0112305	n/a	110082.875	largeTSmallH	correct	incongruent	0.54443	no	T	H
430.5556641	n/a	110222.25	responseSmallH	correct	n/a	0.54443	no	n/a	n/a
431.6376953	n/a	110499.25	largeHSmallH	correct	congruent	0.48096	no	H	H
432.1186523	n/a	110622.375	responseSmallH	correct	n/a	0.48096	no	n/a	n/a
433.1977539	n/a	110898.625	largeTSmallH	correct	incongruent	0.46143	no	T	H
433.6591797	n/a	111016.75	responseSmallH	correct	n/a	0.46143	no	n/a	n/a
434.7304688	n/a	111291	largeHSmallH	correct	congruent	0.42773	no	H	H
435.1582031	n/a	111400.5	responseSmallH	correct	n/a	0.42773	no	n/a	n/a
436.2373047	n/a	111676.75	largeHSmallT	correct	incongruent	0.54443	no	H	T
436.7817383	n/a	111816.125	responseSmallT	correct	n/a	0.54443	no	n/a	n/a
437.8505859	n/a	112089.75	largeHSmallT	error	incongruent	0.59814	no	H	T
438.4487305	n/a	112242.875	responseSmallH	error	n/a	0.59814	no	n/a	n/a
439.6103516	n/a	112540.25	largeHSmallH	correct	congruent	0.51025	no	H	H
440.1206055	n/a	112670.875	responseSmallH	correct	n/a	0.51025	no	n/a	n/a
441.1972656	n/a	112946.5	largeTSmallH	correct	incongruent	0.5083	no	T	H
441.7055664	n/a	113076.625	responseSmallH	correct	n/a	0.5083	no	n/a	n/a
442.7705078	n/a	113349.25	largeHSmallH	correct	congruent	0.41602	no	H	H
443.1865234	n/a	113455.75	responseSmallH	correct	n/a	0.41602	no	n/a	n/a
444.2504883	n/a	113728.125	largeHSmallT	error	incongruent	0.51025	no	H	T
444.7607422	n/a	113858.75	responseSmallH	error	n/a	0.51025	no	n/a	n/a
445.8237305	n/a	114130.875	largeHSmallT	correct	incongruent	0.77832	no	H	T
446.6020508	n/a	114330.125	responseSmallT	correct	n/a	0.77832	no	n/a	n/a
447.6640625	n/a	114602	largeTSmallT	correct	congruent	1.2158	no	T	T
448.8798828	n/a	114913.25	responseSmallT	correct	n/a	1.2158	no	n/a	n/a
449.9438477	n/a	115185.625	largeHSmallT	correct	incongruent	0.77246	no	H	T
450.7163086	n/a	115383.375	responseSmallT	correct	n/a	0.77246	no	n/a	n/a
451.7836914	n/a	115656.625	largeTSmallH	correct	incongruent	0.49072	no	T	H
452.2744141	n/a	115782.25	responseSmallH	correct	n/a	0.49072	no	n/a	n/a
453.34375	n/a	116056	largeHSmallH	correct	congruent	0.54199	no	H	H
453.8857422	n/a	116194.75	responseSmallH	correct	n/a	0.54199	no	n/a	n/a
454.9570312	n/a	116469	largeTSmallH	correct	incongruent	0.43652	no	T	H
455.3935547	n/a	116580.75	responseSmallH	correct	n/a	0.43652	no	n/a	n/a
456.4633789	n/a	116854.625	largeHSmallH	correct	congruent	0.43213	no	H	H
456.8955078	n/a	116965.25	responseSmallH	correct	n/a	0.43213	no	n/a	n/a
457.9702148	n/a	117240.375	largeHSmallH	correct	congruent	0.40088	no	H	H
458.3710938	n/a	117343	responseSmallH	correct	n/a	0.40088	no	n/a	n/a
459.4501953	n/a	117619.25	largeTSmallH	correct	incongruent	0.49268	no	T	H
459.9428711	n/a	117745.375	responseSmallH	correct	n/a	0.49268	no	n/a	n/a
461.0102539	n/a	118018.625	largeTSmallH	correct	incongruent	0.44385	no	T	H
461.4541016	n/a	118132.25	responseSmallH	correct	n/a	0.44385	no	n/a	n/a
462.6083984	n/a	118427.75	largeTSmallH	correct	incongruent	0.44043	no	T	H
463.0488281	n/a	118540.5	responseSmallH	correct	n/a	0.44043	no	n/a	n/a
464.1298828	n/a	118817.25	largeTSmallH	correct	incongruent	0.45117	no	T	H
464.5810547	n/a	118932.75	responseSmallH	correct	n/a	0.45117	no	n/a	n/a
465.6499023	n/a	119206.375	largeHSmallT	correct	incongruent	0.42334	no	H	T
466.0732422	n/a	119314.75	responseSmallT	correct	n/a	0.42334	no	n/a	n/a
467.1298828	n/a	119585.25	largeTSmallH	correct	incongruent	0.48291	no	T	H
467.612793	n/a	119708.875	responseSmallH	correct	n/a	0.48291	no	n/a	n/a
468.6767578	n/a	119981.25	largeTSmallT	correct	congruent	0.46777	no	T	T
469.1445312	n/a	120101	responseSmallT	correct	n/a	0.46777	no	n/a	n/a
470.2099609	n/a	120373.75	largeHSmallT	correct	incongruent	0.49268	no	H	T
470.7026367	n/a	120499.875	responseSmallT	correct	n/a	0.49268	no	n/a	n/a
471.7700195	n/a	120773.125	largeHSmallH	correct	congruent	0.40234	no	H	H
472.1723633	n/a	120876.125	responseSmallH	correct	n/a	0.40234	no	n/a	n/a
473.2363281	n/a	121148.5	largeHSmallH	correct	congruent	0.44727	no	H	H
473.6835938	n/a	121263	responseSmallH	correct	n/a	0.44727	no	n/a	n/a
474.7431641	n/a	121534.25	largeTSmallT	correct	congruent	0.58691	no	T	T
475.3300781	n/a	121684.5	responseSmallT	correct	n/a	0.58691	no	n/a	n/a
476.409668	n/a	121960.875	largeTSmallT	correct	congruent	0.49268	no	T	T
476.9023438	n/a	122087	responseSmallT	correct	n/a	0.49268	no	n/a	n/a
477.9829102	n/a	122363.625	largeTSmallT	correct	congruent	0.46387	no	T	T
478.4467773	n/a	122482.375	responseSmallT	correct	n/a	0.46387	no	n/a	n/a
479.5166016	n/a	122756.25	largeHSmallH	correct	congruent	0.47803	no	H	H
479.9946289	n/a	122878.625	responseSmallH	correct	n/a	0.47803	no	n/a	n/a
481.0629883	n/a	123152.125	largeTSmallH	error	incongruent	0.43652	no	T	H
481.4995117	n/a	123263.875	responseSmallT	error	n/a	0.43652	no	n/a	n/a
482.5693359	n/a	123537.75	largeTSmallT	correct	congruent	0.61133	no	T	T
483.1806641	n/a	123694.25	responseSmallT	correct	n/a	0.61133	no	n/a	n/a
484.2495117	n/a	123967.875	largeHSmallH	correct	congruent	0.42578	no	H	H
484.675293	n/a	124076.875	responseSmallH	correct	n/a	0.42578	no	n/a	n/a
485.7431641	n/a	124350.25	largeTSmallT	correct	congruent	0.5166	no	T	T
486.2597656	n/a	124482.5	responseSmallT	correct	n/a	0.5166	no	n/a	n/a
487.3295898	n/a	124756.375	largeTSmallH	correct	incongruent	0.43701	no	T	H
487.7666016	n/a	124868.25	responseSmallH	correct	n/a	0.43701	no	n/a	n/a
488.8359375	n/a	125142	largeHSmallT	correct	incongruent	0.45264	no	H	T
489.2885742	n/a	125257.875	responseSmallT	correct	n/a	0.45264	no	n/a	n/a
490.3691406	n/a	125534.5	largeTSmallT	correct	congruent	0.5127	no	T	T
490.8818359	n/a	125665.75	responseSmallT	correct	n/a	0.5127	no	n/a	n/a
491.9560547	n/a	125940.75	largeHSmallH	correct	congruent	0.45117	no	H	H
492.4072266	n/a	126056.25	responseSmallH	correct	n/a	0.45117	no	n/a	n/a
493.4760742	n/a	126329.875	largeHSmallT	correct	incongruent	0.49365	no	H	T
493.9697266	n/a	126456.25	responseSmallT	correct	n/a	0.49365	no	n/a	n/a
495.0493164	n/a	126732.625	largeHSmallT	correct	incongruent	0.45557	no	H	T
495.5048828	n/a	126849.25	responseSmallT	correct	n/a	0.45557	no	n/a	n/a
496.5693359	n/a	127121.75	largeTSmallH	correct	incongruent	0.45361	no	T	H
497.0229492	n/a	127237.875	responseSmallH	correct	n/a	0.45361	no	n/a	n/a
498.0888672	n/a	127510.75	largeTSmallT	correct	congruent	0.52197	no	T	T
498.6108398	n/a	127644.375	responseSmallT	correct	n/a	0.52197	no	n/a	n/a
499.6757812	n/a	127917	largeTSmallT	correct	congruent	0.5752	no	T	T
500.2509766	n/a	128064.25	responseSmallT	correct	n/a	0.5752	no	n/a	n/a
501.315918	n/a	128336.875	largeHSmallT	correct	incongruent	0.51904	no	H	T
501.8349609	n/a	128469.75	responseSmallT	correct	n/a	0.51904	no	n/a	n/a
502.9023438	n/a	128743	largeTSmallT	correct	congruent	0.48779	no	T	T
503.3901367	n/a	128867.875	responseSmallT	correct	n/a	0.48779	no	n/a	n/a
504.4624023	n/a	129142.375	largeTSmallH	correct	incongruent	0.4873	no	T	H
504.949707	n/a	129267.125	responseSmallH	correct	n/a	0.4873	no	n/a	n/a
506.0087891	n/a	129538.25	largeHSmallH	correct	congruent	0.50342	no	H	H
506.512207	n/a	129667.125	responseSmallH	correct	n/a	0.50342	no	n/a	n/a
507.5830078	n/a	129941.25	largeTSmallT	correct	congruent	0.48535	no	T	T
508.0683594	n/a	130065.5	responseSmallT	correct	n/a	0.48535	no	n/a	n/a
509.1293945	n/a	130337.125	largeTSmallT	correct	congruent	0.45996	no	T	T
509.5893555	n/a	130454.875	responseSmallT	correct	n/a	0.45996	no	n/a	n/a
510.6621094	n/a	130729.5	largeTSmallH	correct	incongruent	0.45947	no	T	H
511.121582	n/a	130847.125	responseSmallH	correct	n/a	0.45947	no	n/a	n/a
512.1953125	n/a	131122	largeHSmallH	correct	congruent	0.4292	no	H	H
512.6245117	n/a	131231.875	responseSmallH	correct	n/a	0.4292	no	n/a	n/a
513.6889648	n/a	131504.375	largeHSmallH	correct	congruent	0.40869	no	H	H
514.0976562	n/a	131609	responseSmallH	correct	n/a	0.40869	no	n/a	n/a
515.1689453	n/a	131883.25	largeHSmallH	correct	congruent	0.41504	no	H	H
515.5839844	n/a	131989.5	responseSmallH	correct	n/a	0.41504	no	n/a	n/a
516.6489258	n/a	132262.125	largeTSmallT	correct	congruent	0.47217	no	T	T
517.1210938	n/a	132383	responseSmallT	correct	n/a	0.47217	no	n/a	n/a
518.1953125	n/a	132658	largeTSmallH	correct	incongruent	0.40576	no	T	H
518.6010742	n/a	132761.875	responseSmallH	correct	n/a	0.40576	no	n/a	n/a
519.675293	n/a	133036.875	largeTSmallT	correct	congruent	0.41455	no	T	T
520.0898438	n/a	133143	responseSmallT	correct	n/a	0.41455	no	n/a	n/a
521.1552734	n/a	133415.75	largeHSmallT	error	incongruent	0.40723	no	H	T
521.5625	n/a	133520	responseSmallH	error	n/a	0.40723	no	n/a	n/a
522.6352539	n/a	133794.625	largeTSmallT	correct	congruent	0.5376	no	T	T
523.1728516	n/a	133932.25	responseSmallT	correct	n/a	0.5376	no	n/a	n/a
524.2485352	n/a	134207.625	largeTSmallT	correct	congruent	0.46191	no	T	T
524.7104492	n/a	134325.875	responseSmallT	correct	n/a	0.46191	no	n/a	n/a
525.7817383	n/a	134600.125	largeHSmallH	correct	congruent	0.46191	no	H	H
526.2436523	n/a	134718.375	responseSmallH	correct	n/a	0.46191	no	n/a	n/a
527.3017578	n/a	134989.25	largeHSmallT	correct	incongruent	0.43945	no	H	T
527.7412109	n/a	135101.75	responseSmallT	correct	n/a	0.43945	no	n/a	n/a
528.8217773	n/a	135378.375	largeTSmallT	correct	congruent	0.66699	no	T	T
529.4887695	n/a	135549.125	responseSmallT	correct	n/a	0.66699	no	n/a	n/a
530.5683594	n/a	135825.5	largeTSmallT	correct	congruent	0.46191	no	T	T
531.0302734	n/a	135943.75	responseSmallT	correct	n/a	0.46191	no	n/a	n/a
532.0883789	n/a	136214.625	largeHSmallT	correct	incongruent	0.42725	no	H	T
532.515625	n/a	136324	responseSmallT	correct	n/a	0.42725	no	n/a	n/a
533.581543	n/a	136596.875	largeHSmallT	correct	incongruent	0.4585	no	H	T
534.0400391	n/a	136714.25	responseSmallT	correct	n/a	0.4585	no	n/a	n/a
535.1020508	n/a	136986.125	largeTSmallH	correct	incongruent	0.44434	no	T	H
535.5463867	n/a	137099.875	responseSmallH	correct	n/a	0.44434	no	n/a	n/a
536.621582	n/a	137375.125	largeHSmallT	correct	incongruent	0.49072	no	H	T
537.1123047	n/a	137500.75	responseSmallT	correct	n/a	0.49072	no	n/a	n/a
538.1816406	n/a	137774.5	largeHSmallH	correct	congruent	0.5166	no	H	H
538.6982422	n/a	137906.75	responseSmallH	correct	n/a	0.5166	no	n/a	n/a
539.7680664	n/a	138180.625	largeTSmallH	correct	incongruent	0.44092	no	T	H
540.2089844	n/a	138293.5	responseSmallH	correct	n/a	0.44092	no	n/a	n/a
541.2880859	n/a	138569.75	largeHSmallH	correct	congruent	0.45947	no	H	H
541.7475586	n/a	138687.375	responseSmallH	correct	n/a	0.45947	no	n/a	n/a
542.8081055	n/a	138958.875	largeHSmallT	correct	incongruent	0.49658	no	H	T
543.3046875	n/a	139086	responseSmallT	correct	n/a	0.49658	no	n/a	n/a
544.3681641	n/a	139358.25	largeTSmallH	correct	incongruent	0.43408	no	T	H
544.8022461	n/a	139469.375	responseSmallH	correct	n/a	0.43408	no	n/a	n/a
545.8745117	n/a	139743.875	largeTSmallT	correct	congruent	0.4502	no	T	T
546.324707	n/a	139859.125	responseSmallT	correct	n/a	0.4502	no	n/a	n/a
547.3945312	n/a	140133	largeHSmallT	correct	incongruent	0.46387	no	H	T
547.8583984	n/a	140251.75	responseSmallT	correct	n/a	0.46387	no	n/a	n/a
548.9277344	n/a	140525.5	largeHSmallH	correct	congruent	0.38965	no	H	H
549.3173828	n/a	140625.25	responseSmallH	correct	n/a	0.38965	no	n/a	n/a
550.3945312	n/a	140901	largeTSmallT	correct	congruent	0.41602	no	T	T
550.8105469	n/a	141007.5	responseSmallT	correct	n/a	0.41602	no	n/a	n/a
551.8745117	n/a	141279.875	largeHSmallH	correct	congruent	0.38867	no	H	H
552.2631836	n/a	141379.375	responseSmallH	correct	n/a	0.38867	no	n/a	n/a
553.3276367	n/a	141651.875	largeTSmallT	correct	congruent	0.58887	no	T	T
553.9165039	n/a	141802.625	responseSmallT	correct	n/a	0.58887	no	n/a	n/a
554.980957	n/a	142075.125	largeHSmallH	correct	congruent	0.42529	no	H	H
555.40625	n/a	142184	responseSmallH	correct	n/a	0.42529	no	n/a	n/a
556.4746094	n/a	142457.5	largeHSmallT	correct	incongruent	1.4629	no	H	T
557.9375	n/a	142832	responseSmallT	correct	n/a	1.4629	no	n/a	n/a
559.0078125	n/a	143106	largeHSmallH	correct	congruent	0.78516	no	H	H
559.7929688	n/a	143307	responseSmallH	correct	n/a	0.78516	no	n/a	n/a
560.8608398	n/a	143580.375	largeHSmallH	correct	congruent	0.48193	no	H	H
561.3427734	n/a	143703.75	responseSmallH	correct	n/a	0.48193	no	n/a	n/a
562.4077148	n/a	143976.375	largeHSmallT	correct	incongruent	0.53613	no	H	T
562.9438477	n/a	144113.625	responseSmallT	correct	n/a	0.53613	no	n/a	n/a
564.0073242	n/a	144385.875	largeTSmallT	correct	congruent	0.49854	no	T	T
564.5058594	n/a	144513.5	responseSmallT	correct	n/a	0.49854	no	n/a	n/a
565.5673828	n/a	144785.25	largeHSmallT	correct	incongruent	0.44629	no	H	T
566.0136719	n/a	144899.5	responseSmallT	correct	n/a	0.44629	no	n/a	n/a
567.0874023	n/a	145174.375	largeTSmallT	correct	congruent	0.44727	no	T	T
567.534668	n/a	145288.875	responseSmallT	correct	n/a	0.44727	no	n/a	n/a
568.59375	n/a	145560	largeTSmallT	correct	congruent	0.41309	no	T	T
569.0068359	n/a	145665.75	responseSmallT	correct	n/a	0.41309	no	n/a	n/a
570.0874023	n/a	145942.375	largeTSmallH	correct	incongruent	0.47607	no	T	H
570.5634766	n/a	146064.25	responseSmallH	correct	n/a	0.47607	no	n/a	n/a
571.6206055	n/a	146334.875	largeTSmallH	correct	incongruent	0.47705	no	T	H
572.0976562	n/a	146457	responseSmallH	correct	n/a	0.47705	no	n/a	n/a
573.1669922	n/a	146730.75	largeTSmallT	correct	congruent	0.44238	no	T	T
573.609375	n/a	146844	responseSmallT	correct	n/a	0.44238	no	n/a	n/a
574.6870117	n/a	147119.875	largeHSmallT	correct	incongruent	0.47217	no	H	T
575.1591797	n/a	147240.75	responseSmallT	correct	n/a	0.47217	no	n/a	n/a
576.2338867	n/a	147515.875	largeTSmallH	correct	incongruent	0.42969	no	T	H
576.6635742	n/a	147625.875	responseSmallH	correct	n/a	0.42969	no	n/a	n/a
577.7407227	n/a	147901.625	largeHSmallT	correct	incongruent	0.64697	no	H	T
578.3876953	n/a	148067.25	responseSmallT	correct	n/a	0.64697	no	n/a	n/a
579.4604492	n/a	148341.875	largeTSmallH	correct	incongruent	0.50537	no	T	H
579.9658203	n/a	148471.25	responseSmallH	correct	n/a	0.50537	no	n/a	n/a
581.0336914	n/a	148744.625	largeTSmallT	correct	congruent	0.45312	no	T	T
581.4868164	n/a	148860.625	responseSmallT	correct	n/a	0.45312	no	n/a	n/a
582.5668945	n/a	149137.125	largeHSmallT	correct	incongruent	0.58105	no	H	T
583.1479492	n/a	149285.875	responseSmallT	correct	n/a	0.58105	no	n/a	n/a
584.2202148	n/a	149560.375	largeHSmallT	correct	incongruent	0.73047	no	H	T
584.9506836	n/a	149747.375	responseSmallT	correct	n/a	0.73047	no	n/a	n/a
586.0200195	n/a	150021.125	largeHSmallH	correct	congruent	0.41113	no	H	H
586.4311523	n/a	150126.375	responseSmallH	correct	n/a	0.41113	no	n/a	n/a
587.5004883	n/a	150400.125	largeTSmallT	correct	congruent	0.4458	no	T	T
587.9462891	n/a	150514.25	responseSmallT	correct	n/a	0.4458	no	n/a	n/a
589.0200195	n/a	150789.125	largeTSmallH	correct	incongruent	0.42676	no	T	H
589.4467773	n/a	150898.375	responseSmallH	correct	n/a	0.42676	no	n/a	n/a
590.5131836	n/a	151171.375	largeHSmallT	correct	incongruent	0.54688	no	H	T
591.0600586	n/a	151311.375	responseSmallT	correct	n/a	0.54688	no	n/a	n/a
592.1269531	n/a	151584.5	largeHSmallT	correct	incongruent	0.48535	no	H	T
592.6123047	n/a	151708.75	responseSmallT	correct	n/a	0.48535	no	n/a	n/a
593.6865234	n/a	151983.75	largeHSmallH	correct	congruent	0.4209	no	H	H
594.1074219	n/a	152091.5	responseSmallH	correct	n/a	0.4209	no	n/a	n/a
595.1801758	n/a	152366.125	largeHSmallH	correct	congruent	0.51025	no	H	H
595.6904297	n/a	152496.75	responseSmallH	correct	n/a	0.51025	no	n/a	n/a
596.753418	n/a	152768.875	largeHSmallT	error	incongruent	0.47461	no	H	T
597.2280273	n/a	152890.375	responseSmallH	error	n/a	0.47461	no	n/a	n/a
598.2998047	n/a	153164.75	largeTSmallH	correct	incongruent	0.5415	no	T	H
598.8413086	n/a	153303.375	responseSmallH	correct	n/a	0.5415	no	n/a	n/a
599.9135742	n/a	153577.875	largeTSmallH	correct	incongruent	0.59814	no	T	H
600.5117188	n/a	153731	responseSmallH	correct	n/a	0.59814	no	n/a	n/a
601.5800781	n/a	154004.5	largeHSmallT	correct	incongruent	0.50049	no	H	T
602.0805664	n/a	154132.625	responseSmallT	correct	n/a	0.50049	no	n/a	n/a
603.1533203	n/a	154407.25	largeTSmallT	correct	congruent	0.56104	no	T	T
603.7143555	n/a	154550.875	responseSmallT	correct	n/a	0.56104	no	n/a	n/a
604.7929688	n/a	154827	largeTSmallH	correct	incongruent	0.40869	no	T	H
605.2016602	n/a	154931.625	responseSmallH	correct	n/a	0.40869	no	n/a	n/a
606.2729492	n/a	155205.875	largeHSmallT	correct	incongruent	0.46094	no	H	T
606.7338867	n/a	155323.875	responseSmallT	correct	n/a	0.46094	no	n/a	n/a
607.8066406	n/a	155598.5	largeHSmallH	correct	congruent	0.4082	no	H	H
608.2148438	n/a	155703	responseSmallH	correct	n/a	0.4082	no	n/a	n/a
609.2861328	n/a	155977.25	largeHSmallH	correct	congruent	0.42285	no	H	H
609.7089844	n/a	156085.5	responseSmallH	correct	n/a	0.42285	no	n/a	n/a
610.7797852	n/a	156359.625	largeTSmallT	correct	congruent	0.46338	no	T	T
611.2431641	n/a	156478.25	responseSmallT	correct	n/a	0.46338	no	n/a	n/a
612.3129883	n/a	156752.125	largeTSmallT	correct	congruent	0.51025	no	T	T
612.8232422	n/a	156882.75	responseSmallT	correct	n/a	0.51025	no	n/a	n/a
613.8862305	n/a	157154.875	largeTSmallT	correct	congruent	0.49121	no	T	T
614.3774414	n/a	157280.625	responseSmallT	correct	n/a	0.49121	no	n/a	n/a
615.4458008	n/a	157554.125	largeTSmallT	correct	congruent	0.55908	no	T	T
616.0048828	n/a	157697.25	responseSmallT	correct	n/a	0.55908	no	n/a	n/a
617.0727539	n/a	157970.625	largeHSmallH	correct	congruent	0.43262	no	H	H
617.5053711	n/a	158081.375	responseSmallH	correct	n/a	0.43262	no	n/a	n/a
618.5795898	n/a	158356.375	largeHSmallH	correct	congruent	0.42627	no	H	H
619.0058594	n/a	158465.5	responseSmallH	correct	n/a	0.42627	no	n/a	n/a
620.0859375	n/a	158742	largeTSmallH	correct	incongruent	0.41211	no	T	H
620.4980469	n/a	158847.5	responseSmallH	correct	n/a	0.41211	no	n/a	n/a
621.6015625	n/a	159130	largeTSmallT	correct	congruent	0.54785	no	T	T
622.1494141	n/a	159270.25	responseSmallT	correct	n/a	0.54785	no	n/a	n/a
623.2192383	n/a	159544.125	largeTSmallT	error	congruent	0.4043	no	T	T
623.6235352	n/a	159647.625	responseSmallH	error	n/a	0.4043	no	n/a	n/a
624.6992188	n/a	159923	largeHSmallT	correct	incongruent	0.67822	no	H	T
625.3774414	n/a	160096.625	responseSmallT	correct	n/a	0.67822	no	n/a	n/a
626.4458008	n/a	160370.125	largeTSmallH	correct	incongruent	0.50342	no	T	H
626.9492188	n/a	160499	responseSmallH	correct	n/a	0.50342	no	n/a	n/a
628.0195312	n/a	160773	largeHSmallH	correct	congruent	0.47998	no	H	H
628.4995117	n/a	160895.875	responseSmallH	correct	n/a	0.47998	no	n/a	n/a
629.565918	n/a	161168.875	largeHSmallH	correct	congruent	0.45117	no	H	H
630.0170898	n/a	161284.375	responseSmallH	correct	n/a	0.45117	no	n/a	n/a
631.0991211	n/a	161561.375	largeTSmallT	correct	congruent	0.46289	no	T	T
631.5620117	n/a	161679.875	responseSmallT	correct	n/a	0.46289	no	n/a	n/a
632.6323242	n/a	161953.875	largeTSmallH	correct	incongruent	0.43604	no	T	H
633.0683594	n/a	162065.5	responseSmallH	correct	n/a	0.43604	no	n/a	n/a
634.1391602	n/a	162339.625	largeTSmallH	correct	incongruent	0.39062	no	T	H
634.5297852	n/a	162439.625	responseSmallH	correct	n/a	0.39062	no	n/a	n/a
635.6054688	n/a	162715	largeHSmallH	correct	congruent	0.41943	no	H	H
636.0249023	n/a	162822.375	responseSmallH	correct	n/a	0.41943	no	n/a	n/a
637.2456055	n/a	163134.875	largeHSmallH	correct	congruent	0.44092	no	H	H
637.6865234	n/a	163247.75	responseSmallH	correct	n/a	0.44092	no	n/a	n/a
638.7519531	n/a	163520.5	largeTSmallH	correct	incongruent	0.45166	no	T	H
639.2036133	n/a	163636.125	responseSmallH	correct	n/a	0.45166	no	n/a	n/a
640.2856445	n/a	163913.125	largeHSmallT	correct	incongruent	0.47754	no	H	T
640.7631836	n/a	164035.375	responseSmallT	correct	n/a	0.47754	no	n/a	n/a
641.8320312	n/a	164309	largeHSmallH	correct	congruent	0.39844	no	H	H
642.2304688	n/a	164411	responseSmallH	correct	n/a	0.39844	no	n/a	n/a
643.3120117	n/a	164687.875	largeHSmallH	correct	congruent	0.4126	no	H	H
643.7246094	n/a	164793.5	responseSmallH	correct	n/a	0.4126	no	n/a	n/a
644.7919922	n/a	165066.75	largeTSmallH	correct	incongruent	0.375	no	T	H
645.1669922	n/a	165162.75	responseSmallH	correct	n/a	0.375	no	n/a	n/a
650.2451172	n/a	166462.75	largeHSmallT	correct	incongruent	0.57715	no	H	T
650.8222656	n/a	166610.5	responseLargeH	correct	n/a	0.57715	no	n/a	n/a
651.8852539	n/a	166882.625	largeTSmallH	error	incongruent	0.31006	no	T	H
652.1953125	n/a	166962	responseLargeH	error	n/a	0.31006	no	n/a	n/a
653.2583008	n/a	167234.125	largeTSmallT	correct	congruent	0.47754	no	T	T
653.7358398	n/a	167356.375	responseLargeT	correct	n/a	0.47754	no	n/a	n/a
654.8051758	n/a	167630.125	largeHSmallH	correct	congruent	0.41406	no	H	H
655.2192383	n/a	167736.125	responseLargeH	correct	n/a	0.41406	no	n/a	n/a
656.2851562	n/a	168009	largeHSmallH	correct	congruent	0.39404	no	H	H
656.6791992	n/a	168109.875	responseLargeH	correct	n/a	0.39404	no	n/a	n/a
657.7519531	n/a	168384.5	largeHSmallT	correct	incongruent	0.38379	no	H	T
658.1357422	n/a	168482.75	responseLargeH	correct	n/a	0.38379	no	n/a	n/a
659.2050781	n/a	168756.5	largeHSmallH	correct	congruent	0.41895	no	H	H
659.6240234	n/a	168863.75	responseLargeH	correct	n/a	0.41895	no	n/a	n/a
660.6850586	n/a	169135.375	largeHSmallT	correct	incongruent	0.40088	no	H	T
661.0859375	n/a	169238	responseLargeH	correct	n/a	0.40088	no	n/a	n/a
662.1518555	n/a	169510.875	largeTSmallT	correct	congruent	0.43115	no	T	T
662.5830078	n/a	169621.25	responseLargeT	correct	n/a	0.43115	no	n/a	n/a
663.6582031	n/a	169896.5	largeTSmallT	correct	congruent	0.41113	no	T	T
664.0693359	n/a	170001.75	responseLargeT	correct	n/a	0.41113	no	n/a	n/a
665.1381836	n/a	170275.375	largeHSmallH	correct	congruent	0.54932	no	H	H
665.6875	n/a	170416	responseLargeH	correct	n/a	0.54932	no	n/a	n/a
666.7514648	n/a	170688.375	largeHSmallH	correct	congruent	0.44678	no	H	H
667.1982422	n/a	170802.75	responseLargeH	correct	n/a	0.44678	no	n/a	n/a
668.2714844	n/a	171077.5	largeHSmallH	correct	congruent	0.41748	no	H	H
668.6889648	n/a	171184.375	responseLargeH	correct	n/a	0.41748	no	n/a	n/a
669.7646484	n/a	171459.75	largeHSmallT	correct	incongruent	0.45459	no	H	T
670.2192383	n/a	171576.125	responseLargeH	correct	n/a	0.45459	no	n/a	n/a
671.2978516	n/a	171852.25	largeHSmallT	correct	incongruent	0.39111	no	H	T
671.6889648	n/a	171952.375	responseLargeH	correct	n/a	0.39111	no	n/a	n/a
672.7646484	n/a	172227.75	largeHSmallH	correct	congruent	0.4502	no	H	H
673.2148438	n/a	172343	responseLargeH	correct	n/a	0.4502	no	n/a	n/a
674.284668	n/a	172616.875	largeTSmallT	correct	congruent	0.39893	no	T	T
674.6835938	n/a	172719	responseLargeT	correct	n/a	0.39893	no	n/a	n/a
675.7514648	n/a	172992.375	largeHSmallH	correct	congruent	0.39258	no	H	H
676.144043	n/a	173092.875	responseLargeH	correct	n/a	0.39258	no	n/a	n/a
677.2045898	n/a	173364.375	largeHSmallT	correct	incongruent	0.55811	no	H	T
677.7626953	n/a	173507.25	responseLargeH	correct	n/a	0.55811	no	n/a	n/a
678.8310547	n/a	173780.75	largeTSmallT	correct	congruent	0.41357	no	T	T
679.2446289	n/a	173886.625	responseLargeT	correct	n/a	0.41357	no	n/a	n/a
680.3110352	n/a	174159.625	largeTSmallH	error	incongruent	0.32373	no	T	H
680.6347656	n/a	174242.5	responseLargeH	error	n/a	0.32373	no	n/a	n/a
681.6977539	n/a	174514.625	largeHSmallT	correct	incongruent	0.42139	no	H	T
682.1191406	n/a	174622.5	responseLargeH	correct	n/a	0.42139	no	n/a	n/a
683.1777344	n/a	174893.5	largeHSmallH	correct	congruent	0.38818	no	H	H
683.565918	n/a	174992.875	responseLargeH	correct	n/a	0.38818	no	n/a	n/a
684.6313477	n/a	175265.625	largeTSmallT	correct	congruent	0.47217	no	T	T
685.1035156	n/a	175386.5	responseLargeT	correct	n/a	0.47217	no	n/a	n/a
686.1777344	n/a	175661.5	largeTSmallT	correct	congruent	0.39746	no	T	T
686.5751953	n/a	175763.25	responseLargeT	correct	n/a	0.39746	no	n/a	n/a
687.644043	n/a	176036.875	largeHSmallH	correct	congruent	0.42578	no	H	H
688.0698242	n/a	176145.875	responseLargeH	correct	n/a	0.42578	no	n/a	n/a
689.1376953	n/a	176419.25	largeHSmallT	correct	incongruent	0.36133	no	H	T
689.4990234	n/a	176511.75	responseLargeH	correct	n/a	0.36133	no	n/a	n/a
690.5776367	n/a	176787.875	largeTSmallH	correct	incongruent	0.34766	no	T	H
690.925293	n/a	176876.875	responseLargeT	correct	n/a	0.34766	no	n/a	n/a
691.9907227	n/a	177149.625	largeHSmallT	correct	incongruent	0.35889	no	H	T
692.3496094	n/a	177241.5	responseLargeH	correct	n/a	0.35889	no	n/a	n/a
693.4174805	n/a	177514.875	largeTSmallT	correct	congruent	0.54102	no	T	T
693.9584961	n/a	177653.375	responseLargeT	correct	n/a	0.54102	no	n/a	n/a
695.0307617	n/a	177927.875	largeTSmallT	correct	congruent	0.54346	no	T	T
695.5742188	n/a	178067	responseLargeT	correct	n/a	0.54346	no	n/a	n/a
696.644043	n/a	178340.875	largeTSmallH	correct	incongruent	0.51953	no	T	H
697.1635742	n/a	178473.875	responseLargeT	correct	n/a	0.51953	no	n/a	n/a
698.2304688	n/a	178747	largeTSmallT	error	congruent	0.42725	no	T	T
698.6577148	n/a	178856.375	responseLargeH	error	n/a	0.42725	no	n/a	n/a
699.7373047	n/a	179132.75	largeTSmallH	correct	incongruent	0.44873	no	T	H
700.1860352	n/a	179247.625	responseLargeT	correct	n/a	0.44873	no	n/a	n/a
701.2705078	n/a	179525.25	largeHSmallT	correct	incongruent	0.66309	no	H	T
701.9335938	n/a	179695	responseLargeH	correct	n/a	0.66309	no	n/a	n/a
703.0039062	n/a	179969	largeHSmallT	correct	incongruent	0.46436	no	H	T
703.4682617	n/a	180087.875	responseLargeH	correct	n/a	0.46436	no	n/a	n/a
704.5371094	n/a	180361.5	largeTSmallT	correct	congruent	0.44971	no	T	T
704.9868164	n/a	180476.625	responseLargeT	correct	n/a	0.44971	no	n/a	n/a
706.0571289	n/a	180750.625	largeTSmallH	correct	incongruent	0.44824	no	T	H
706.5053711	n/a	180865.375	responseLargeT	correct	n/a	0.44824	no	n/a	n/a
707.5771484	n/a	181139.75	largeHSmallT	correct	incongruent	0.45215	no	H	T
708.0292969	n/a	181255.5	responseLargeH	correct	n/a	0.45215	no	n/a	n/a
709.097168	n/a	181528.875	largeTSmallH	correct	incongruent	0.49268	no	T	H
709.5898438	n/a	181655	responseLargeT	correct	n/a	0.49268	no	n/a	n/a
710.6572266	n/a	181928.25	largeHSmallT	correct	incongruent	0.39551	no	H	T
711.0527344	n/a	182029.5	responseLargeH	correct	n/a	0.39551	no	n/a	n/a
712.1235352	n/a	182303.625	largeHSmallH	correct	congruent	0.49023	no	H	H
712.6137695	n/a	182429.125	responseLargeH	correct	n/a	0.49023	no	n/a	n/a
713.6835938	n/a	182703	largeTSmallT	correct	congruent	0.41846	no	T	T
714.1020508	n/a	182810.125	responseLargeT	correct	n/a	0.41846	no	n/a	n/a
715.1767578	n/a	183085.25	largeTSmallH	correct	incongruent	0.52051	no	T	H
715.6972656	n/a	183218.5	responseLargeT	correct	n/a	0.52051	no	n/a	n/a
716.7768555	n/a	183494.875	largeTSmallT	correct	congruent	0.46484	no	T	T
717.2416992	n/a	183613.875	responseLargeT	correct	n/a	0.46484	no	n/a	n/a
718.3100586	n/a	183887.375	largeHSmallT	correct	incongruent	0.44287	no	H	T
718.7529297	n/a	184000.75	responseLargeH	correct	n/a	0.44287	no	n/a	n/a
719.8300781	n/a	184276.5	largeHSmallH	correct	congruent	0.44287	no	H	H
720.2729492	n/a	184389.875	responseLargeH	correct	n/a	0.44287	no	n/a	n/a
721.3369141	n/a	184662.25	largeTSmallT	correct	congruent	0.40918	no	T	T
721.7460938	n/a	184767	responseLargeT	correct	n/a	0.40918	no	n/a	n/a
722.8168945	n/a	185041.125	largeHSmallT	correct	incongruent	0.49658	no	H	T
723.3134766	n/a	185168.25	responseLargeH	correct	n/a	0.49658	no	n/a	n/a
724.3901367	n/a	185443.875	largeTSmallH	correct	incongruent	0.40771	no	T	H
724.7978516	n/a	185548.25	responseLargeT	correct	n/a	0.40771	no	n/a	n/a
725.8569336	n/a	185819.375	largeTSmallH	correct	incongruent	0.4458	no	T	H
726.3027344	n/a	185933.5	responseLargeT	correct	n/a	0.4458	no	n/a	n/a
727.3764648	n/a	186208.375	largeTSmallT	correct	congruent	0.45459	no	T	T
727.8310547	n/a	186324.75	responseLargeT	correct	n/a	0.45459	no	n/a	n/a
728.909668	n/a	186600.875	largeTSmallH	correct	incongruent	0.39307	no	T	H
729.3027344	n/a	186701.5	responseLargeT	correct	n/a	0.39307	no	n/a	n/a
730.3764648	n/a	186976.375	largeHSmallT	correct	incongruent	0.43799	no	H	T
730.8144531	n/a	187088.5	responseLargeH	correct	n/a	0.43799	no	n/a	n/a
731.8833008	n/a	187362.125	largeTSmallH	correct	incongruent	0.45898	no	T	H
732.3422852	n/a	187479.625	responseLargeT	correct	n/a	0.45898	no	n/a	n/a
733.4165039	n/a	187754.625	largeHSmallH	correct	congruent	0.40723	no	H	H
733.8237305	n/a	187858.875	responseLargeH	correct	n/a	0.40723	no	n/a	n/a
734.8964844	n/a	188133.5	largeHSmallT	correct	incongruent	0.39355	no	H	T
735.2900391	n/a	188234.25	responseLargeH	correct	n/a	0.39355	no	n/a	n/a
736.362793	n/a	188508.875	largeTSmallH	correct	incongruent	0.43457	no	T	H
736.7973633	n/a	188620.125	responseLargeT	correct	n/a	0.43457	no	n/a	n/a
737.8828125	n/a	188898	largeHSmallT	correct	incongruent	0.48291	no	H	T
738.3657227	n/a	189021.625	responseLargeH	correct	n/a	0.48291	no	n/a	n/a
739.4428711	n/a	189297.375	largeTSmallH	correct	incongruent	0.49902	no	T	H
739.9418945	n/a	189425.125	responseLargeT	correct	n/a	0.49902	no	n/a	n/a
741.0161133	n/a	189700.125	largeHSmallT	correct	incongruent	0.37988	no	H	T
741.3959961	n/a	189797.375	responseLargeH	correct	n/a	0.37988	no	n/a	n/a
742.4692383	n/a	190072.125	largeHSmallT	correct	incongruent	0.4043	no	H	T
742.8735352	n/a	190175.625	responseLargeH	correct	n/a	0.4043	no	n/a	n/a
743.9492188	n/a	190451	largeHSmallH	correct	congruent	0.43457	no	H	H
744.3837891	n/a	190562.25	responseLargeH	correct	n/a	0.43457	no	n/a	n/a
745.6025391	n/a	190874.25	largeTSmallH	correct	incongruent	0.38574	no	T	H
745.9882812	n/a	190973	responseLargeT	correct	n/a	0.38574	no	n/a	n/a
747.0693359	n/a	191249.75	largeHSmallH	correct	congruent	0.33691	no	H	H
747.40625	n/a	191336	responseLargeH	correct	n/a	0.33691	no	n/a	n/a
748.4829102	n/a	191611.625	largeTSmallT	correct	congruent	0.45264	no	T	T
748.9355469	n/a	191727.5	responseLargeT	correct	n/a	0.45264	no	n/a	n/a
750.0161133	n/a	192004.125	largeHSmallT	correct	incongruent	0.42188	no	H	T
750.4379883	n/a	192112.125	responseLargeH	correct	n/a	0.42188	no	n/a	n/a
751.5092773	n/a	192386.375	largeHSmallT	correct	incongruent	0.41309	no	H	T
751.9223633	n/a	192492.125	responseLargeH	correct	n/a	0.41309	no	n/a	n/a
752.9892578	n/a	192765.25	largeTSmallH	correct	incongruent	0.53906	no	T	H
753.5283203	n/a	192903.25	responseLargeT	correct	n/a	0.53906	no	n/a	n/a
754.6025391	n/a	193178.25	largeHSmallT	correct	incongruent	0.42236	no	H	T
755.0249023	n/a	193286.375	responseLargeH	correct	n/a	0.42236	no	n/a	n/a
756.0957031	n/a	193560.5	largeTSmallH	correct	incongruent	0.47998	no	T	H
756.5756836	n/a	193683.375	responseLargeT	correct	n/a	0.47998	no	n/a	n/a
757.6425781	n/a	193956.5	largeHSmallH	correct	congruent	0.36133	no	H	H
758.0039062	n/a	194049	responseLargeH	correct	n/a	0.36133	no	n/a	n/a
759.0825195	n/a	194325.125	largeTSmallT	correct	congruent	0.5083	no	T	T
759.5908203	n/a	194455.25	responseLargeT	correct	n/a	0.5083	no	n/a	n/a
760.6689453	n/a	194731.25	largeHSmallH	correct	congruent	0.33154	no	H	H
761.0004883	n/a	194816.125	responseLargeH	correct	n/a	0.33154	no	n/a	n/a
762.0693359	n/a	195089.75	largeHSmallH	correct	congruent	0.33398	no	H	H
762.4033203	n/a	195175.25	responseLargeH	correct	n/a	0.33398	no	n/a	n/a
763.4824219	n/a	195451.5	largeHSmallH	correct	congruent	0.53125	no	H	H
764.0136719	n/a	195587.5	responseLargeH	correct	n/a	0.53125	no	n/a	n/a
765.0820312	n/a	195861	largeTSmallH	error	incongruent	0.42773	no	T	H
765.5097656	n/a	195970.5	responseLargeH	error	n/a	0.42773	no	n/a	n/a
766.5756836	n/a	196243.375	largeHSmallH	correct	congruent	0.41309	no	H	H
766.9887695	n/a	196349.125	responseLargeH	correct	n/a	0.41309	no	n/a	n/a
768.0688477	n/a	196625.625	largeHSmallT	correct	incongruent	0.50879	no	H	T
768.5776367	n/a	196755.875	responseLargeH	correct	n/a	0.50879	no	n/a	n/a
769.6552734	n/a	197031.75	largeTSmallT	correct	congruent	0.43066	no	T	T
770.0859375	n/a	197142	responseLargeT	correct	n/a	0.43066	no	n/a	n/a
771.1484375	n/a	197414	largeHSmallH	correct	congruent	0.40088	no	H	H
771.5493164	n/a	197516.625	responseLargeH	correct	n/a	0.40088	no	n/a	n/a
772.6152344	n/a	197789.5	largeHSmallH	correct	congruent	0.42334	no	H	H
773.0385742	n/a	197897.875	responseLargeH	correct	n/a	0.42334	no	n/a	n/a
774.1220703	n/a	198175.25	largeHSmallH	correct	congruent	0.44824	no	H	H
774.5703125	n/a	198290	responseLargeH	correct	n/a	0.44824	no	n/a	n/a
775.6420898	n/a	198564.375	largeTSmallT	correct	congruent	0.44092	no	T	T
776.0830078	n/a	198677.25	responseLargeT	correct	n/a	0.44092	no	n/a	n/a
777.1621094	n/a	198953.5	largeTSmallH	correct	incongruent	0.55713	no	T	H
777.7192383	n/a	199096.125	responseLargeT	correct	n/a	0.55713	no	n/a	n/a
778.7885742	n/a	199369.875	largeHSmallT	correct	incongruent	0.40234	no	H	T
779.190918	n/a	199472.875	responseLargeH	correct	n/a	0.40234	no	n/a	n/a
780.2685547	n/a	199748.75	largeTSmallH	correct	incongruent	0.45654	no	T	H
780.7250977	n/a	199865.625	responseLargeT	correct	n/a	0.45654	no	n/a	n/a
781.7885742	n/a	200137.875	largeTSmallH	correct	incongruent	0.46875	no	T	H
782.2573242	n/a	200257.875	responseLargeT	correct	n/a	0.46875	no	n/a	n/a
783.3349609	n/a	200533.75	largeHSmallH	correct	congruent	0.43115	no	H	H
783.7661133	n/a	200644.125	responseLargeH	correct	n/a	0.43115	no	n/a	n/a
784.8286133	n/a	200916.125	largeHSmallT	correct	incongruent	0.41211	no	H	T
785.2407227	n/a	201021.625	responseLargeH	correct	n/a	0.41211	no	n/a	n/a
786.3085938	n/a	201295	largeHSmallH	correct	congruent	0.60547	no	H	H
786.9140625	n/a	201450	responseLargeH	correct	n/a	0.60547	no	n/a	n/a
787.9882812	n/a	201725	largeHSmallT	correct	incongruent	0.50244	no	H	T
788.4907227	n/a	201853.625	responseLargeH	correct	n/a	0.50244	no	n/a	n/a
789.5615234	n/a	202127.75	largeTSmallH	correct	incongruent	0.4043	no	T	H
789.9658203	n/a	202231.25	responseLargeT	correct	n/a	0.4043	no	n/a	n/a
791.0415039	n/a	202506.625	largeTSmallH	correct	incongruent	0.59277	no	T	H
791.6342773	n/a	202658.375	responseLargeT	correct	n/a	0.59277	no	n/a	n/a
792.7080078	n/a	202933.25	largeTSmallH	correct	incongruent	0.3916	no	T	H
793.0996094	n/a	203033.5	responseLargeT	correct	n/a	0.3916	no	n/a	n/a
794.1748047	n/a	203308.75	largeHSmallH	correct	congruent	0.44238	no	H	H
794.6171875	n/a	203422	responseLargeH	correct	n/a	0.44238	no	n/a	n/a
795.6948242	n/a	203697.875	largeHSmallT	correct	incongruent	0.39893	no	H	T
796.09375	n/a	203800	responseLargeH	correct	n/a	0.39893	no	n/a	n/a
797.1748047	n/a	204076.75	largeHSmallT	correct	incongruent	0.45166	no	H	T
797.6264648	n/a	204192.375	responseLargeH	correct	n/a	0.45166	no	n/a	n/a
798.7080078	n/a	204469.25	largeHSmallT	correct	incongruent	0.39209	no	H	T
799.1000977	n/a	204569.625	responseLargeH	correct	n/a	0.39209	no	n/a	n/a
800.1748047	n/a	204844.75	largeHSmallH	correct	congruent	0.37646	no	H	H
800.5512695	n/a	204941.125	responseLargeH	correct	n/a	0.37646	no	n/a	n/a
801.6147461	n/a	205213.375	largeHSmallH	correct	congruent	0.41113	no	H	H
802.0258789	n/a	205318.625	responseLargeH	correct	n/a	0.41113	no	n/a	n/a
803.0947266	n/a	205592.25	largeHSmallH	correct	congruent	0.4126	no	H	H
803.5073242	n/a	205697.875	responseLargeH	correct	n/a	0.4126	no	n/a	n/a
804.59375	n/a	205976	largeHSmallH	correct	congruent	0.41943	no	H	H
805.0131836	n/a	206083.375	responseLargeH	correct	n/a	0.41943	no	n/a	n/a
806.081543	n/a	206356.875	largeTSmallT	correct	congruent	0.45264	no	T	T
806.5341797	n/a	206472.75	responseLargeT	correct	n/a	0.45264	no	n/a	n/a
807.6015625	n/a	206746	largeTSmallT	correct	congruent	0.47705	no	T	T
808.0786133	n/a	206868.125	responseLargeT	correct	n/a	0.47705	no	n/a	n/a
809.1479492	n/a	207141.875	largeTSmallT	correct	congruent	0.3999	no	T	T
809.5478516	n/a	207244.25	responseLargeT	correct	n/a	0.3999	no	n/a	n/a
810.6147461	n/a	207517.375	largeHSmallT	correct	incongruent	0.44238	no	H	T
811.0571289	n/a	207630.625	responseLargeH	correct	n/a	0.44238	no	n/a	n/a
812.1342773	n/a	207906.375	largeHSmallT	correct	incongruent	0.37549	no	H	T
812.5097656	n/a	208002.5	responseLargeH	correct	n/a	0.37549	no	n/a	n/a
813.5878906	n/a	208278.5	largeTSmallT	correct	congruent	0.43555	no	T	T
814.0234375	n/a	208390	responseLargeT	correct	n/a	0.43555	no	n/a	n/a
815.0942383	n/a	208664.125	largeHSmallH	correct	congruent	0.41553	no	H	H
815.5097656	n/a	208770.5	responseLargeH	correct	n/a	0.41553	no	n/a	n/a
816.6020508	n/a	209050.125	largeTSmallH	correct	incongruent	0.44922	no	T	H
817.0512695	n/a	209165.125	responseLargeT	correct	n/a	0.44922	no	n/a	n/a
818.1206055	n/a	209438.875	largeHSmallH	correct	congruent	0.44092	no	H	H
818.5615234	n/a	209551.75	responseLargeH	correct	n/a	0.44092	no	n/a	n/a
819.6411133	n/a	209828.125	largeTSmallH	correct	incongruent	0.43848	no	T	H
820.0795898	n/a	209940.375	responseLargeT	correct	n/a	0.43848	no	n/a	n/a
821.1474609	n/a	210213.75	largeTSmallH	correct	incongruent	0.68506	no	T	H
821.8325195	n/a	210389.125	responseLargeT	correct	n/a	0.68506	no	n/a	n/a
822.894043	n/a	210660.875	largeHSmallH	correct	congruent	0.40967	no	H	H
823.3037109	n/a	210765.75	responseLargeH	correct	n/a	0.40967	no	n/a	n/a
824.3735352	n/a	211039.625	largeTSmallT	correct	congruent	0.43604	no	T	T
824.8095703	n/a	211151.25	responseLargeT	correct	n/a	0.43604	no	n/a	n/a
825.8813477	n/a	211425.625	largeHSmallH	correct	congruent	0.47021	no	H	H
826.3515625	n/a	211546	responseLargeH	correct	n/a	0.47021	no	n/a	n/a
827.4140625	n/a	211818	largeTSmallT	correct	congruent	0.43799	no	T	T
827.8520508	n/a	211930.125	responseLargeT	correct	n/a	0.43799	no	n/a	n/a
828.9208984	n/a	212203.75	largeHSmallT	correct	incongruent	0.43896	no	H	T
829.3598633	n/a	212316.125	responseLargeH	correct	n/a	0.43896	no	n/a	n/a
830.4272461	n/a	212589.375	largeTSmallT	correct	congruent	0.42188	no	T	T
830.8491211	n/a	212697.375	responseLargeT	correct	n/a	0.42188	no	n/a	n/a
831.9204102	n/a	212971.625	largeTSmallH	correct	incongruent	0.39209	no	T	H
832.3125	n/a	213072	responseLargeT	correct	n/a	0.39209	no	n/a	n/a
833.3735352	n/a	213343.625	largeTSmallT	correct	congruent	0.3877	no	T	T
833.7612305	n/a	213442.875	responseLargeT	correct	n/a	0.3877	no	n/a	n/a
834.8271484	n/a	213715.75	largeTSmallT	correct	congruent	0.40186	no	T	T
835.2290039	n/a	213818.625	responseLargeT	correct	n/a	0.40186	no	n/a	n/a
836.2939453	n/a	214091.25	largeTSmallH	correct	incongruent	0.64697	no	T	H
836.940918	n/a	214256.875	responseLargeT	correct	n/a	0.64697	no	n/a	n/a
838.0136719	n/a	214531.5	largeHSmallH	correct	congruent	0.46143	no	H	H
838.4750977	n/a	214649.625	responseLargeH	correct	n/a	0.46143	no	n/a	n/a
839.546875	n/a	214924	largeTSmallH	correct	incongruent	0.49316	no	T	H
840.0400391	n/a	215050.25	responseLargeT	correct	n/a	0.49316	no	n/a	n/a
841.1201172	n/a	215326.75	largeTSmallT	correct	congruent	0.45654	no	T	T
841.5766602	n/a	215443.625	responseLargeT	correct	n/a	0.45654	no	n/a	n/a
842.6538086	n/a	215719.375	largeTSmallT	correct	congruent	0.43164	no	T	T
843.0854492	n/a	215829.875	responseLargeT	correct	n/a	0.43164	no	n/a	n/a
844.1601562	n/a	216105	largeTSmallH	correct	incongruent	0.39941	no	T	H
844.5595703	n/a	216207.25	responseLargeT	correct	n/a	0.39941	no	n/a	n/a
845.6269531	n/a	216480.5	largeTSmallH	correct	incongruent	0.44873	no	T	H
846.0756836	n/a	216595.375	responseLargeT	correct	n/a	0.44873	no	n/a	n/a
847.1333008	n/a	216866.125	largeHSmallH	correct	congruent	0.47119	no	H	H
847.6044922	n/a	216986.75	responseLargeH	correct	n/a	0.47119	no	n/a	n/a
848.6801758	n/a	217262.125	largeTSmallT	correct	congruent	0.41504	no	T	T
849.0952148	n/a	217368.375	responseLargeT	correct	n/a	0.41504	no	n/a	n/a
850.1601562	n/a	217641	largeHSmallH	correct	congruent	0.38721	no	H	H
850.5473633	n/a	217740.125	responseLargeH	correct	n/a	0.38721	no	n/a	n/a
851.6132812	n/a	218013	largeTSmallT	correct	congruent	0.39795	no	T	T
852.0112305	n/a	218114.875	responseLargeT	correct	n/a	0.39795	no	n/a	n/a
853.0800781	n/a	218388.5	largeHSmallT	correct	incongruent	0.38965	no	H	T
853.4697266	n/a	218488.25	responseLargeH	correct	n/a	0.38965	no	n/a	n/a
854.5332031	n/a	218760.5	largeHSmallH	correct	congruent	0.47607	no	H	H
855.0092773	n/a	218882.375	responseLargeH	correct	n/a	0.47607	no	n/a	n/a
856.0800781	n/a	219156.5	largeHSmallT	correct	incongruent	0.51172	no	H	T
856.5917969	n/a	219287.5	responseLargeH	correct	n/a	0.51172	no	n/a	n/a
857.6694336	n/a	219563.375	largeTSmallH	correct	incongruent	0.41162	no	T	H
858.0810547	n/a	219668.75	responseLargeT	correct	n/a	0.41162	no	n/a	n/a
859.1464844	n/a	219941.5	largeTSmallT	correct	congruent	0.42334	no	T	T
859.5698242	n/a	220049.875	responseLargeT	correct	n/a	0.42334	no	n/a	n/a
860.6396484	n/a	220323.75	largeHSmallT	correct	incongruent	0.39355	no	H	T
861.0332031	n/a	220424.5	responseLargeH	correct	n/a	0.39355	no	n/a	n/a
862.0927734	n/a	220695.75	largeTSmallH	correct	incongruent	0.46387	no	T	H
862.5566406	n/a	220814.5	responseLargeT	correct	n/a	0.46387	no	n/a	n/a
863.6264648	n/a	221088.375	largeTSmallH	correct	incongruent	0.48096	no	T	H
864.1074219	n/a	221211.5	responseLargeT	correct	n/a	0.48096	no	n/a	n/a
865.1728516	n/a	221484.25	largeHSmallT	correct	incongruent	0.44629	no	H	T
865.6191406	n/a	221598.5	responseLargeH	correct	n/a	0.44629	no	n/a	n/a
866.6801758	n/a	221870.125	largeTSmallT	correct	congruent	0.40283	no	T	T
867.0830078	n/a	221973.25	responseLargeT	correct	n/a	0.40283	no	n/a	n/a
868.159668	n/a	222248.875	largeTSmallT	correct	congruent	0.45947	no	T	T
868.6191406	n/a	222366.5	responseLargeT	correct	n/a	0.45947	no	n/a	n/a
869.6928711	n/a	222641.375	largeTSmallH	correct	incongruent	0.41455	no	T	H
870.1074219	n/a	222747.5	responseLargeT	correct	n/a	0.41455	no	n/a	n/a
871.1728516	n/a	223020.25	largeTSmallT	correct	congruent	0.42236	no	T	T
871.5952148	n/a	223128.375	responseLargeT	correct	n/a	0.42236	no	n/a	n/a
872.6660156	n/a	223402.5	largeHSmallT	correct	incongruent	0.47021	no	H	T
873.1362305	n/a	223522.875	responseLargeH	correct	n/a	0.47021	no	n/a	n/a
874.2128906	n/a	223798.5	largeHSmallH	correct	congruent	0.48926	no	H	H
874.7021484	n/a	223923.75	responseLargeH	correct	n/a	0.48926	no	n/a	n/a
875.7861328	n/a	224201.25	largeTSmallT	correct	congruent	0.49707	no	T	T
876.2832031	n/a	224328.5	responseLargeT	correct	n/a	0.49707	no	n/a	n/a
877.359375	n/a	224604	largeHSmallH	correct	congruent	0.48047	no	H	H
877.8398438	n/a	224727	responseLargeH	correct	n/a	0.48047	no	n/a	n/a
878.9194336	n/a	225003.375	largeHSmallT	correct	incongruent	0.49316	no	H	T
879.4125977	n/a	225129.625	responseLargeH	correct	n/a	0.49316	no	n/a	n/a
880.4790039	n/a	225402.625	largeTSmallT	correct	congruent	0.44727	no	T	T
880.9262695	n/a	225517.125	responseLargeT	correct	n/a	0.44727	no	n/a	n/a
881.9858398	n/a	225788.375	largeHSmallT	correct	incongruent	0.37207	no	H	T
882.3579102	n/a	225883.625	responseLargeH	correct	n/a	0.37207	no	n/a	n/a
883.4257812	n/a	226157	largeHSmallH	correct	congruent	0.42285	no	H	H
883.8486328	n/a	226265.25	responseLargeH	correct	n/a	0.42285	no	n/a	n/a
884.9194336	n/a	226539.375	largeHSmallT	correct	incongruent	0.36279	no	H	T
885.2822266	n/a	226632.25	responseLargeH	correct	n/a	0.36279	no	n/a	n/a
886.359375	n/a	226908	largeHSmallH	correct	congruent	0.36377	no	H	H
886.7231445	n/a	227001.125	responseLargeH	correct	n/a	0.36377	no	n/a	n/a
887.7993164	n/a	227276.625	largeHSmallH	correct	congruent	0.38477	no	H	H
888.184082	n/a	227375.125	responseLargeH	correct	n/a	0.38477	no	n/a	n/a
889.2529297	n/a	227648.75	largeTSmallH	correct	incongruent	0.56494	no	T	H
889.8178711	n/a	227793.375	responseLargeT	correct	n/a	0.56494	no	n/a	n/a
890.8789062	n/a	228065	largeTSmallT	correct	congruent	0.68945	no	T	T
891.5683594	n/a	228241.5	responseLargeT	correct	n/a	0.68945	no	n/a	n/a
892.6523438	n/a	228519	largeHSmallH	correct	congruent	0.41895	no	H	H
893.0712891	n/a	228626.25	responseLargeH	correct	n/a	0.41895	no	n/a	n/a
894.1455078	n/a	228901.25	largeHSmallT	correct	incongruent	0.38037	no	H	T
894.5258789	n/a	228998.625	responseLargeH	correct	n/a	0.38037	no	n/a	n/a
895.5986328	n/a	229273.25	largeTSmallT	correct	congruent	0.41455	no	T	T
896.0131836	n/a	229379.375	responseLargeT	correct	n/a	0.41455	no	n/a	n/a
897.0922852	n/a	229655.625	largeTSmallH	correct	incongruent	0.44482	no	T	H
897.5371094	n/a	229769.5	responseLargeT	correct	n/a	0.44482	no	n/a	n/a
898.5986328	n/a	230041.25	largeTSmallT	correct	congruent	0.41064	no	T	T
899.0092773	n/a	230146.375	responseLargeT	correct	n/a	0.41064	no	n/a	n/a
900.0922852	n/a	230423.625	largeTSmallH	correct	incongruent	0.43506	no	T	H
900.5273438	n/a	230535	responseLargeT	correct	n/a	0.43506	no	n/a	n/a
901.5986328	n/a	230809.25	largeTSmallH	error	incongruent	0.36426	no	T	H
901.9628906	n/a	230902.5	responseLargeH	error	n/a	0.36426	no	n/a	n/a
903.0385742	n/a	231177.875	largeTSmallT	correct	congruent	0.53271	no	T	T
903.5712891	n/a	231314.25	responseLargeT	correct	n/a	0.53271	no	n/a	n/a
904.6386719	n/a	231587.5	largeTSmallH	correct	incongruent	0.5459	no	T	H
905.1845703	n/a	231727.25	responseLargeT	correct	n/a	0.5459	no	n/a	n/a
906.2519531	n/a	232000.5	largeHSmallT	correct	incongruent	0.42188	no	H	T
906.6738281	n/a	232108.5	responseLargeH	correct	n/a	0.42188	no	n/a	n/a
907.7451172	n/a	232382.75	largeTSmallH	correct	incongruent	0.44678	no	T	H
908.1918945	n/a	232497.125	responseLargeT	correct	n/a	0.44678	no	n/a	n/a
909.2651367	n/a	232771.875	largeHSmallT	correct	incongruent	0.37842	no	H	T
909.6435547	n/a	232868.75	responseLargeH	correct	n/a	0.37842	no	n/a	n/a
910.7050781	n/a	233140.5	largeHSmallT	correct	incongruent	0.42529	no	H	T
911.1303711	n/a	233249.375	responseLargeH	correct	n/a	0.42529	no	n/a	n/a
912.2119141	n/a	233526.25	largeTSmallT	correct	congruent	0.43555	no	T	T
912.6474609	n/a	233637.75	responseLargeT	correct	n/a	0.43555	no	n/a	n/a
913.7182617	n/a	233911.875	largeHSmallT	correct	incongruent	0.45215	no	H	T
914.1704102	n/a	234027.625	responseLargeH	correct	n/a	0.45215	no	n/a	n/a
915.2514648	n/a	234304.375	largeHSmallT	correct	incongruent	0.4165	no	H	T
915.6679688	n/a	234411	responseLargeH	correct	n/a	0.4165	no	n/a	n/a
916.7314453	n/a	234683.25	largeTSmallH	correct	incongruent	0.55469	no	T	H
917.2861328	n/a	234825.25	responseLargeT	correct	n/a	0.55469	no	n/a	n/a
918.3583984	n/a	235099.75	largeTSmallH	correct	incongruent	0.55176	no	T	H
918.9101562	n/a	235241	responseLargeT	correct	n/a	0.55176	no	n/a	n/a
919.9716797	n/a	235512.75	largeTSmallT	correct	congruent	0.44922	no	T	T
920.4208984	n/a	235627.75	responseLargeT	correct	n/a	0.44922	no	n/a	n/a
921.4916992	n/a	235901.875	largeTSmallH	correct	incongruent	0.49561	no	T	H
921.9873047	n/a	236028.75	responseLargeT	correct	n/a	0.49561	no	n/a	n/a
923.0649414	n/a	236304.625	largeTSmallT	correct	congruent	0.56738	no	T	T
923.6323242	n/a	236449.875	responseLargeT	correct	n/a	0.56738	no	n/a	n/a
924.7045898	n/a	236724.375	largeHSmallH	correct	congruent	0.46143	no	H	H
925.1660156	n/a	236842.5	responseLargeH	correct	n/a	0.46143	no	n/a	n/a
926.237793	n/a	237116.875	largeTSmallT	correct	congruent	0.43555	no	T	T
926.6733398	n/a	237228.375	responseLargeT	correct	n/a	0.43555	no	n/a	n/a
927.7446289	n/a	237502.625	largeHSmallH	correct	congruent	0.63184	no	H	H
928.3764648	n/a	237664.375	responseLargeH	correct	n/a	0.63184	no	n/a	n/a
929.4511719	n/a	237939.5	largeHSmallH	correct	congruent	0.50879	no	H	H
929.9599609	n/a	238069.75	responseLargeH	correct	n/a	0.50879	no	n/a	n/a
931.0380859	n/a	238345.75	largeTSmallH	correct	incongruent	0.55225	no	T	H
931.590332	n/a	238487.125	responseLargeT	correct	n/a	0.55225	no	n/a	n/a
932.6645508	n/a	238762.125	largeHSmallH	correct	congruent	0.38379	no	H	H
933.0483398	n/a	238860.375	responseLargeH	correct	n/a	0.38379	no	n/a	n/a
934.1313477	n/a	239137.625	largeTSmallT	correct	congruent	0.44629	no	T	T
934.5776367	n/a	239251.875	responseLargeT	correct	n/a	0.44629	no	n/a	n/a
935.6513672	n/a	239526.75	largeTSmallH	correct	incongruent	0.45459	no	T	H
936.105957	n/a	239643.125	responseLargeT	correct	n/a	0.45459	no	n/a	n/a
937.1845703	n/a	239919.25	largeTSmallT	correct	congruent	0.52393	no	T	T
937.7084961	n/a	240053.375	responseLargeT	correct	n/a	0.52393	no	n/a	n/a
938.7709961	n/a	240325.375	largeHSmallH	correct	congruent	0.41748	no	H	H
939.1884766	n/a	240432.25	responseLargeH	correct	n/a	0.41748	no	n/a	n/a
940.2509766	n/a	240704.25	largeTSmallT	correct	congruent	0.45166	no	T	T
940.7026367	n/a	240819.875	responseLargeT	correct	n/a	0.45166	no	n/a	n/a
941.7709961	n/a	241093.375	largeHSmallT	correct	incongruent	0.39648	no	H	T
942.1674805	n/a	241194.875	responseLargeH	correct	n/a	0.39648	no	n/a	n/a
943.237793	n/a	241468.875	largeTSmallT	correct	congruent	0.54395	no	T	T
943.7817383	n/a	241608.125	responseLargeT	correct	n/a	0.54395	no	n/a	n/a
944.8642578	n/a	241885.25	largeHSmallT	correct	incongruent	0.43311	no	H	T
945.2973633	n/a	241996.125	responseLargeH	correct	n/a	0.43311	no	n/a	n/a
946.3710938	n/a	242271	largeTSmallH	correct	incongruent	0.59277	no	T	H
946.9638672	n/a	242422.75	responseLargeT	correct	n/a	0.59277	no	n/a	n/a
948.0375977	n/a	242697.625	largeTSmallH	error	incongruent	0.37891	no	T	H
948.4165039	n/a	242794.625	responseLargeH	error	n/a	0.37891	no	n/a	n/a
949.4907227	n/a	243069.625	largeTSmallH	correct	incongruent	0.75049	no	T	H
950.2412109	n/a	243261.75	responseLargeT	correct	n/a	0.75049	no	n/a	n/a
951.3173828	n/a	243537.25	largeHSmallH	correct	congruent	0.41846	no	H	H
951.7358398	n/a	243644.375	responseLargeH	correct	n/a	0.41846	no	n/a	n/a
952.8105469	n/a	243919.5	largeHSmallT	correct	incongruent	0.4375	no	H	T
953.2480469	n/a	244031.5	responseLargeH	correct	n/a	0.4375	no	n/a	n/a
966.996582	n/a	247551.125	largeTSmallT	correct	congruent	0.55518	no	T	T
967.5517578	n/a	247693.25	responseSmallT	correct	n/a	0.55518	no	n/a	n/a
968.6103516	n/a	247964.25	largeHSmallH	correct	congruent	0.4209	no	H	H
969.03125	n/a	248072	responseSmallH	correct	n/a	0.4209	no	n/a	n/a
970.1035156	n/a	248346.5	largeTSmallH	correct	incongruent	0.41943	no	T	H
970.5229492	n/a	248453.875	responseSmallH	correct	n/a	0.41943	no	n/a	n/a
971.5966797	n/a	248728.75	largeTSmallH	correct	incongruent	0.43555	no	T	H
972.0322266	n/a	248840.25	responseSmallH	correct	n/a	0.43555	no	n/a	n/a
973.1035156	n/a	249114.5	largeTSmallT	correct	congruent	0.38818	no	T	T
973.4916992	n/a	249213.875	responseSmallT	correct	n/a	0.38818	no	n/a	n/a
974.5566406	n/a	249486.5	largeTSmallH	correct	incongruent	0.40039	no	T	H
974.9570312	n/a	249589	responseSmallH	correct	n/a	0.40039	no	n/a	n/a
976.0234375	n/a	249862	largeHSmallT	correct	incongruent	0.37939	no	H	T
976.402832	n/a	249959.125	responseSmallT	correct	n/a	0.37939	no	n/a	n/a
977.4765625	n/a	250234	largeTSmallH	correct	incongruent	0.3833	no	T	H
977.8598633	n/a	250332.125	responseSmallH	correct	n/a	0.3833	no	n/a	n/a
978.9301758	n/a	250606.125	largeTSmallH	correct	incongruent	0.87256	no	T	H
979.8027344	n/a	250829.5	responseSmallH	correct	n/a	0.87256	no	n/a	n/a
980.8769531	n/a	251104.5	largeTSmallH	correct	incongruent	0.43213	no	T	H
981.309082	n/a	251215.125	responseSmallH	correct	n/a	0.43213	no	n/a	n/a
982.3701172	n/a	251486.75	largeTSmallH	correct	incongruent	0.40869	no	T	H
982.7788086	n/a	251591.375	responseSmallH	correct	n/a	0.40869	no	n/a	n/a
983.8632812	n/a	251869	largeHSmallT	correct	incongruent	0.42578	no	H	T
984.2890625	n/a	251978	responseSmallT	correct	n/a	0.42578	no	n/a	n/a
985.3564453	n/a	252251.25	largeTSmallH	correct	incongruent	0.3916	no	T	H
985.7480469	n/a	252351.5	responseSmallH	correct	n/a	0.3916	no	n/a	n/a
986.8232422	n/a	252626.75	largeHSmallT	correct	incongruent	0.46484	no	H	T
987.2880859	n/a	252745.75	responseSmallT	correct	n/a	0.46484	no	n/a	n/a
988.3564453	n/a	253019.25	largeTSmallH	correct	incongruent	0.45166	no	T	H
988.8081055	n/a	253134.875	responseSmallH	correct	n/a	0.45166	no	n/a	n/a
989.8764648	n/a	253408.375	largeTSmallH	correct	incongruent	0.43848	no	T	H
990.3149414	n/a	253520.625	responseSmallH	correct	n/a	0.43848	no	n/a	n/a
991.3964844	n/a	253797.5	largeHSmallH	correct	congruent	0.4082	no	H	H
991.8046875	n/a	253902	responseSmallH	correct	n/a	0.4082	no	n/a	n/a
992.8764648	n/a	254176.375	largeHSmallT	correct	incongruent	0.41309	no	H	T
993.2895508	n/a	254282.125	responseSmallT	correct	n/a	0.41309	no	n/a	n/a
994.3564453	n/a	254555.25	largeHSmallT	correct	incongruent	0.3999	no	H	T
994.7563477	n/a	254657.625	responseSmallT	correct	n/a	0.3999	no	n/a	n/a
995.8227539	n/a	254930.625	largeHSmallH	correct	congruent	0.43311	no	H	H
996.2558594	n/a	255041.5	responseSmallH	correct	n/a	0.43311	no	n/a	n/a
997.315918	n/a	255312.875	largeTSmallT	correct	congruent	0.38281	no	T	T
997.6987305	n/a	255410.875	responseSmallT	correct	n/a	0.38281	no	n/a	n/a
998.7695312	n/a	255685	largeHSmallT	correct	incongruent	0.45801	no	H	T
999.2275391	n/a	255802.25	responseSmallT	correct	n/a	0.45801	no	n/a	n/a
1000.302734	n/a	256077.5	largeTSmallT	correct	congruent	0.45996	no	T	T
1000.762695	n/a	256195.25	responseSmallT	correct	n/a	0.45996	no	n/a	n/a
1001.835938	n/a	256470	largeHSmallT	correct	incongruent	0.38574	no	H	T
1002.22168	n/a	256568.75	responseSmallT	correct	n/a	0.38574	no	n/a	n/a
1003.289062	n/a	256842	largeHSmallH	correct	congruent	0.47607	no	H	H
1003.765137	n/a	256963.875	responseSmallH	correct	n/a	0.47607	no	n/a	n/a
1004.835938	n/a	257238	largeTSmallT	correct	congruent	0.50732	no	T	T
1005.343262	n/a	257367.875	responseSmallT	correct	n/a	0.50732	no	n/a	n/a
1006.422852	n/a	257644.25	largeHSmallT	correct	incongruent	0.4082	no	H	T
1006.831055	n/a	257748.75	responseSmallT	correct	n/a	0.4082	no	n/a	n/a
1007.902832	n/a	258023.125	largeHSmallH	correct	congruent	0.45068	no	H	H
1008.353516	n/a	258138.5	responseSmallH	correct	n/a	0.45068	no	n/a	n/a
1009.422363	n/a	258412.125	largeTSmallH	correct	incongruent	0.46875	no	T	H
1009.891113	n/a	258532.125	responseSmallH	correct	n/a	0.46875	no	n/a	n/a
1010.955566	n/a	258804.625	largeHSmallH	correct	congruent	0.61279	no	H	H
1011.568359	n/a	258961.5	responseSmallH	correct	n/a	0.61279	no	n/a	n/a
1012.635742	n/a	259234.75	largeTSmallT	correct	congruent	0.47168	no	T	T
1013.107422	n/a	259355.5	responseSmallT	correct	n/a	0.47168	no	n/a	n/a
1014.182617	n/a	259630.75	largeHSmallH	correct	congruent	0.4043	no	H	H
1014.586914	n/a	259734.25	responseSmallH	correct	n/a	0.4043	no	n/a	n/a
1015.648926	n/a	260006.125	largeHSmallH	correct	congruent	0.37891	no	H	H
1016.027832	n/a	260103.125	responseSmallH	correct	n/a	0.37891	no	n/a	n/a
1017.102051	n/a	260378.125	largeHSmallH	correct	congruent	0.42773	no	H	H
1017.529785	n/a	260487.625	responseSmallH	correct	n/a	0.42773	no	n/a	n/a
1018.595703	n/a	260760.5	largeTSmallH	correct	incongruent	0.40332	no	T	H
1018.999023	n/a	260863.75	responseSmallH	correct	n/a	0.40332	no	n/a	n/a
1020.0625	n/a	261136	largeTSmallT	correct	congruent	0.50586	no	T	T
1020.568359	n/a	261265.5	responseSmallT	correct	n/a	0.50586	no	n/a	n/a
1021.635742	n/a	261538.75	largeTSmallT	correct	congruent	0.44189	no	T	T
1022.077637	n/a	261651.875	responseSmallT	correct	n/a	0.44189	no	n/a	n/a
1023.155762	n/a	261927.875	largeTSmallH	correct	incongruent	0.46484	no	T	H
1023.620605	n/a	262046.875	responseSmallH	correct	n/a	0.46484	no	n/a	n/a
1024.702148	n/a	262323.75	largeHSmallH	correct	congruent	0.45947	no	H	H
1025.161621	n/a	262441.375	responseSmallH	correct	n/a	0.45947	no	n/a	n/a
1026.235352	n/a	262716.25	largeHSmallH	correct	congruent	0.39648	no	H	H
1026.631836	n/a	262817.75	responseSmallH	correct	n/a	0.39648	no	n/a	n/a
1027.702637	n/a	263091.875	largeTSmallT	correct	congruent	0.50244	no	T	T
1028.205078	n/a	263220.5	responseSmallT	correct	n/a	0.50244	no	n/a	n/a
1029.275391	n/a	263494.5	largeHSmallT	error	incongruent	0.40674	no	H	T
1029.682129	n/a	263598.625	responseSmallH	error	n/a	0.40674	no	n/a	n/a
1030.755371	n/a	263873.375	largeTSmallT	correct	congruent	0.40088	no	T	T
1031.15625	n/a	263976	responseSmallT	correct	n/a	0.40088	no	n/a	n/a
1032.235352	n/a	264252.25	largeHSmallH	correct	congruent	0.42871	no	H	H
1032.664062	n/a	264362	responseSmallH	correct	n/a	0.42871	no	n/a	n/a
1033.728516	n/a	264634.5	largeTSmallT	correct	congruent	0.46094	no	T	T
1034.189453	n/a	264752.5	responseSmallT	correct	n/a	0.46094	no	n/a	n/a
1035.261719	n/a	265027	largeHSmallH	correct	congruent	0.3877	no	H	H
1035.649414	n/a	265126.25	responseSmallH	correct	n/a	0.3877	no	n/a	n/a
1036.728516	n/a	265402.5	largeTSmallH	correct	incongruent	0.45166	no	T	H
1037.180176	n/a	265518.125	responseSmallH	correct	n/a	0.45166	no	n/a	n/a
1038.261719	n/a	265795	largeHSmallT	correct	incongruent	0.43359	no	H	T
1038.695312	n/a	265906	responseSmallT	correct	n/a	0.43359	no	n/a	n/a
1039.768555	n/a	266180.75	largeHSmallH	correct	congruent	0.48291	no	H	H
1040.251465	n/a	266304.375	responseSmallH	correct	n/a	0.48291	no	n/a	n/a
1041.328613	n/a	266580.125	largeTSmallT	correct	congruent	0.43799	no	T	T
1041.766602	n/a	266692.25	responseSmallT	correct	n/a	0.43799	no	n/a	n/a
1042.848633	n/a	266969.25	largeHSmallH	correct	congruent	0.45068	no	H	H
1043.299316	n/a	267084.625	responseSmallH	correct	n/a	0.45068	no	n/a	n/a
1044.368164	n/a	267358.25	largeHSmallH	correct	congruent	0.45117	no	H	H
1044.819336	n/a	267473.75	responseSmallH	correct	n/a	0.45117	no	n/a	n/a
1045.888184	n/a	267747.375	largeHSmallH	error	congruent	0.37646	no	H	H
1046.264648	n/a	267843.75	responseSmallT	error	n/a	0.37646	no	n/a	n/a
1047.328125	n/a	268116	largeHSmallH	correct	congruent	0.41113	no	H	H
1047.739258	n/a	268221.25	responseSmallH	correct	n/a	0.41113	no	n/a	n/a
1048.821777	n/a	268498.375	largeTSmallT	correct	congruent	0.56201	no	T	T
1049.383789	n/a	268642.25	responseSmallT	correct	n/a	0.56201	no	n/a	n/a
1050.448242	n/a	268914.75	largeHSmallH	correct	congruent	0.39941	no	H	H
1050.847656	n/a	269017	responseSmallH	correct	n/a	0.39941	no	n/a	n/a
1051.914551	n/a	269290.125	largeHSmallT	correct	incongruent	0.44824	no	H	T
1052.362793	n/a	269404.875	responseSmallT	correct	n/a	0.44824	no	n/a	n/a
1053.43457	n/a	269679.25	largeTSmallT	correct	congruent	0.47168	no	T	T
1053.90625	n/a	269800	responseSmallT	correct	n/a	0.47168	no	n/a	n/a
1054.981445	n/a	270075.25	largeTSmallT	correct	congruent	0.89648	no	T	T
1055.87793	n/a	270304.75	responseSmallT	correct	n/a	0.89648	no	n/a	n/a
1056.941406	n/a	270577	largeTSmallT	correct	congruent	0.62744	no	T	T
1057.568848	n/a	270737.625	responseSmallT	correct	n/a	0.62744	no	n/a	n/a
1058.647949	n/a	271013.875	largeHSmallH	correct	congruent	0.55713	no	H	H
1059.205078	n/a	271156.5	responseSmallH	correct	n/a	0.55713	no	n/a	n/a
1060.288086	n/a	271433.75	largeHSmallH	correct	congruent	0.41357	no	H	H
1060.70166	n/a	271539.625	responseSmallH	correct	n/a	0.41357	no	n/a	n/a
1061.78125	n/a	271816	largeHSmallH	correct	congruent	0.40381	no	H	H
1062.185059	n/a	271919.375	responseSmallH	correct	n/a	0.40381	no	n/a	n/a
1063.26123	n/a	272194.875	largeHSmallT	correct	incongruent	0.46484	no	H	T
1063.726074	n/a	272313.875	responseSmallT	correct	n/a	0.46484	no	n/a	n/a
1064.794434	n/a	272587.375	largeHSmallH	correct	congruent	0.4043	no	H	H
1065.19873	n/a	272690.875	responseSmallH	correct	n/a	0.4043	no	n/a	n/a
1066.274414	n/a	272966.25	largeHSmallH	correct	congruent	0.48535	no	H	H
1066.759766	n/a	273090.5	responseSmallH	correct	n/a	0.48535	no	n/a	n/a
1067.834473	n/a	273365.625	largeTSmallT	correct	congruent	0.40479	no	T	T
1068.239258	n/a	273469.25	responseSmallT	correct	n/a	0.40479	no	n/a	n/a
1069.314453	n/a	273744.5	largeTSmallT	correct	congruent	0.45264	no	T	T
1069.76709	n/a	273860.375	responseSmallT	correct	n/a	0.45264	no	n/a	n/a
1070.847656	n/a	274137	largeTSmallH	correct	incongruent	0.42139	no	T	H
1071.269043	n/a	274244.875	responseSmallH	correct	n/a	0.42139	no	n/a	n/a
1072.34082	n/a	274519.25	largeTSmallT	correct	congruent	0.43262	no	T	T
1072.773438	n/a	274630	responseSmallT	correct	n/a	0.43262	no	n/a	n/a
1073.834473	n/a	274901.625	largeTSmallH	correct	incongruent	0.57275	no	T	H
1074.407227	n/a	275048.25	responseSmallH	correct	n/a	0.57275	no	n/a	n/a
1075.474121	n/a	275321.375	largeTSmallH	correct	incongruent	0.41895	no	T	H
1075.893066	n/a	275428.625	responseSmallH	correct	n/a	0.41895	no	n/a	n/a
1076.954102	n/a	275700.25	largeHSmallH	correct	congruent	0.48047	no	H	H
1077.43457	n/a	275823.25	responseSmallH	correct	n/a	0.48047	no	n/a	n/a
1078.500488	n/a	276096.125	largeTSmallT	correct	congruent	0.49854	no	T	T
1078.999023	n/a	276223.75	responseSmallT	correct	n/a	0.49854	no	n/a	n/a
1080.060547	n/a	276495.5	largeTSmallT	correct	congruent	0.46631	no	T	T
1080.526855	n/a	276614.875	responseSmallT	correct	n/a	0.46631	no	n/a	n/a
1081.594238	n/a	276888.125	largeTSmallH	correct	incongruent	0.42578	no	T	H
1082.02002	n/a	276997.125	responseSmallH	correct	n/a	0.42578	no	n/a	n/a
1083.087402	n/a	277270.375	largeHSmallH	correct	congruent	0.43555	no	H	H
1083.522949	n/a	277381.875	responseSmallH	correct	n/a	0.43555	no	n/a	n/a
1084.580566	n/a	277652.625	largeTSmallT	correct	congruent	0.41455	no	T	T
1084.995117	n/a	277758.75	responseSmallT	correct	n/a	0.41455	no	n/a	n/a
1086.07373	n/a	278034.875	largeTSmallT	correct	congruent	0.54639	no	T	T
1086.620117	n/a	278174.75	responseSmallT	correct	n/a	0.54639	no	n/a	n/a
1087.687012	n/a	278447.875	largeTSmallT	correct	congruent	0.4668	no	T	T
1088.153809	n/a	278567.375	responseSmallT	correct	n/a	0.4668	no	n/a	n/a
1089.220703	n/a	278840.5	largeHSmallT	correct	incongruent	0.57178	no	H	T
1089.79248	n/a	278986.875	responseSmallT	correct	n/a	0.57178	no	n/a	n/a
1090.860352	n/a	279260.25	largeHSmallT	correct	incongruent	0.54492	no	H	T
1091.405273	n/a	279399.75	responseSmallT	correct	n/a	0.54492	no	n/a	n/a
1092.487305	n/a	279676.75	largeTSmallH	correct	incongruent	0.48145	no	T	H
1092.96875	n/a	279800	responseSmallH	correct	n/a	0.48145	no	n/a	n/a
1094.046875	n/a	280076	largeHSmallH	correct	congruent	0.41455	no	H	H
1094.461426	n/a	280182.125	responseSmallH	correct	n/a	0.41455	no	n/a	n/a
1095.540527	n/a	280458.375	largeTSmallT	correct	congruent	0.43994	no	T	T
1095.980469	n/a	280571	responseSmallT	correct	n/a	0.43994	no	n/a	n/a
1097.047363	n/a	280844.125	largeTSmallH	correct	incongruent	0.3584	no	T	H
1097.405762	n/a	280935.875	responseSmallH	correct	n/a	0.3584	no	n/a	n/a
1098.584473	n/a	281237.625	largeTSmallT	correct	congruent	0.40625	no	T	T
1098.990723	n/a	281341.625	responseSmallT	correct	n/a	0.40625	no	n/a	n/a
1100.060059	n/a	281615.375	largeTSmallH	correct	incongruent	0.43457	no	T	H
1100.494629	n/a	281726.625	responseSmallH	correct	n/a	0.43457	no	n/a	n/a
1101.566895	n/a	282001.125	largeHSmallT	correct	incongruent	0.51855	no	H	T
1102.085449	n/a	282133.875	responseSmallT	correct	n/a	0.51855	no	n/a	n/a
1103.15332	n/a	282407.25	largeTSmallH	correct	incongruent	0.39355	no	T	H
1103.546875	n/a	282508	responseSmallH	correct	n/a	0.39355	no	n/a	n/a
1104.620117	n/a	282782.75	largeTSmallH	correct	incongruent	0.38916	no	T	H
1105.009277	n/a	282882.375	responseSmallH	correct	n/a	0.38916	no	n/a	n/a
1106.086914	n/a	283158.25	largeHSmallT	correct	incongruent	0.3999	no	H	T
1106.486816	n/a	283260.625	responseSmallT	correct	n/a	0.3999	no	n/a	n/a
1107.553223	n/a	283533.625	largeTSmallT	correct	congruent	0.55371	no	T	T
1108.106934	n/a	283675.375	responseSmallT	correct	n/a	0.55371	no	n/a	n/a
1109.166504	n/a	283946.625	largeHSmallT	correct	incongruent	0.40332	no	H	T
1109.569824	n/a	284049.875	responseSmallT	correct	n/a	0.40332	no	n/a	n/a
1110.633301	n/a	284322.125	largeHSmallH	correct	congruent	0.37012	no	H	H
1111.003418	n/a	284416.875	responseSmallH	correct	n/a	0.37012	no	n/a	n/a
