onset	duration	sample	value	stimulus	response_type	response_time
16.09765625	n/a	4121	A	nontarget	n/a	n/a
17.66015625	n/a	4521	A	nontarget	n/a	n/a
19.21875	n/a	4920	B	nontarget	n/a	n/a
20.79296875	n/a	5323	D	nontarget	n/a	n/a
22.3671875	n/a	5726	B	nontarget	n/a	n/a
23.94140625	n/a	6129	A	nontarget	n/a	n/a
25.51171875	n/a	6531	D	target	hit	1363.2812
26.875	n/a	6880	rt	n/a	hit	1363.2812
27.0859375	n/a	6934	B	target	hit	671.875
27.7578125	n/a	7106	rt	n/a	hit	671.875
28.671875	n/a	7340	A	target	hit	636.7188
29.30859375	n/a	7503	rt	n/a	hit	636.7188
30.24609375	n/a	7743	B	nontarget	n/a	n/a
31.8203125	n/a	8146	A	nontarget	n/a	n/a
33.39453125	n/a	8549	B	nontarget	n/a	n/a
34.96484375	n/a	8951	D	nontarget	n/a	n/a
36.5390625	n/a	9354	D	nontarget	n/a	n/a
38.125	n/a	9760	B	target	hit	593.75
38.71875	n/a	9912	rt	n/a	hit	593.75
39.703125	n/a	10164	B	nontarget	n/a	n/a
41.2734375	n/a	10566	C	nontarget	n/a	n/a
42.84765625	n/a	10969	C	nontarget	n/a	n/a
44.41796875	n/a	11371	B	target	hit	558.5938
44.9765625	n/a	11514	rt	n/a	hit	558.5938
46.00390625	n/a	11777	B	nontarget	n/a	n/a
47.578125	n/a	12180	C	target	miss	n/a
49.15234375	n/a	12583	D	nontarget	miss	n/a
50.7265625	n/a	12986	C	nontarget	n/a	n/a
52.30078125	n/a	13389	B	nontarget	n/a	n/a
53.87109375	n/a	13791	D	target	hit	804.6875
54.67578125	n/a	13997	rt	n/a	hit	804.6875
55.44921875	n/a	14195	C	target	hit	566.4062
56.015625	n/a	14340	rt	n/a	hit	566.4062
57.03125	n/a	14600	D	nontarget	n/a	n/a
58.609375	n/a	15004	A	nontarget	n/a	n/a
60.1796875	n/a	15406	B	nontarget	n/a	n/a
61.75	n/a	15808	B	nontarget	n/a	n/a
63.328125	n/a	16212	D	nontarget	n/a	n/a
64.8984375	n/a	16614	D	nontarget	n/a	n/a
66.484375	n/a	17020	C	nontarget	n/a	n/a
68.0625	n/a	17424	C	nontarget	n/a	n/a
69.6328125	n/a	17826	A	nontarget	n/a	n/a
71.20703125	n/a	18229	A	nontarget	n/a	n/a
72.78125	n/a	18632	B	nontarget	n/a	n/a
74.3515625	n/a	19034	B	nontarget	n/a	n/a
75.91015625	n/a	19433	B	nontarget	n/a	n/a
77.47265625	n/a	19833	B	target	hit	566.4062
78.0390625	n/a	19978	rt	n/a	hit	566.4062
79.05859375	n/a	20239	D	nontarget	n/a	n/a
80.6328125	n/a	20642	A	nontarget	n/a	n/a
82.203125	n/a	21044	D	nontarget	n/a	n/a
83.78125	n/a	21448	B	nontarget	n/a	n/a
85.3515625	n/a	21850	D	nontarget	n/a	n/a
86.9140625	n/a	22250	B	nontarget	n/a	n/a
88.484375	n/a	22652	C	nontarget	n/a	n/a
90.0625	n/a	23056	B	nontarget	n/a	n/a
91.62890625	n/a	23457	C	nontarget	n/a	n/a
93.203125	n/a	23860	C	target	hit	707.0312
93.91015625	n/a	24041	rt	n/a	hit	707.0312
94.77734375	n/a	24263	D	nontarget	n/a	n/a
96.3515625	n/a	24666	B	nontarget	n/a	n/a
97.92578125	n/a	25069	B	nontarget	n/a	n/a
99.484375	n/a	25468	B	nontarget	n/a	n/a
101.0585938	n/a	25871	B	target	hit	601.5625
101.6601562	n/a	26025	rt	n/a	hit	601.5625
102.6289062	n/a	26273	D	nontarget	n/a	n/a
104.2070312	n/a	26677	B	target	miss	n/a
105.7773438	n/a	27079	C	nontarget	miss	n/a
107.3515625	n/a	27482	D	target	hit	582.0312
107.9335938	n/a	27631	rt	n/a	hit	582.0312
108.9257812	n/a	27885	C	nontarget	n/a	n/a
110.5117188	n/a	28291	C	target	hit	796.875
111.3085938	n/a	28495	rt	n/a	hit	796.875
112.0859375	n/a	28694	C	nontarget	n/a	n/a
113.6601562	n/a	29097	C	target	miss	n/a
115.2304688	n/a	29499	A	nontarget	miss	n/a
116.8085938	n/a	29903	D	nontarget	n/a	n/a
118.3789062	n/a	30305	A	nontarget	n/a	n/a
119.9648438	n/a	30711	A	target	hit	660.1562
120.625	n/a	30880	rt	n/a	hit	660.1562
121.5390625	n/a	31114	C	nontarget	n/a	n/a
123.109375	n/a	31516	A	target	hit	1207.0312
124.3164062	n/a	31825	rt	n/a	hit	1207.0312
124.6835938	n/a	31919	A	target	hit	625
125.3085938	n/a	32079	rt	n/a	hit	625
126.2578125	n/a	32322	C	target	hit	550.7812
126.8085938	n/a	32463	rt	n/a	hit	550.7812
127.84375	n/a	32728	A	target	hit	492.1875
128.3359375	n/a	32854	rt	n/a	hit	492.1875
129.40625	n/a	33128	A	target	hit	601.5625
130.0078125	n/a	33282	rt	n/a	hit	601.5625
130.9804688	n/a	33531	C	target	hit	648.4375
131.6289062	n/a	33697	rt	n/a	hit	648.4375
132.5507812	n/a	33933	B	nontarget	n/a	n/a
134.125	n/a	34336	B	nontarget	n/a	n/a
135.6992188	n/a	34739	A	nontarget	n/a	n/a
137.2695312	n/a	35141	A	nontarget	n/a	n/a
138.8476562	n/a	35545	D	nontarget	n/a	n/a
140.4296875	n/a	35950	D	nontarget	n/a	n/a
142.0078125	n/a	36354	D	nontarget	n/a	n/a
143.578125	n/a	36756	C	nontarget	false_alarm	996.0938
144.5742188	n/a	37011	rt	n/a	false_alarm	996.0938
145.1484375	n/a	37158	D	target	hit	613.2812
145.7617188	n/a	37315	rt	n/a	hit	613.2812
146.7226562	n/a	37561	C	nontarget	n/a	n/a
148.3085938	n/a	37967	B	nontarget	n/a	n/a
149.8828125	n/a	38370	D	target	hit	550.7812
150.4335938	n/a	38511	rt	n/a	hit	550.7812
151.4570312	n/a	38773	B	nontarget	n/a	n/a
153.03125	n/a	39176	C	nontarget	n/a	n/a
154.6054688	n/a	39579	B	nontarget	n/a	n/a
156.1796875	n/a	39982	B	target	hit	742.1875
156.921875	n/a	40172	rt	n/a	hit	742.1875
157.75	n/a	40384	D	nontarget	n/a	n/a
159.3125	n/a	40784	C	nontarget	n/a	n/a
160.8671875	n/a	41182	C	nontarget	n/a	n/a
162.4453125	n/a	41586	C	nontarget	n/a	n/a
164.0195312	n/a	41989	C	target	hit	601.5625
164.6210938	n/a	42143	rt	n/a	hit	601.5625
165.5898438	n/a	42391	D	nontarget	n/a	n/a
167.1640625	n/a	42794	B	nontarget	n/a	n/a
168.7382812	n/a	43197	A	nontarget	n/a	n/a
170.3085938	n/a	43599	B	nontarget	n/a	n/a
171.8945312	n/a	44005	D	nontarget	n/a	n/a
173.4726562	n/a	44409	C	nontarget	n/a	n/a
175.0429688	n/a	44811	D	nontarget	n/a	n/a
176.6171875	n/a	45214	A	nontarget	n/a	n/a
178.1875	n/a	45616	B	nontarget	n/a	n/a
179.765625	n/a	46020	B	nontarget	n/a	n/a
181.3476562	n/a	46425	A	target	hit	488.2812
181.8359375	n/a	46550	rt	n/a	hit	488.2812
182.921875	n/a	46828	B	target	hit	601.5625
183.5234375	n/a	46982	rt	n/a	hit	601.5625
184.4960938	n/a	47231	A	nontarget	n/a	n/a
186.0664062	n/a	47633	C	nontarget	n/a	n/a
187.640625	n/a	48036	B	target	hit	765.625
188.40625	n/a	48232	rt	n/a	hit	765.625
189.2148438	n/a	48439	B	nontarget	n/a	n/a
190.7773438	n/a	48839	B	nontarget	n/a	n/a
192.3632812	n/a	49245	D	nontarget	n/a	n/a
193.9375	n/a	49648	B	target	hit	679.6875
194.6171875	n/a	49822	rt	n/a	hit	679.6875
195.5078125	n/a	50050	A	nontarget	n/a	n/a
197.0820312	n/a	50453	C	nontarget	n/a	n/a
198.65625	n/a	50856	A	nontarget	n/a	n/a
200.2421875	n/a	51262	C	nontarget	n/a	n/a
201.8164062	n/a	51665	D	nontarget	n/a	n/a
203.3867188	n/a	52067	D	nontarget	n/a	n/a
204.9648438	n/a	52471	C	target	hit	585.9375
205.5507812	n/a	52621	rt	n/a	hit	585.9375
206.5390625	n/a	52874	B	nontarget	n/a	n/a
208.109375	n/a	53276	D	target	hit	949.2188
209.0585938	n/a	53519	rt	n/a	hit	949.2188
209.671875	n/a	53676	C	target	hit	660.1562
210.3320312	n/a	53845	rt	n/a	hit	660.1562
211.2578125	n/a	54082	D	nontarget	n/a	n/a
212.828125	n/a	54484	A	nontarget	n/a	n/a
214.4023438	n/a	54887	B	nontarget	n/a	n/a
215.9765625	n/a	55290	A	nontarget	n/a	n/a
217.546875	n/a	55692	A	target	hit	1171.875
218.71875	n/a	55992	rt	n/a	hit	1171.875
219.1210938	n/a	56095	D	nontarget	n/a	n/a
220.7070312	n/a	56501	B	nontarget	n/a	n/a
222.28125	n/a	56904	A	target	hit	460.9375
222.7421875	n/a	57022	rt	n/a	hit	460.9375
223.8554688	n/a	57307	D	target	hit	722.6562
224.578125	n/a	57492	rt	n/a	hit	722.6562
225.4257812	n/a	57709	A	nontarget	n/a	n/a
227.0039062	n/a	58113	B	nontarget	n/a	n/a
228.5859375	n/a	58518	B	nontarget	n/a	n/a
230.1640625	n/a	58922	C	nontarget	n/a	n/a
231.734375	n/a	59324	D	nontarget	n/a	n/a
233.3085938	n/a	59727	A	nontarget	n/a	n/a
234.8828125	n/a	60130	A	nontarget	n/a	n/a
236.4570312	n/a	60533	D	target	hit	558.5938
237.015625	n/a	60676	rt	n/a	hit	558.5938
238.0390625	n/a	60938	B	nontarget	n/a	n/a
239.6171875	n/a	61342	B	nontarget	n/a	n/a
241.1875	n/a	61744	A	nontarget	false_alarm	570.3125
241.7578125	n/a	61890	rt	n/a	false_alarm	570.3125
242.7617188	n/a	62147	A	nontarget	n/a	n/a
244.3359375	n/a	62550	B	target	hit	699.2188
245.0351562	n/a	62729	rt	n/a	hit	699.2188
245.90625	n/a	62952	C	nontarget	n/a	n/a
247.4921875	n/a	63358	B	nontarget	n/a	n/a
249.0703125	n/a	63762	A	nontarget	n/a	n/a
250.640625	n/a	64164	B	nontarget	n/a	n/a
252.2148438	n/a	64567	A	nontarget	n/a	n/a
253.7851562	n/a	64969	B	nontarget	n/a	n/a
255.3632812	n/a	65373	B	target	miss	n/a
256.9453125	n/a	65778	D	nontarget	miss	n/a
258.5195312	n/a	66181	B	target	hit	484.375
259.0039062	n/a	66305	rt	n/a	hit	484.375
260.0976562	n/a	66585	D	nontarget	n/a	n/a
261.6679688	n/a	66987	D	target	miss	n/a
263.2382812	n/a	67389	A	nontarget	miss	n/a
264.8125	n/a	67792	D	target	hit	640.625
265.453125	n/a	67956	rt	n/a	hit	640.625
266.3789062	n/a	68193	D	target	miss	n/a
267.9609375	n/a	68598	C	nontarget	miss	n/a
269.5351562	n/a	69001	C	nontarget	n/a	n/a
271.1054688	n/a	69403	D	target	hit	726.5625
271.8320312	n/a	69589	rt	n/a	hit	726.5625
272.6796875	n/a	69806	D	nontarget	n/a	n/a
274.2539062	n/a	70209	D	nontarget	n/a	n/a
275.8398438	n/a	70615	D	target	hit	636.7188
276.4765625	n/a	70778	rt	n/a	hit	636.7188
277.4140625	n/a	71018	A	nontarget	n/a	n/a
278.984375	n/a	71420	A	nontarget	n/a	n/a
280.5625	n/a	71824	B	nontarget	n/a	n/a
282.1367188	n/a	72227	D	nontarget	n/a	n/a
283.7070312	n/a	72629	C	nontarget	n/a	n/a
285.28125	n/a	73032	B	target	hit	671.875
285.953125	n/a	73204	rt	n/a	hit	671.875
286.8671875	n/a	73438	B	nontarget	n/a	n/a
288.4414062	n/a	73841	A	nontarget	n/a	n/a
290.015625	n/a	74244	B	target	hit	679.6875
290.6953125	n/a	74418	rt	n/a	hit	679.6875
291.5859375	n/a	74646	D	nontarget	n/a	n/a
293.1601562	n/a	75049	B	nontarget	n/a	n/a
294.71875	n/a	75448	D	nontarget	n/a	n/a
296.3046875	n/a	75854	C	nontarget	n/a	n/a
297.8828125	n/a	76258	C	nontarget	n/a	n/a
299.453125	n/a	76660	B	nontarget	n/a	n/a
301.0273438	n/a	77063	B	nontarget	n/a	n/a
302.5976562	n/a	77465	C	target	hit	523.4375
303.1210938	n/a	77599	rt	n/a	hit	523.4375
304.1835938	n/a	77871	C	nontarget	n/a	n/a
305.7578125	n/a	78274	B	target	hit	632.8125
306.390625	n/a	78436	rt	n/a	hit	632.8125
307.3320312	n/a	78677	B	nontarget	n/a	n/a
308.90625	n/a	79080	D	nontarget	n/a	n/a
310.4804688	n/a	79483	C	nontarget	n/a	n/a
312.0546875	n/a	79886	B	target	miss	n/a
313.640625	n/a	80292	D	target	hit	515.625
314.15625	n/a	80424	rt	n/a	hit	515.625
315.2148438	n/a	80695	D	nontarget	n/a	n/a
316.7851562	n/a	81097	A	nontarget	n/a	n/a
318.359375	n/a	81500	D	target	hit	628.9062
318.9882812	n/a	81661	rt	n/a	hit	628.9062
319.9335938	n/a	81903	B	nontarget	n/a	n/a
321.5078125	n/a	82306	B	nontarget	n/a	n/a
323.078125	n/a	82708	B	nontarget	n/a	n/a
324.65625	n/a	83112	C	nontarget	n/a	n/a
326.2265625	n/a	83514	D	nontarget	n/a	n/a
327.796875	n/a	83916	A	nontarget	n/a	n/a
329.3710938	n/a	84319	B	nontarget	n/a	n/a
330.9453125	n/a	84722	B	nontarget	false_alarm	816.4062
331.7617188	n/a	84931	rt	n/a	false_alarm	816.4062
332.53125	n/a	85128	D	nontarget	n/a	n/a
334.1054688	n/a	85531	A	nontarget	n/a	n/a
335.6757812	n/a	85933	C	nontarget	n/a	n/a
337.2539062	n/a	86337	A	nontarget	n/a	n/a
338.8242188	n/a	86739	D	nontarget	n/a	n/a
340.3984375	n/a	87142	C	target	hit	1152.3438
341.5507812	n/a	87437	rt	n/a	hit	1152.3438
341.9726562	n/a	87545	C	nontarget	n/a	n/a
343.5585938	n/a	87951	B	nontarget	n/a	n/a
345.1367188	n/a	88355	A	nontarget	n/a	n/a
346.703125	n/a	88756	B	nontarget	n/a	n/a
348.28125	n/a	89160	A	nontarget	n/a	n/a
349.8515625	n/a	89562	D	nontarget	n/a	n/a
351.4375	n/a	89968	C	nontarget	n/a	n/a
353.015625	n/a	90372	A	target	hit	617.1875
353.6328125	n/a	90530	rt	n/a	hit	617.1875
354.5859375	n/a	90774	B	nontarget	n/a	n/a
356.15625	n/a	91176	A	nontarget	n/a	n/a
357.7304688	n/a	91579	C	nontarget	n/a	n/a
359.3046875	n/a	91982	C	nontarget	n/a	n/a
360.8789062	n/a	92385	B	nontarget	n/a	n/a
362.453125	n/a	92788	A	nontarget	n/a	n/a
364.0234375	n/a	93190	C	target	hit	867.1875
364.890625	n/a	93412	rt	n/a	hit	867.1875
365.5976562	n/a	93593	A	nontarget	n/a	n/a
367.171875	n/a	93996	A	target	miss	n/a
368.7421875	n/a	94398	A	nontarget	miss	n/a
370.3164062	n/a	94801	C	nontarget	n/a	n/a
371.8945312	n/a	95205	D	nontarget	n/a	n/a
373.4765625	n/a	95610	A	target	hit	1113.2812
374.5898438	n/a	95895	rt	n/a	hit	1113.2812
375.0546875	n/a	96014	D	nontarget	n/a	n/a
376.625	n/a	96416	D	target	hit	664.0625
377.2890625	n/a	96586	rt	n/a	hit	664.0625
378.1992188	n/a	96819	D	nontarget	n/a	n/a
379.7695312	n/a	97221	B	nontarget	n/a	n/a
381.3359375	n/a	97622	C	nontarget	n/a	n/a
382.9179688	n/a	98027	C	nontarget	n/a	n/a
384.4921875	n/a	98430	A	nontarget	n/a	n/a
386.0625	n/a	98832	C	target	hit	792.9688
386.8554688	n/a	99035	rt	n/a	hit	792.9688
387.6367188	n/a	99235	A	nontarget	n/a	n/a
389.2109375	n/a	99638	B	nontarget	n/a	n/a
390.7851562	n/a	100041	C	target	miss	n/a
392.34375	n/a	100440	A	target	hit	652.3438
392.9960938	n/a	100607	rt	n/a	hit	652.3438
393.9179688	n/a	100843	D	nontarget	n/a	n/a
395.4921875	n/a	101246	B	nontarget	n/a	n/a
397.0664062	n/a	101649	B	nontarget	n/a	n/a
398.6367188	n/a	102051	A	nontarget	n/a	n/a
400.2109375	n/a	102454	C	nontarget	n/a	n/a
401.78125	n/a	102856	B	target	hit	890.625
402.671875	n/a	103084	rt	n/a	hit	890.625
403.359375	n/a	103260	D	nontarget	n/a	n/a
404.9179688	n/a	103659	C	target	hit	773.4375
405.6914062	n/a	103857	rt	n/a	hit	773.4375
406.4765625	n/a	104058	B	target	hit	984.375
407.4609375	n/a	104310	rt	n/a	hit	984.375
408.0351562	n/a	104457	B	nontarget	n/a	n/a
409.5976562	n/a	104857	D	nontarget	n/a	n/a
411.171875	n/a	105260	A	nontarget	n/a	n/a
412.7421875	n/a	105662	D	nontarget	n/a	n/a
414.3203125	n/a	106066	B	nontarget	n/a	n/a
415.890625	n/a	106468	A	target	miss	n/a
417.4609375	n/a	106870	C	nontarget	miss	n/a
419.0507812	n/a	107277	B	target	hit	632.8125
419.6835938	n/a	107439	rt	n/a	hit	632.8125
420.6210938	n/a	107679	D	nontarget	n/a	n/a
422.1953125	n/a	108082	C	target	hit	738.2812
422.9335938	n/a	108271	rt	n/a	hit	738.2812
423.7734375	n/a	108486	D	nontarget	n/a	n/a
425.34375	n/a	108888	C	nontarget	n/a	n/a
426.9179688	n/a	109291	A	nontarget	n/a	n/a
428.5039062	n/a	109697	C	nontarget	n/a	n/a
430.078125	n/a	110100	A	nontarget	n/a	n/a
431.6523438	n/a	110503	B	nontarget	n/a	n/a
433.2226562	n/a	110905	C	target	hit	820.3125
434.0429688	n/a	111115	rt	n/a	hit	820.3125
434.796875	n/a	111308	A	target	hit	867.1875
435.6640625	n/a	111530	rt	n/a	hit	867.1875
436.3710938	n/a	111711	A	nontarget	n/a	n/a
437.9414062	n/a	112113	A	nontarget	n/a	n/a
439.515625	n/a	112516	B	nontarget	n/a	n/a
441.09375	n/a	112920	B	nontarget	n/a	n/a
442.6601562	n/a	113321	A	target	hit	1250
443.9101562	n/a	113641	rt	n/a	hit	1250
444.234375	n/a	113724	A	nontarget	n/a	n/a
445.8085938	n/a	114127	B	target	hit	597.6562
446.40625	n/a	114280	rt	n/a	hit	597.6562
447.3828125	n/a	114530	B	nontarget	n/a	n/a
448.96875	n/a	114936	C	nontarget	n/a	n/a
450.5429688	n/a	115339	A	nontarget	n/a	n/a
452.1132812	n/a	115741	A	nontarget	n/a	n/a
453.6914062	n/a	116145	A	nontarget	n/a	n/a
455.2617188	n/a	116547	B	nontarget	n/a	n/a
