onset	duration	sample	value	response_type	congruence	response_time	response_out_of_range	largeletter	smallletter
25.49511719	n/a	6526.75	largeHSmallT	correct	incongruent	1.5962	yes	H	T
27.09130859	n/a	6935.375	responseLargeH	correct	n/a	1.5962	yes	n/a	n/a
28.17285156	n/a	7212.25	largeHSmallT	correct	incongruent	1.561	yes	H	T
29.73388672	n/a	7611.875	responseLargeH	correct	n/a	1.561	yes	n/a	n/a
30.79980469	n/a	7884.75	largeHSmallT	correct	incongruent	1	no	H	T
31.79980469	n/a	8140.75	responseLargeH	correct	n/a	1	no	n/a	n/a
32.87988281	n/a	8417.25	largeHSmallT	correct	incongruent	0.47949	no	H	T
33.359375	n/a	8540	responseLargeH	correct	n/a	0.47949	no	n/a	n/a
34.43945312	n/a	8816.5	largeTSmallH	correct	incongruent	1.5132	yes	T	H
35.95263672	n/a	9203.875	responseLargeT	correct	n/a	1.5132	yes	n/a	n/a
37.02636719	n/a	9478.75	largeHSmallH	correct	congruent	0.5791	no	H	H
37.60546875	n/a	9627	responseLargeH	correct	n/a	0.5791	no	n/a	n/a
38.6796875	n/a	9902	largeHSmallT	correct	incongruent	0.74951	no	H	T
39.42919922	n/a	10093.875	responseLargeH	correct	n/a	0.74951	no	n/a	n/a
40.50585938	n/a	10369.5	largeHSmallT	correct	incongruent	0.83594	no	H	T
41.34179688	n/a	10583.5	responseLargeH	correct	n/a	0.83594	no	n/a	n/a
42.41259766	n/a	10857.625	largeHSmallH	correct	congruent	0.75977	no	H	H
43.17236328	n/a	11052.125	responseLargeH	correct	n/a	0.75977	no	n/a	n/a
44.25244141	n/a	11328.625	largeHSmallH	correct	congruent	0.52441	no	H	H
44.77685547	n/a	11462.875	responseLargeH	correct	n/a	0.52441	no	n/a	n/a
45.85253906	n/a	11738.25	largeTSmallH	correct	incongruent	0.54346	no	T	H
46.39599609	n/a	11877.375	responseLargeT	correct	n/a	0.54346	no	n/a	n/a
47.46582031	n/a	12151.25	largeTSmallT	correct	congruent	0.65186	no	T	T
48.11767578	n/a	12318.125	responseLargeT	correct	n/a	0.65186	no	n/a	n/a
49.19921875	n/a	12595	largeHSmallT	correct	incongruent	0.51562	no	H	T
49.71484375	n/a	12727	responseLargeH	correct	n/a	0.51562	no	n/a	n/a
50.78515625	n/a	13001	largeHSmallH	correct	congruent	0.65674	no	H	H
51.44189453	n/a	13169.125	responseLargeH	correct	n/a	0.65674	no	n/a	n/a
52.51904297	n/a	13444.875	largeTSmallT	correct	congruent	0.57959	no	T	T
53.09863281	n/a	13593.25	responseLargeT	correct	n/a	0.57959	no	n/a	n/a
54.17236328	n/a	13868.125	largeHSmallH	correct	congruent	0.52441	no	H	H
54.69677734	n/a	14002.375	responseLargeH	correct	n/a	0.52441	no	n/a	n/a
55.75878906	n/a	14274.25	largeTSmallH	correct	incongruent	0.94531	no	T	H
56.70410156	n/a	14516.25	responseLargeT	correct	n/a	0.94531	no	n/a	n/a
57.77246094	n/a	14789.75	largeTSmallT	correct	congruent	0.68506	no	T	T
58.45751953	n/a	14965.125	responseLargeT	correct	n/a	0.68506	no	n/a	n/a
59.53222656	n/a	15240.25	largeTSmallH	correct	incongruent	0.6626	no	T	H
60.19482422	n/a	15409.875	responseLargeT	correct	n/a	0.6626	no	n/a	n/a
61.265625	n/a	15684	largeHSmallT	correct	incongruent	0.51611	no	H	T
61.78173828	n/a	15816.125	responseLargeH	correct	n/a	0.51611	no	n/a	n/a
62.86572266	n/a	16093.625	largeTSmallT	correct	congruent	0.68408	no	T	T
63.54980469	n/a	16268.75	responseLargeT	correct	n/a	0.68408	no	n/a	n/a
64.62548828	n/a	16544.125	largeTSmallH	correct	incongruent	0.83887	no	T	H
65.46435547	n/a	16758.875	responseLargeT	correct	n/a	0.83887	no	n/a	n/a
66.54541016	n/a	17035.625	largeTSmallH	correct	incongruent	0.55713	no	T	H
67.10253906	n/a	17178.25	responseLargeT	correct	n/a	0.55713	no	n/a	n/a
68.171875	n/a	17452	largeHSmallH	correct	congruent	0.47217	no	H	H
68.64404297	n/a	17572.875	responseLargeH	correct	n/a	0.47217	no	n/a	n/a
69.71875	n/a	17848	largeHSmallH	correct	congruent	0.55078	no	H	H
70.26953125	n/a	17989	responseLargeH	correct	n/a	0.55078	no	n/a	n/a
71.34521484	n/a	18264.375	largeTSmallH	correct	incongruent	0.58154	no	T	H
71.92675781	n/a	18413.25	responseLargeT	correct	n/a	0.58154	no	n/a	n/a
72.99853516	n/a	18687.625	largeTSmallT	correct	congruent	0.64746	no	T	T
73.64599609	n/a	18853.375	responseLargeT	correct	n/a	0.64746	no	n/a	n/a
74.71875	n/a	19128	largeTSmallT	correct	congruent	0.47412	no	T	T
75.19287109	n/a	19249.375	responseLargeT	correct	n/a	0.47412	no	n/a	n/a
76.26513672	n/a	19523.875	largeHSmallT	correct	incongruent	0.52002	no	H	T
76.78515625	n/a	19657	responseLargeH	correct	n/a	0.52002	no	n/a	n/a
77.8515625	n/a	19930	largeHSmallH	error	congruent	0.63721	no	H	H
78.48876953	n/a	20093.125	responseLargeT	error	n/a	0.63721	no	n/a	n/a
79.57177734	n/a	20370.375	largeTSmallH	correct	incongruent	0.76318	no	T	H
80.33496094	n/a	20565.75	responseLargeT	correct	n/a	0.76318	no	n/a	n/a
81.41162109	n/a	20841.375	largeTSmallT	correct	congruent	1.5542	yes	T	T
82.96582031	n/a	21239.25	responseLargeT	correct	n/a	1.5542	yes	n/a	n/a
84.03857422	n/a	21513.875	largeHSmallH	correct	congruent	0.65479	no	H	H
84.69335938	n/a	21681.5	responseLargeH	correct	n/a	0.65479	no	n/a	n/a
85.75830078	n/a	21954.125	largeHSmallH	correct	congruent	0.43604	no	H	H
86.19433594	n/a	22065.75	responseLargeH	correct	n/a	0.43604	no	n/a	n/a
87.27832031	n/a	22343.25	largeTSmallT	correct	congruent	0.53125	no	T	T
87.80957031	n/a	22479.25	responseLargeT	correct	n/a	0.53125	no	n/a	n/a
88.87841797	n/a	22752.875	largeHSmallH	correct	congruent	0.54785	no	H	H
89.42626953	n/a	22893.125	responseLargeH	correct	n/a	0.54785	no	n/a	n/a
90.50488281	n/a	23169.25	largeTSmallH	correct	incongruent	1.2896	no	T	H
91.79443359	n/a	23499.375	responseLargeT	correct	n/a	1.2896	no	n/a	n/a
92.87841797	n/a	23776.875	largeHSmallT	correct	incongruent	2.9019	yes	H	T
95.78027344	n/a	24519.75	responseLargeH	correct	n/a	2.9019	yes	n/a	n/a
96.8515625	n/a	24794	largeTSmallH	correct	incongruent	0.75244	no	T	H
97.60400391	n/a	24986.625	responseLargeT	correct	n/a	0.75244	no	n/a	n/a
98.67773438	n/a	25261.5	largeHSmallH	correct	congruent	0.68115	no	H	H
99.35888672	n/a	25435.875	responseLargeH	correct	n/a	0.68115	no	n/a	n/a
100.4248047	n/a	25708.75	largeHSmallH	correct	congruent	0.51709	no	H	H
100.9418945	n/a	25841.125	responseLargeH	correct	n/a	0.51709	no	n/a	n/a
102.0112305	n/a	26114.875	largeTSmallT	correct	congruent	0.59424	no	T	T
102.6054688	n/a	26267	responseLargeT	correct	n/a	0.59424	no	n/a	n/a
103.6645508	n/a	26538.125	largeHSmallT	correct	incongruent	0.97656	no	H	T
104.6411133	n/a	26788.125	responseLargeH	correct	n/a	0.97656	no	n/a	n/a
105.7177734	n/a	27063.75	largeTSmallT	correct	congruent	0.51123	no	T	T
106.2290039	n/a	27194.625	responseLargeT	correct	n/a	0.51123	no	n/a	n/a
107.3041992	n/a	27469.875	largeTSmallH	correct	incongruent	0.7832	no	T	H
108.0874023	n/a	27670.375	responseLargeT	correct	n/a	0.7832	no	n/a	n/a
109.1577148	n/a	27944.375	largeHSmallT	correct	incongruent	0.50928	no	H	T
109.6669922	n/a	28074.75	responseLargeH	correct	n/a	0.50928	no	n/a	n/a
110.730957	n/a	28347.125	largeHSmallT	correct	incongruent	1.043	no	H	T
111.7739258	n/a	28614.125	responseLargeH	correct	n/a	1.043	no	n/a	n/a
112.8378906	n/a	28886.5	largeTSmallH	correct	incongruent	0.55811	no	T	H
113.3959961	n/a	29029.375	responseLargeT	correct	n/a	0.55811	no	n/a	n/a
114.4643555	n/a	29302.875	largeHSmallH	correct	congruent	0.93164	no	H	H
115.3959961	n/a	29541.375	responseLargeH	correct	n/a	0.93164	no	n/a	n/a
116.4648438	n/a	29815	largeHSmallH	correct	congruent	0.62451	no	H	H
117.0893555	n/a	29974.875	responseLargeH	correct	n/a	0.62451	no	n/a	n/a
118.1577148	n/a	30248.375	largeTSmallT	correct	congruent	0.49902	no	T	T
118.6567383	n/a	30376.125	responseLargeT	correct	n/a	0.49902	no	n/a	n/a
119.7172852	n/a	30647.625	largeTSmallH	correct	incongruent	0.97461	no	T	H
120.6918945	n/a	30897.125	responseLargeT	correct	n/a	0.97461	no	n/a	n/a
121.7705078	n/a	31173.25	largeTSmallT	correct	congruent	0.50879	no	T	T
122.2792969	n/a	31303.5	responseLargeT	correct	n/a	0.50879	no	n/a	n/a
123.3574219	n/a	31579.5	largeHSmallT	correct	incongruent	0.70996	no	H	T
124.0673828	n/a	31761.25	responseLargeH	correct	n/a	0.70996	no	n/a	n/a
125.1303711	n/a	32033.375	largeHSmallT	correct	incongruent	0.69287	no	H	T
125.8232422	n/a	32210.75	responseLargeH	correct	n/a	0.69287	no	n/a	n/a
126.9038086	n/a	32487.375	largeTSmallH	correct	incongruent	0.47656	no	T	H
127.3803711	n/a	32609.375	responseLargeT	correct	n/a	0.47656	no	n/a	n/a
128.4506836	n/a	32883.375	largeHSmallH	correct	congruent	0.52295	no	H	H
128.9736328	n/a	33017.25	responseLargeH	correct	n/a	0.52295	no	n/a	n/a
130.050293	n/a	33292.875	largeTSmallT	correct	congruent	0.48389	no	T	T
130.5341797	n/a	33416.75	responseLargeT	correct	n/a	0.48389	no	n/a	n/a
131.6103516	n/a	33692.25	largeHSmallH	correct	congruent	0.67871	no	H	H
132.2890625	n/a	33866	responseLargeH	correct	n/a	0.67871	no	n/a	n/a
133.3569336	n/a	34139.375	largeHSmallT	correct	incongruent	0.61279	no	H	T
133.9697266	n/a	34296.25	responseLargeH	correct	n/a	0.61279	no	n/a	n/a
135.0371094	n/a	34569.5	largeTSmallH	correct	incongruent	0.51855	no	T	H
135.5556641	n/a	34702.25	responseLargeT	correct	n/a	0.51855	no	n/a	n/a
136.637207	n/a	34979.125	largeTSmallT	correct	congruent	0.66016	no	T	T
137.2973633	n/a	35148.125	responseLargeT	correct	n/a	0.66016	no	n/a	n/a
138.3701172	n/a	35422.75	largeHSmallH	correct	congruent	0.48926	no	H	H
138.859375	n/a	35548	responseLargeH	correct	n/a	0.48926	no	n/a	n/a
139.9301758	n/a	35822.125	largeHSmallH	correct	congruent	0.38037	no	H	H
140.3105469	n/a	35919.5	responseLargeH	correct	n/a	0.38037	no	n/a	n/a
141.3701172	n/a	36190.75	largeHSmallH	correct	congruent	0.38721	no	H	H
141.7573242	n/a	36289.875	responseLargeH	correct	n/a	0.38721	no	n/a	n/a
142.8237305	n/a	36562.875	largeHSmallH	correct	congruent	0.40967	no	H	H
143.2333984	n/a	36667.75	responseLargeH	correct	n/a	0.40967	no	n/a	n/a
144.3037109	n/a	36941.75	largeHSmallT	correct	incongruent	0.63721	no	H	T
144.940918	n/a	37104.875	responseLargeH	correct	n/a	0.63721	no	n/a	n/a
146.0102539	n/a	37378.625	largeHSmallH	correct	congruent	0.3833	no	H	H
146.3935547	n/a	37476.75	responseLargeH	correct	n/a	0.3833	no	n/a	n/a
147.4633789	n/a	37750.625	largeTSmallT	correct	congruent	0.52246	no	T	T
147.9858398	n/a	37884.375	responseLargeT	correct	n/a	0.52246	no	n/a	n/a
149.0498047	n/a	38156.75	largeHSmallT	correct	incongruent	0.52295	no	H	T
149.5727539	n/a	38290.625	responseLargeH	correct	n/a	0.52295	no	n/a	n/a
150.6367188	n/a	38563	largeHSmallT	correct	incongruent	0.50342	no	H	T
151.1401367	n/a	38691.875	responseLargeH	correct	n/a	0.50342	no	n/a	n/a
152.2231445	n/a	38969.125	largeHSmallH	correct	congruent	0.53516	no	H	H
152.7583008	n/a	39106.125	responseLargeH	correct	n/a	0.53516	no	n/a	n/a
153.8232422	n/a	39378.75	largeTSmallH	correct	incongruent	0.55322	no	T	H
154.3764648	n/a	39520.375	responseLargeT	correct	n/a	0.55322	no	n/a	n/a
155.449707	n/a	39795.125	largeTSmallT	correct	congruent	0.38867	no	T	T
155.8383789	n/a	39894.625	responseLargeT	correct	n/a	0.38867	no	n/a	n/a
156.9165039	n/a	40170.625	largeHSmallT	error	incongruent	0.41846	no	H	T
157.3349609	n/a	40277.75	responseLargeT	error	n/a	0.41846	no	n/a	n/a
158.409668	n/a	40552.875	largeHSmallH	correct	congruent	0.65186	no	H	H
159.0615234	n/a	40719.75	responseLargeH	correct	n/a	0.65186	no	n/a	n/a
160.1298828	n/a	40993.25	largeTSmallH	correct	incongruent	0.54883	no	T	H
160.6787109	n/a	41133.75	responseLargeT	correct	n/a	0.54883	no	n/a	n/a
161.7426758	n/a	41406.125	largeTSmallT	correct	congruent	0.86523	no	T	T
162.6079102	n/a	41627.625	responseLargeT	correct	n/a	0.86523	no	n/a	n/a
163.6762695	n/a	41901.125	largeTSmallT	correct	congruent	0.46387	no	T	T
164.1401367	n/a	42019.875	responseLargeT	correct	n/a	0.46387	no	n/a	n/a
165.2094727	n/a	42293.625	largeHSmallT	correct	incongruent	0.521	no	H	T
165.7304688	n/a	42427	responseLargeH	correct	n/a	0.521	no	n/a	n/a
166.8095703	n/a	42703.25	largeTSmallH	correct	incongruent	0.51904	no	T	H
167.3286133	n/a	42836.125	responseLargeT	correct	n/a	0.51904	no	n/a	n/a
168.3959961	n/a	43109.375	largeTSmallH	correct	incongruent	0.51123	no	T	H
168.9072266	n/a	43240.25	responseLargeT	correct	n/a	0.51123	no	n/a	n/a
169.9829102	n/a	43515.625	largeTSmallH	correct	incongruent	0.41602	no	T	H
170.3989258	n/a	43622.125	responseLargeT	correct	n/a	0.41602	no	n/a	n/a
171.4628906	n/a	43894.5	largeHSmallT	correct	incongruent	0.47119	no	H	T
171.934082	n/a	44015.125	responseLargeH	correct	n/a	0.47119	no	n/a	n/a
173.0092773	n/a	44290.375	largeTSmallH	correct	incongruent	0.59863	no	T	H
173.6079102	n/a	44443.625	responseLargeT	correct	n/a	0.59863	no	n/a	n/a
174.6762695	n/a	44717.125	largeTSmallH	correct	incongruent	0.62061	no	T	H
175.296875	n/a	44876	responseLargeT	correct	n/a	0.62061	no	n/a	n/a
176.3691406	n/a	45150.5	largeTSmallH	correct	incongruent	0.49756	no	T	H
176.8666992	n/a	45277.875	responseLargeT	correct	n/a	0.49756	no	n/a	n/a
177.9423828	n/a	45553.25	largeHSmallT	correct	incongruent	0.49219	no	H	T
178.4345703	n/a	45679.25	responseLargeH	correct	n/a	0.49219	no	n/a	n/a
179.5024414	n/a	45952.625	largeTSmallH	correct	incongruent	0.46631	no	T	H
179.96875	n/a	46072	responseLargeT	correct	n/a	0.46631	no	n/a	n/a
181.0493164	n/a	46348.625	largeHSmallT	error	incongruent	0.9707	no	H	T
182.0200195	n/a	46597.125	responseLargeT	error	n/a	0.9707	no	n/a	n/a
183.0893555	n/a	46870.875	largeHSmallT	correct	incongruent	0.60986	no	H	T
183.6992188	n/a	47027	responseLargeH	correct	n/a	0.60986	no	n/a	n/a
184.769043	n/a	47300.875	largeHSmallH	correct	congruent	0.55908	no	H	H
185.328125	n/a	47444	responseLargeH	correct	n/a	0.55908	no	n/a	n/a
186.3955078	n/a	47717.25	largeTSmallH	correct	incongruent	0.50537	no	T	H
186.9008789	n/a	47846.625	responseLargeT	correct	n/a	0.50537	no	n/a	n/a
187.9692383	n/a	48120.125	largeHSmallT	correct	incongruent	0.64307	no	H	T
188.6123047	n/a	48284.75	responseLargeH	correct	n/a	0.64307	no	n/a	n/a
189.6889648	n/a	48560.375	largeTSmallH	correct	incongruent	0.98975	no	T	H
190.6787109	n/a	48813.75	responseLargeT	correct	n/a	0.98975	no	n/a	n/a
191.7421875	n/a	49086	largeHSmallH	correct	congruent	0.82471	no	H	H
192.5668945	n/a	49297.125	responseLargeH	correct	n/a	0.82471	no	n/a	n/a
193.6357422	n/a	49570.75	largeHSmallT	correct	incongruent	0.5249	no	H	T
194.1606445	n/a	49705.125	responseLargeH	correct	n/a	0.5249	no	n/a	n/a
195.222168	n/a	49976.875	largeTSmallH	correct	incongruent	0.4624	no	T	H
195.6845703	n/a	50095.25	responseLargeT	correct	n/a	0.4624	no	n/a	n/a
196.7553711	n/a	50369.375	largeTSmallT	correct	congruent	0.53418	no	T	T
197.2895508	n/a	50506.125	responseLargeT	correct	n/a	0.53418	no	n/a	n/a
198.3686523	n/a	50782.375	largeTSmallT	correct	congruent	0.5791	no	T	T
198.9477539	n/a	50930.625	responseLargeT	correct	n/a	0.5791	no	n/a	n/a
200.0219727	n/a	51205.625	largeHSmallT	correct	incongruent	0.66797	no	H	T
200.6899414	n/a	51376.625	responseLargeH	correct	n/a	0.66797	no	n/a	n/a
201.7553711	n/a	51649.375	largeHSmallH	correct	congruent	0.41309	no	H	H
202.168457	n/a	51755.125	responseLargeH	correct	n/a	0.41309	no	n/a	n/a
203.2485352	n/a	52031.625	largeHSmallH	correct	congruent	0.42871	no	H	H
203.6772461	n/a	52141.375	responseLargeH	correct	n/a	0.42871	no	n/a	n/a
204.7416992	n/a	52413.875	largeTSmallH	correct	incongruent	0.53711	no	T	H
205.2788086	n/a	52551.375	responseLargeT	correct	n/a	0.53711	no	n/a	n/a
206.3417969	n/a	52823.5	largeHSmallT	correct	incongruent	0.6709	no	H	T
207.0126953	n/a	52995.25	responseLargeH	correct	n/a	0.6709	no	n/a	n/a
208.0751953	n/a	53267.25	largeHSmallT	correct	incongruent	0.52588	no	H	T
208.6010742	n/a	53401.875	responseLargeH	correct	n/a	0.52588	no	n/a	n/a
209.675293	n/a	53676.875	largeHSmallH	correct	congruent	0.48633	no	H	H
210.1616211	n/a	53801.375	responseLargeH	correct	n/a	0.48633	no	n/a	n/a
211.2353516	n/a	54076.25	largeHSmallH	correct	congruent	0.5083	no	H	H
211.7436523	n/a	54206.375	responseLargeH	correct	n/a	0.5083	no	n/a	n/a
212.8081055	n/a	54478.875	largeTSmallT	correct	congruent	0.49707	no	T	T
213.3051758	n/a	54606.125	responseLargeT	correct	n/a	0.49707	no	n/a	n/a
214.3818359	n/a	54881.75	largeTSmallT	correct	congruent	0.38232	no	T	T
214.7641602	n/a	54979.625	responseLargeT	correct	n/a	0.38232	no	n/a	n/a
215.8349609	n/a	55253.75	largeTSmallH	correct	incongruent	0.52637	no	T	H
216.3613281	n/a	55388.5	responseLargeT	correct	n/a	0.52637	no	n/a	n/a
217.4350586	n/a	55663.375	largeHSmallT	correct	incongruent	0.50732	no	H	T
217.9423828	n/a	55793.25	responseLargeH	correct	n/a	0.50732	no	n/a	n/a
219.0214844	n/a	56069.5	largeTSmallT	correct	congruent	0.48242	no	T	T
219.5039062	n/a	56193	responseLargeT	correct	n/a	0.48242	no	n/a	n/a
220.5683594	n/a	56465.5	largeHSmallH	correct	congruent	0.47021	no	H	H
221.0385742	n/a	56585.875	responseLargeH	correct	n/a	0.47021	no	n/a	n/a
222.1015625	n/a	56858	largeTSmallH	correct	incongruent	0.46631	no	T	H
222.5678711	n/a	56977.375	responseLargeT	correct	n/a	0.46631	no	n/a	n/a
223.6347656	n/a	57250.5	largeTSmallT	error	congruent	0.49268	no	T	T
224.1274414	n/a	57376.625	responseLargeH	error	n/a	0.49268	no	n/a	n/a
225.1948242	n/a	57649.875	largeHSmallH	correct	congruent	0.5835	no	H	H
225.7783203	n/a	57799.25	responseLargeH	correct	n/a	0.5835	no	n/a	n/a
226.8481445	n/a	58073.125	largeHSmallT	correct	incongruent	0.57764	no	H	T
227.4257812	n/a	58221	responseLargeH	correct	n/a	0.57764	no	n/a	n/a
228.5014648	n/a	58496.375	largeTSmallT	correct	congruent	0.56348	no	T	T
229.0649414	n/a	58640.625	responseLargeT	correct	n/a	0.56348	no	n/a	n/a
230.1411133	n/a	58916.125	largeHSmallT	correct	incongruent	1.1777	no	H	T
231.3188477	n/a	59217.625	responseLargeH	correct	n/a	1.1777	no	n/a	n/a
232.3813477	n/a	59489.625	largeTSmallT	correct	congruent	0.77734	no	T	T
233.1586914	n/a	59688.625	responseLargeT	correct	n/a	0.77734	no	n/a	n/a
234.2211914	n/a	59960.625	largeTSmallH	correct	incongruent	0.49268	no	T	H
234.7138672	n/a	60086.75	responseLargeT	correct	n/a	0.49268	no	n/a	n/a
235.78125	n/a	60360	largeHSmallH	correct	congruent	0.58838	no	H	H
236.3696289	n/a	60510.625	responseLargeH	correct	n/a	0.58838	no	n/a	n/a
237.4345703	n/a	60783.25	largeHSmallH	correct	congruent	0.61475	no	H	H
238.0493164	n/a	60940.625	responseLargeH	correct	n/a	0.61475	no	n/a	n/a
239.1279297	n/a	61216.75	largeHSmallT	correct	incongruent	0.59912	no	H	T
239.7270508	n/a	61370.125	responseLargeH	correct	n/a	0.59912	no	n/a	n/a
240.7944336	n/a	61643.375	largeHSmallT	correct	incongruent	0.52344	no	H	T
241.3178711	n/a	61777.375	responseLargeH	correct	n/a	0.52344	no	n/a	n/a
242.3808594	n/a	62049.5	largeTSmallT	correct	congruent	0.66016	no	T	T
243.0410156	n/a	62218.5	responseLargeT	correct	n/a	0.66016	no	n/a	n/a
244.1142578	n/a	62493.25	largeTSmallH	correct	incongruent	0.59131	no	T	H
244.7055664	n/a	62644.625	responseLargeT	correct	n/a	0.59131	no	n/a	n/a
245.7675781	n/a	62916.5	largeTSmallH	correct	incongruent	0.42188	no	T	H
246.1894531	n/a	63024.5	responseLargeT	correct	n/a	0.42188	no	n/a	n/a
247.2607422	n/a	63298.75	largeHSmallT	correct	incongruent	0.95117	no	H	T
248.2119141	n/a	63542.25	responseLargeH	correct	n/a	0.95117	no	n/a	n/a
249.2744141	n/a	63814.25	largeTSmallH	correct	incongruent	0.65771	no	T	H
249.9321289	n/a	63982.625	responseLargeT	correct	n/a	0.65771	no	n/a	n/a
251.0073242	n/a	64257.875	largeHSmallT	correct	incongruent	0.7334	no	H	T
251.7407227	n/a	64445.625	responseLargeH	correct	n/a	0.7334	no	n/a	n/a
252.8076172	n/a	64718.75	largeTSmallT	correct	congruent	1.1099	no	T	T
253.9174805	n/a	65002.875	responseLargeT	correct	n/a	1.1099	no	n/a	n/a
254.9941406	n/a	65278.5	largeTSmallT	correct	congruent	0.62402	no	T	T
255.6181641	n/a	65438.25	responseLargeT	correct	n/a	0.62402	no	n/a	n/a
256.6870117	n/a	65711.875	largeTSmallH	correct	incongruent	0.58203	no	T	H
257.269043	n/a	65860.875	responseLargeT	correct	n/a	0.58203	no	n/a	n/a
258.340332	n/a	66135.125	largeHSmallT	correct	incongruent	0.51367	no	H	T
258.8540039	n/a	66266.625	responseLargeH	correct	n/a	0.51367	no	n/a	n/a
259.9140625	n/a	66538	largeHSmallH	correct	congruent	0.51367	no	H	H
260.4277344	n/a	66669.5	responseLargeH	correct	n/a	0.51367	no	n/a	n/a
261.4873047	n/a	66940.75	largeHSmallH	correct	congruent	0.48682	no	H	H
261.9741211	n/a	67065.375	responseLargeH	correct	n/a	0.48682	no	n/a	n/a
263.0336914	n/a	67336.625	largeTSmallH	correct	incongruent	0.62061	no	T	H
263.6542969	n/a	67495.5	responseLargeT	correct	n/a	0.62061	no	n/a	n/a
264.7270508	n/a	67770.125	largeTSmallH	correct	incongruent	0.73779	no	T	H
265.4648438	n/a	67959	responseLargeT	correct	n/a	0.73779	no	n/a	n/a
266.5400391	n/a	68234.25	largeTSmallT	correct	congruent	0.65283	no	T	T
267.1928711	n/a	68401.375	responseLargeT	correct	n/a	0.65283	no	n/a	n/a
268.2602539	n/a	68674.625	largeHSmallH	correct	congruent	0.57031	no	H	H
268.8305664	n/a	68820.625	responseLargeH	correct	n/a	0.57031	no	n/a	n/a
269.9003906	n/a	69094.5	largeHSmallT	correct	incongruent	0.58252	no	H	T
270.4829102	n/a	69243.625	responseLargeH	correct	n/a	0.58252	no	n/a	n/a
271.5537109	n/a	69517.75	largeTSmallH	correct	incongruent	0.71289	no	T	H
272.2666016	n/a	69700.25	responseLargeT	correct	n/a	0.71289	no	n/a	n/a
273.340332	n/a	69975.125	largeHSmallT	correct	incongruent	0.63428	no	H	T
273.9746094	n/a	70137.5	responseLargeH	correct	n/a	0.63428	no	n/a	n/a
275.046875	n/a	70412	largeHSmallH	correct	congruent	0.54932	no	H	H
275.5961914	n/a	70552.625	responseLargeH	correct	n/a	0.54932	no	n/a	n/a
276.6733398	n/a	70828.375	largeHSmallT	correct	incongruent	0.51025	no	H	T
277.1835938	n/a	70959	responseLargeH	correct	n/a	0.51025	no	n/a	n/a
278.246582	n/a	71231.125	largeHSmallT	correct	incongruent	0.51416	no	H	T
278.7607422	n/a	71362.75	responseLargeH	correct	n/a	0.51416	no	n/a	n/a
279.8198242	n/a	71633.875	largeTSmallH	correct	incongruent	0.53027	no	T	H
280.3500977	n/a	71769.625	responseLargeT	correct	n/a	0.53027	no	n/a	n/a
281.4199219	n/a	72043.5	largeTSmallH	correct	incongruent	0.45947	no	T	H
281.8793945	n/a	72161.125	responseLargeT	correct	n/a	0.45947	no	n/a	n/a
282.9399414	n/a	72432.625	largeHSmallH	correct	congruent	0.48633	no	H	H
283.4262695	n/a	72557.125	responseLargeH	correct	n/a	0.48633	no	n/a	n/a
284.5	n/a	72832	largeTSmallT	correct	congruent	0.48291	no	T	T
284.9829102	n/a	72955.625	responseLargeT	correct	n/a	0.48291	no	n/a	n/a
286.0463867	n/a	73227.875	largeTSmallT	correct	congruent	0.41211	no	T	T
286.4584961	n/a	73333.375	responseLargeT	correct	n/a	0.41211	no	n/a	n/a
287.5263672	n/a	73606.75	largeTSmallT	correct	congruent	0.45361	no	T	T
287.9799805	n/a	73722.875	responseLargeT	correct	n/a	0.45361	no	n/a	n/a
289.0463867	n/a	73995.875	largeTSmallT	correct	congruent	0.49512	no	T	T
289.5415039	n/a	74122.625	responseLargeT	correct	n/a	0.49512	no	n/a	n/a
290.6196289	n/a	74398.625	largeTSmallT	correct	congruent	0.49756	no	T	T
291.1171875	n/a	74526	responseLargeT	correct	n/a	0.49756	no	n/a	n/a
292.1928711	n/a	74801.375	largeTSmallH	correct	incongruent	1.877	yes	T	H
294.0698242	n/a	75281.875	responseLargeT	correct	n/a	1.877	yes	n/a	n/a
295.1396484	n/a	75555.75	largeTSmallT	correct	congruent	2.9233	yes	T	T
298.0629883	n/a	76304.125	responseLargeT	correct	n/a	2.9233	yes	n/a	n/a
299.1396484	n/a	76579.75	largeHSmallT	correct	incongruent	0.94531	no	H	T
300.0849609	n/a	76821.75	responseLargeH	correct	n/a	0.94531	no	n/a	n/a
301.152832	n/a	77095.125	largeTSmallH	correct	incongruent	0.45068	no	T	H
301.6035156	n/a	77210.5	responseLargeT	correct	n/a	0.45068	no	n/a	n/a
302.6728516	n/a	77484.25	largeTSmallH	correct	incongruent	0.5	no	T	H
303.1728516	n/a	77612.25	responseLargeT	correct	n/a	0.5	no	n/a	n/a
304.2329102	n/a	77883.625	largeTSmallT	correct	congruent	0.42529	no	T	T
304.6582031	n/a	77992.5	responseLargeT	correct	n/a	0.42529	no	n/a	n/a
305.7392578	n/a	78269.25	largeTSmallT	correct	congruent	0.38428	no	T	T
306.1235352	n/a	78367.625	responseLargeT	correct	n/a	0.38428	no	n/a	n/a
307.1791992	n/a	78637.875	largeHSmallH	correct	congruent	0.46289	no	H	H
307.6420898	n/a	78756.375	responseLargeH	correct	n/a	0.46289	no	n/a	n/a
308.7128906	n/a	79030.5	largeTSmallT	correct	congruent	0.29053	no	T	T
309.003418	n/a	79104.875	responseLargeT	correct	n/a	0.29053	no	n/a	n/a
310.0727539	n/a	79378.625	largeTSmallT	error	congruent	0.35254	no	T	T
310.425293	n/a	79468.875	responseLargeH	error	n/a	0.35254	no	n/a	n/a
311.4990234	n/a	79743.75	largeHSmallH	correct	congruent	0.55762	no	H	H
312.0566406	n/a	79886.5	responseLargeH	correct	n/a	0.55762	no	n/a	n/a
313.1259766	n/a	80160.25	largeTSmallT	correct	congruent	0.69873	no	T	T
313.824707	n/a	80339.125	responseLargeT	correct	n/a	0.69873	no	n/a	n/a
314.8994141	n/a	80614.25	largeTSmallT	correct	congruent	0.47754	no	T	T
315.3769531	n/a	80736.5	responseLargeT	correct	n/a	0.47754	no	n/a	n/a
316.4589844	n/a	81013.5	largeTSmallT	correct	congruent	0.44434	no	T	T
316.9033203	n/a	81127.25	responseLargeT	correct	n/a	0.44434	no	n/a	n/a
317.9658203	n/a	81399.25	largeHSmallT	correct	incongruent	0.45752	no	H	T
318.4233398	n/a	81516.375	responseLargeH	correct	n/a	0.45752	no	n/a	n/a
319.4990234	n/a	81791.75	largeTSmallH	correct	incongruent	0.36133	no	T	H
319.8603516	n/a	81884.25	responseLargeT	correct	n/a	0.36133	no	n/a	n/a
320.9257812	n/a	82157	largeTSmallT	correct	congruent	0.53223	no	T	T
321.4580078	n/a	82293.25	responseLargeT	correct	n/a	0.53223	no	n/a	n/a
322.5253906	n/a	82566.5	largeHSmallH	correct	congruent	0.46094	no	H	H
322.9863281	n/a	82684.5	responseLargeH	correct	n/a	0.46094	no	n/a	n/a
324.0454102	n/a	82955.625	largeHSmallH	correct	congruent	0.50977	no	H	H
324.5551758	n/a	83086.125	responseLargeH	correct	n/a	0.50977	no	n/a	n/a
325.6323242	n/a	83361.875	largeTSmallH	correct	incongruent	0.56641	no	T	H
326.1987305	n/a	83506.875	responseLargeT	correct	n/a	0.56641	no	n/a	n/a
327.2587891	n/a	83778.25	largeHSmallT	correct	incongruent	0.46875	no	H	T
327.7275391	n/a	83898.25	responseLargeH	correct	n/a	0.46875	no	n/a	n/a
328.7919922	n/a	84170.75	largeTSmallH	correct	incongruent	0.34375	no	T	H
329.1357422	n/a	84258.75	responseLargeT	correct	n/a	0.34375	no	n/a	n/a
330.21875	n/a	84536	largeHSmallT	correct	incongruent	0.4834	no	H	T
330.7021484	n/a	84659.75	responseLargeH	correct	n/a	0.4834	no	n/a	n/a
331.7651367	n/a	84931.875	largeTSmallT	correct	congruent	0.50146	no	T	T
332.2666016	n/a	85060.25	responseLargeT	correct	n/a	0.50146	no	n/a	n/a
333.3256836	n/a	85331.375	largeHSmallH	correct	congruent	0.4834	no	H	H
333.809082	n/a	85455.125	responseLargeH	correct	n/a	0.4834	no	n/a	n/a
334.8720703	n/a	85727.25	largeTSmallT	correct	congruent	0.375	no	T	T
335.2470703	n/a	85823.25	responseLargeT	correct	n/a	0.375	no	n/a	n/a
336.3120117	n/a	86095.875	largeTSmallT	correct	congruent	0.49609	no	T	T
336.8081055	n/a	86222.875	responseLargeT	correct	n/a	0.49609	no	n/a	n/a
337.871582	n/a	86495.125	largeHSmallH	correct	congruent	0.49023	no	H	H
338.3618164	n/a	86620.625	responseLargeH	correct	n/a	0.49023	no	n/a	n/a
339.4316406	n/a	86894.5	largeTSmallH	correct	incongruent	0.53564	no	T	H
339.9672852	n/a	87031.625	responseLargeT	correct	n/a	0.53564	no	n/a	n/a
341.0449219	n/a	87307.5	largeHSmallH	correct	congruent	0.3374	no	H	H
341.3823242	n/a	87393.875	responseLargeH	correct	n/a	0.3374	no	n/a	n/a
342.4584961	n/a	87669.375	largeHSmallT	error	incongruent	0.27979	no	H	T
342.7382812	n/a	87741	responseLargeT	error	n/a	0.27979	no	n/a	n/a
343.8183594	n/a	88017.5	largeHSmallH	correct	congruent	0.60693	no	H	H
344.425293	n/a	88172.875	responseLargeH	correct	n/a	0.60693	no	n/a	n/a
345.4980469	n/a	88447.5	largeTSmallT	correct	congruent	0.54395	no	T	T
346.0419922	n/a	88586.75	responseLargeT	correct	n/a	0.54395	no	n/a	n/a
347.1113281	n/a	88860.5	largeTSmallH	error	incongruent	0.52637	no	T	H
347.6376953	n/a	88995.25	responseLargeH	error	n/a	0.52637	no	n/a	n/a
348.7119141	n/a	89270.25	largeHSmallH	correct	congruent	0.59961	no	H	H
349.3115234	n/a	89423.75	responseLargeH	correct	n/a	0.59961	no	n/a	n/a
350.378418	n/a	89696.875	largeHSmallH	correct	congruent	0.50195	no	H	H
350.8803711	n/a	89825.375	responseLargeH	correct	n/a	0.50195	no	n/a	n/a
351.9379883	n/a	90096.125	largeHSmallT	correct	incongruent	0.63428	no	H	T
352.5722656	n/a	90258.5	responseLargeH	correct	n/a	0.63428	no	n/a	n/a
353.6445312	n/a	90533	largeHSmallT	correct	incongruent	0.53564	no	H	T
354.1801758	n/a	90670.125	responseLargeH	correct	n/a	0.53564	no	n/a	n/a
355.2446289	n/a	90942.625	largeTSmallH	correct	incongruent	0.54199	no	T	H
355.7866211	n/a	91081.375	responseLargeT	correct	n/a	0.54199	no	n/a	n/a
356.8579102	n/a	91355.625	largeHSmallH	correct	congruent	0.59033	no	H	H
357.4482422	n/a	91506.75	responseLargeH	correct	n/a	0.59033	no	n/a	n/a
358.5244141	n/a	91782.25	largeTSmallT	correct	congruent	0.46191	no	T	T
358.9863281	n/a	91900.5	responseLargeT	correct	n/a	0.46191	no	n/a	n/a
360.0581055	n/a	92174.875	largeTSmallH	correct	incongruent	0.52246	no	T	H
360.5805664	n/a	92308.625	responseLargeT	correct	n/a	0.52246	no	n/a	n/a
361.6445312	n/a	92581	largeTSmallT	error	congruent	0.50781	no	T	T
362.1523438	n/a	92711	responseLargeH	error	n/a	0.50781	no	n/a	n/a
363.2177734	n/a	92983.75	largeHSmallT	correct	incongruent	0.58643	no	H	T
363.8041992	n/a	93133.875	responseLargeH	correct	n/a	0.58643	no	n/a	n/a
375.7373047	n/a	96188.75	largeTSmallH	correct	incongruent	0.92773	no	T	H
376.6650391	n/a	96426.25	responseSmallH	correct	n/a	0.92773	no	n/a	n/a
377.7241211	n/a	96697.375	largeHSmallH	correct	congruent	0.59863	no	H	H
378.3227539	n/a	96850.625	responseSmallH	correct	n/a	0.59863	no	n/a	n/a
379.4042969	n/a	97127.5	largeHSmallH	correct	congruent	0.46436	no	H	H
379.8686523	n/a	97246.375	responseSmallH	correct	n/a	0.46436	no	n/a	n/a
380.9506836	n/a	97523.375	largeHSmallT	correct	incongruent	0.52734	no	H	T
381.4780273	n/a	97658.375	responseSmallT	correct	n/a	0.52734	no	n/a	n/a
382.5507812	n/a	97933	largeTSmallT	correct	congruent	0.43408	no	T	T
382.9848633	n/a	98044.125	responseSmallT	correct	n/a	0.43408	no	n/a	n/a
384.0571289	n/a	98318.625	largeHSmallH	correct	congruent	0.39746	no	H	H
384.4545898	n/a	98420.375	responseSmallH	correct	n/a	0.39746	no	n/a	n/a
385.5244141	n/a	98694.25	largeTSmallT	correct	congruent	0.3501	no	T	T
385.8745117	n/a	98783.875	responseSmallT	correct	n/a	0.3501	no	n/a	n/a
386.9506836	n/a	99059.375	largeHSmallH	correct	congruent	0.37305	no	H	H
387.3237305	n/a	99154.875	responseSmallH	correct	n/a	0.37305	no	n/a	n/a
388.4038086	n/a	99431.375	largeTSmallH	correct	incongruent	0.53906	no	T	H
388.9428711	n/a	99569.375	responseSmallH	correct	n/a	0.53906	no	n/a	n/a
390.0039062	n/a	99841	largeHSmallT	correct	incongruent	0.48291	no	H	T
390.4868164	n/a	99964.625	responseSmallT	correct	n/a	0.48291	no	n/a	n/a
391.550293	n/a	100236.875	largeHSmallT	error	incongruent	0.41064	no	H	T
391.9609375	n/a	100342	responseSmallH	error	n/a	0.41064	no	n/a	n/a
393.0302734	n/a	100615.75	largeTSmallH	correct	incongruent	0.47217	no	T	H
393.5024414	n/a	100736.625	responseSmallH	correct	n/a	0.47217	no	n/a	n/a
394.5766602	n/a	101011.625	largeTSmallT	correct	congruent	0.604	no	T	T
395.1806641	n/a	101166.25	responseSmallT	correct	n/a	0.604	no	n/a	n/a
396.2436523	n/a	101438.375	largeHSmallH	correct	congruent	0.45605	no	H	H
396.699707	n/a	101555.125	responseSmallH	correct	n/a	0.45605	no	n/a	n/a
397.7768555	n/a	101830.875	largeTSmallH	correct	incongruent	0.50342	no	T	H
398.2802734	n/a	101959.75	responseSmallH	correct	n/a	0.50342	no	n/a	n/a
399.3500977	n/a	102233.625	largeTSmallT	correct	congruent	0.51318	no	T	T
399.8632812	n/a	102365	responseSmallT	correct	n/a	0.51318	no	n/a	n/a
400.9233398	n/a	102636.375	largeTSmallT	correct	congruent	0.44873	no	T	T
401.3720703	n/a	102751.25	responseSmallT	correct	n/a	0.44873	no	n/a	n/a
402.4433594	n/a	103025.5	largeTSmallT	correct	congruent	0.47314	no	T	T
402.9165039	n/a	103146.625	responseSmallT	correct	n/a	0.47314	no	n/a	n/a
403.9897461	n/a	103421.375	largeHSmallT	error	incongruent	0.46045	no	H	T
404.4501953	n/a	103539.25	responseSmallH	error	n/a	0.46045	no	n/a	n/a
405.5097656	n/a	103810.5	largeHSmallH	correct	congruent	0.47021	no	H	H
405.9799805	n/a	103930.875	responseSmallH	correct	n/a	0.47021	no	n/a	n/a
407.0566406	n/a	104206.5	largeTSmallH	correct	incongruent	0.48975	no	T	H
407.5463867	n/a	104331.875	responseSmallH	correct	n/a	0.48975	no	n/a	n/a
408.6166992	n/a	104605.875	largeTSmallH	correct	incongruent	0.4585	no	T	H
409.0751953	n/a	104723.25	responseSmallH	correct	n/a	0.4585	no	n/a	n/a
410.1499023	n/a	104998.375	largeTSmallT	correct	congruent	0.48926	no	T	T
410.6391602	n/a	105123.625	responseSmallT	correct	n/a	0.48926	no	n/a	n/a
411.7099609	n/a	105397.75	largeHSmallH	correct	congruent	0.57227	no	H	H
412.2822266	n/a	105544.25	responseSmallH	correct	n/a	0.57227	no	n/a	n/a
413.3632812	n/a	105821	largeTSmallH	correct	incongruent	0.48193	no	T	H
413.8452148	n/a	105944.375	responseSmallH	correct	n/a	0.48193	no	n/a	n/a
414.9228516	n/a	106220.25	largeHSmallT	correct	incongruent	0.48291	no	H	T
415.4057617	n/a	106343.875	responseSmallT	correct	n/a	0.48291	no	n/a	n/a
416.4829102	n/a	106619.625	largeHSmallH	correct	congruent	0.52979	no	H	H
417.0126953	n/a	106755.25	responseSmallH	correct	n/a	0.52979	no	n/a	n/a
418.0830078	n/a	107029.25	largeHSmallT	error	incongruent	0.43945	no	H	T
418.5224609	n/a	107141.75	responseSmallH	error	n/a	0.43945	no	n/a	n/a
419.6030273	n/a	107418.375	largeHSmallH	correct	congruent	0.98633	no	H	H
420.5893555	n/a	107670.875	responseSmallH	correct	n/a	0.98633	no	n/a	n/a
421.65625	n/a	107944	largeTSmallH	correct	incongruent	0.62842	no	T	H
422.284668	n/a	108104.875	responseSmallH	correct	n/a	0.62842	no	n/a	n/a
423.362793	n/a	108380.875	largeTSmallT	correct	congruent	0.4834	no	T	T
423.8461914	n/a	108504.625	responseSmallT	correct	n/a	0.4834	no	n/a	n/a
424.9228516	n/a	108780.25	largeTSmallT	correct	congruent	0.47998	no	T	T
425.402832	n/a	108903.125	responseSmallT	correct	n/a	0.47998	no	n/a	n/a
426.4829102	n/a	109179.625	largeTSmallH	correct	incongruent	0.57568	no	T	H
427.0585938	n/a	109327	responseSmallH	correct	n/a	0.57568	no	n/a	n/a
428.1362305	n/a	109602.875	largeTSmallH	correct	incongruent	0.49512	no	T	H
428.6313477	n/a	109729.625	responseSmallH	correct	n/a	0.49512	no	n/a	n/a
429.7094727	n/a	110005.625	largeHSmallH	correct	congruent	0.54199	no	H	H
430.2514648	n/a	110144.375	responseSmallH	correct	n/a	0.54199	no	n/a	n/a
431.3227539	n/a	110418.625	largeTSmallH	correct	incongruent	0.5415	no	T	H
431.8642578	n/a	110557.25	responseSmallH	correct	n/a	0.5415	no	n/a	n/a
432.9360352	n/a	110831.625	largeHSmallT	correct	incongruent	0.38477	no	H	T
433.3208008	n/a	110930.125	responseSmallT	correct	n/a	0.38477	no	n/a	n/a
434.3891602	n/a	111203.625	largeHSmallH	correct	congruent	0.64551	no	H	H
435.034668	n/a	111368.875	responseSmallH	correct	n/a	0.64551	no	n/a	n/a
436.1088867	n/a	111643.875	largeTSmallT	correct	congruent	0.56543	no	T	T
436.6743164	n/a	111788.625	responseSmallT	correct	n/a	0.56543	no	n/a	n/a
437.7358398	n/a	112060.375	largeTSmallT	correct	congruent	0.54688	no	T	T
438.2827148	n/a	112200.375	responseSmallT	correct	n/a	0.54688	no	n/a	n/a
439.3491211	n/a	112473.375	largeTSmallH	correct	incongruent	0.48584	no	T	H
439.8349609	n/a	112597.75	responseSmallH	correct	n/a	0.48584	no	n/a	n/a
440.9091797	n/a	112872.75	largeTSmallT	correct	congruent	0.5332	no	T	T
441.4423828	n/a	113009.25	responseSmallT	correct	n/a	0.5332	no	n/a	n/a
442.5224609	n/a	113285.75	largeHSmallT	correct	incongruent	0.60693	no	H	T
443.1293945	n/a	113441.125	responseSmallT	correct	n/a	0.60693	no	n/a	n/a
444.2026367	n/a	113715.875	largeHSmallH	correct	congruent	0.49854	no	H	H
444.7011719	n/a	113843.5	responseSmallH	correct	n/a	0.49854	no	n/a	n/a
445.7753906	n/a	114118.5	largeTSmallT	correct	congruent	0.53809	no	T	T
446.3134766	n/a	114256.25	responseSmallT	correct	n/a	0.53809	no	n/a	n/a
447.3891602	n/a	114531.625	largeHSmallT	correct	incongruent	0.45898	no	H	T
447.8481445	n/a	114649.125	responseSmallT	correct	n/a	0.45898	no	n/a	n/a
448.9091797	n/a	114920.75	largeTSmallH	correct	incongruent	0.58887	no	T	H
449.4980469	n/a	115071.5	responseSmallH	correct	n/a	0.58887	no	n/a	n/a
450.5620117	n/a	115343.875	largeHSmallT	correct	incongruent	0.53564	no	H	T
451.0976562	n/a	115481	responseSmallT	correct	n/a	0.53564	no	n/a	n/a
452.175293	n/a	115756.875	largeHSmallH	correct	congruent	0.50488	no	H	H
452.6801758	n/a	115886.125	responseSmallH	correct	n/a	0.50488	no	n/a	n/a
453.7485352	n/a	116159.625	largeTSmallH	correct	incongruent	0.6001	no	T	H
454.3486328	n/a	116313.25	responseSmallH	correct	n/a	0.6001	no	n/a	n/a
455.4155273	n/a	116586.375	largeHSmallH	correct	congruent	0.52979	no	H	H
455.9453125	n/a	116722	responseSmallH	correct	n/a	0.52979	no	n/a	n/a
457.0151367	n/a	116995.875	largeHSmallT	correct	incongruent	0.48486	no	H	T
457.5	n/a	117120	responseSmallT	correct	n/a	0.48486	no	n/a	n/a
458.5751953	n/a	117395.25	largeHSmallT	correct	incongruent	0.52051	no	H	T
459.0957031	n/a	117528.5	responseSmallT	correct	n/a	0.52051	no	n/a	n/a
460.1616211	n/a	117801.375	largeHSmallH	correct	congruent	0.58447	no	H	H
460.7460938	n/a	117951	responseSmallH	correct	n/a	0.58447	no	n/a	n/a
461.8154297	n/a	118224.75	largeTSmallH	error	incongruent	0.56592	no	T	H
462.3813477	n/a	118369.625	responseSmallT	error	n/a	0.56592	no	n/a	n/a
463.4550781	n/a	118644.5	largeHSmallT	correct	incongruent	0.59521	no	H	T
464.050293	n/a	118796.875	responseSmallT	correct	n/a	0.59521	no	n/a	n/a
465.121582	n/a	119071.125	largeTSmallT	correct	congruent	0.59717	no	T	T
465.71875	n/a	119224	responseSmallT	correct	n/a	0.59717	no	n/a	n/a
466.7885742	n/a	119497.875	largeTSmallT	correct	congruent	0.67188	no	T	T
467.4604492	n/a	119669.875	responseSmallT	correct	n/a	0.67188	no	n/a	n/a
468.5351562	n/a	119945	largeHSmallT	correct	incongruent	0.59375	no	H	T
469.1289062	n/a	120097	responseSmallT	correct	n/a	0.59375	no	n/a	n/a
470.2016602	n/a	120371.625	largeTSmallT	correct	congruent	0.4292	no	T	T
470.6308594	n/a	120481.5	responseSmallT	correct	n/a	0.4292	no	n/a	n/a
471.7084961	n/a	120757.375	largeHSmallH	correct	congruent	0.50537	no	H	H
472.2138672	n/a	120886.75	responseSmallH	correct	n/a	0.50537	no	n/a	n/a
473.2817383	n/a	121160.125	largeTSmallT	correct	congruent	0.56055	no	T	T
473.8422852	n/a	121303.625	responseSmallT	correct	n/a	0.56055	no	n/a	n/a
474.921875	n/a	121580	largeHSmallT	correct	incongruent	0.51855	no	H	T
475.4404297	n/a	121712.75	responseSmallT	correct	n/a	0.51855	no	n/a	n/a
476.5083008	n/a	121986.125	largeTSmallH	correct	incongruent	0.53906	no	T	H
477.0473633	n/a	122124.125	responseSmallH	correct	n/a	0.53906	no	n/a	n/a
478.121582	n/a	122399.125	largeTSmallT	correct	congruent	0.56299	no	T	T
478.6845703	n/a	122543.25	responseSmallT	correct	n/a	0.56299	no	n/a	n/a
479.7612305	n/a	122818.875	largeTSmallH	correct	incongruent	0.52051	no	T	H
480.2817383	n/a	122952.125	responseSmallH	correct	n/a	0.52051	no	n/a	n/a
481.3481445	n/a	123225.125	largeTSmallT	correct	congruent	0.50732	no	T	T
481.8554688	n/a	123355	responseSmallT	correct	n/a	0.50732	no	n/a	n/a
482.9213867	n/a	123627.875	largeTSmallT	correct	congruent	0.52588	no	T	T
483.4472656	n/a	123762.5	responseSmallT	correct	n/a	0.52588	no	n/a	n/a
484.5078125	n/a	124034	largeHSmallT	correct	incongruent	0.50879	no	H	T
485.0166016	n/a	124164.25	responseSmallT	correct	n/a	0.50879	no	n/a	n/a
486.0947266	n/a	124440.25	largeTSmallT	correct	congruent	0.59229	no	T	T
486.6870117	n/a	124591.875	responseSmallT	correct	n/a	0.59229	no	n/a	n/a
487.7612305	n/a	124866.875	largeTSmallT	correct	congruent	0.43701	no	T	T
488.1982422	n/a	124978.75	responseSmallT	correct	n/a	0.43701	no	n/a	n/a
489.2675781	n/a	125252.5	largeTSmallH	correct	incongruent	0.50781	no	T	H
489.7753906	n/a	125382.5	responseSmallH	correct	n/a	0.50781	no	n/a	n/a
490.8413086	n/a	125655.375	largeTSmallH	correct	incongruent	0.5874	no	T	H
491.4287109	n/a	125805.75	responseSmallH	correct	n/a	0.5874	no	n/a	n/a
492.5078125	n/a	126082	largeTSmallH	correct	incongruent	0.49365	no	T	H
493.0014648	n/a	126208.375	responseSmallH	correct	n/a	0.49365	no	n/a	n/a
494.0810547	n/a	126484.75	largeHSmallH	correct	congruent	0.60107	no	H	H
494.6821289	n/a	126638.625	responseSmallH	correct	n/a	0.60107	no	n/a	n/a
495.7607422	n/a	126914.75	largeHSmallH	correct	congruent	0.5083	no	H	H
496.269043	n/a	127044.875	responseSmallH	correct	n/a	0.5083	no	n/a	n/a
497.3339844	n/a	127317.5	largeTSmallT	correct	congruent	0.479	no	T	T
497.8129883	n/a	127440.125	responseSmallT	correct	n/a	0.479	no	n/a	n/a
498.8808594	n/a	127713.5	largeTSmallH	correct	incongruent	0.54492	no	T	H
499.4257812	n/a	127853	responseSmallH	correct	n/a	0.54492	no	n/a	n/a
500.5073242	n/a	128129.875	largeHSmallT	correct	incongruent	0.58643	no	H	T
501.09375	n/a	128280	responseSmallT	correct	n/a	0.58643	no	n/a	n/a
502.1743164	n/a	128556.625	largeTSmallH	correct	incongruent	0.68408	no	T	H
502.8583984	n/a	128731.75	responseSmallH	correct	n/a	0.68408	no	n/a	n/a
503.934082	n/a	129007.125	largeHSmallT	correct	incongruent	0.56396	no	H	T
504.4980469	n/a	129151.5	responseSmallT	correct	n/a	0.56396	no	n/a	n/a
505.5737305	n/a	129426.875	largeHSmallH	correct	congruent	0.7998	no	H	H
506.3735352	n/a	129631.625	responseSmallH	correct	n/a	0.7998	no	n/a	n/a
507.440918	n/a	129904.875	largeTSmallH	correct	incongruent	0.53174	no	T	H
507.9726562	n/a	130041	responseSmallH	correct	n/a	0.53174	no	n/a	n/a
509.0541992	n/a	130317.875	largeTSmallH	correct	incongruent	0.54688	no	T	H
509.6010742	n/a	130457.875	responseSmallH	correct	n/a	0.54688	no	n/a	n/a
510.6674805	n/a	130730.875	largeHSmallT	correct	incongruent	0.53809	no	H	T
511.2055664	n/a	130868.625	responseSmallT	correct	n/a	0.53809	no	n/a	n/a
512.2807617	n/a	131143.875	largeHSmallH	correct	congruent	0.5542	no	H	H
512.8349609	n/a	131285.75	responseSmallH	correct	n/a	0.5542	no	n/a	n/a
513.9072266	n/a	131560.25	largeTSmallT	correct	congruent	0.64844	no	T	T
514.5556641	n/a	131726.25	responseSmallT	correct	n/a	0.64844	no	n/a	n/a
515.6137695	n/a	131997.125	largeHSmallH	correct	congruent	0.58301	no	H	H
516.1967773	n/a	132146.375	responseSmallH	correct	n/a	0.58301	no	n/a	n/a
517.2670898	n/a	132420.375	largeHSmallT	correct	incongruent	0.62256	no	H	T
517.8896484	n/a	132579.75	responseSmallT	correct	n/a	0.62256	no	n/a	n/a
518.9604492	n/a	132853.875	largeTSmallT	correct	congruent	0.47705	no	T	T
519.4375	n/a	132976	responseSmallT	correct	n/a	0.47705	no	n/a	n/a
520.5068359	n/a	133249.75	largeTSmallH	correct	incongruent	0.52393	no	T	H
521.0307617	n/a	133383.875	responseSmallH	correct	n/a	0.52393	no	n/a	n/a
522.1069336	n/a	133659.375	largeTSmallH	correct	incongruent	0.70312	no	T	H
522.8100586	n/a	133839.375	responseSmallH	correct	n/a	0.70312	no	n/a	n/a
523.8935547	n/a	134116.75	largeTSmallT	correct	congruent	0.40771	no	T	T
524.3012695	n/a	134221.125	responseSmallT	correct	n/a	0.40771	no	n/a	n/a
525.3735352	n/a	134495.625	largeTSmallT	correct	congruent	0.55127	no	T	T
525.9248047	n/a	134636.75	responseSmallT	correct	n/a	0.55127	no	n/a	n/a
526.9868164	n/a	134908.625	largeTSmallH	correct	incongruent	0.51758	no	T	H
527.5043945	n/a	135041.125	responseSmallH	correct	n/a	0.51758	no	n/a	n/a
528.5869141	n/a	135318.25	largeHSmallH	correct	congruent	0.61328	no	H	H
529.2001953	n/a	135475.25	responseSmallH	correct	n/a	0.61328	no	n/a	n/a
530.2666016	n/a	135748.25	largeHSmallH	correct	congruent	0.50049	no	H	H
530.7670898	n/a	135876.375	responseSmallH	correct	n/a	0.50049	no	n/a	n/a
531.8398438	n/a	136151	largeHSmallH	correct	congruent	0.45557	no	H	H
532.2954102	n/a	136267.625	responseSmallH	correct	n/a	0.45557	no	n/a	n/a
533.3735352	n/a	136543.625	largeTSmallH	correct	incongruent	0.53906	no	T	H
533.9125977	n/a	136681.625	responseSmallH	correct	n/a	0.53906	no	n/a	n/a
534.9731445	n/a	136953.125	largeHSmallT	correct	incongruent	0.56201	no	H	T
535.5351562	n/a	137097	responseSmallT	correct	n/a	0.56201	no	n/a	n/a
536.6000977	n/a	137369.625	largeHSmallT	correct	incongruent	0.4624	no	H	T
537.0625	n/a	137488	responseSmallT	correct	n/a	0.4624	no	n/a	n/a
538.1333008	n/a	137762.125	largeHSmallT	correct	incongruent	0.51709	no	H	T
538.6503906	n/a	137894.5	responseSmallT	correct	n/a	0.51709	no	n/a	n/a
539.7197266	n/a	138168.25	largeHSmallT	correct	incongruent	0.46533	no	H	T
540.1850586	n/a	138287.375	responseSmallT	correct	n/a	0.46533	no	n/a	n/a
541.2529297	n/a	138560.75	largeTSmallH	correct	incongruent	0.54639	no	T	H
541.7993164	n/a	138700.625	responseSmallH	correct	n/a	0.54639	no	n/a	n/a
542.8798828	n/a	138977.25	largeTSmallH	correct	incongruent	0.49219	no	T	H
543.3720703	n/a	139103.25	responseSmallH	correct	n/a	0.49219	no	n/a	n/a
544.453125	n/a	139380	largeHSmallT	correct	incongruent	0.54395	no	H	T
544.9970703	n/a	139519.25	responseSmallT	correct	n/a	0.54395	no	n/a	n/a
546.0664062	n/a	139793	largeHSmallH	correct	congruent	0.52051	no	H	H
546.5869141	n/a	139926.25	responseSmallH	correct	n/a	0.52051	no	n/a	n/a
547.6660156	n/a	140202.5	largeHSmallH	correct	congruent	0.70752	no	H	H
548.3735352	n/a	140383.625	responseSmallH	correct	n/a	0.70752	no	n/a	n/a
549.4394531	n/a	140656.5	largeTSmallH	correct	incongruent	0.59229	no	T	H
550.0317383	n/a	140808.125	responseSmallH	correct	n/a	0.59229	no	n/a	n/a
551.1064453	n/a	141083.25	largeHSmallH	correct	congruent	0.61035	no	H	H
551.7167969	n/a	141239.5	responseSmallH	correct	n/a	0.61035	no	n/a	n/a
552.7993164	n/a	141516.625	largeTSmallH	correct	incongruent	0.57959	no	T	H
553.3789062	n/a	141665	responseSmallH	correct	n/a	0.57959	no	n/a	n/a
554.4526367	n/a	141939.875	largeTSmallH	correct	incongruent	0.54297	no	T	H
554.9956055	n/a	142078.875	responseSmallH	correct	n/a	0.54297	no	n/a	n/a
556.065918	n/a	142352.875	largeHSmallH	correct	congruent	0.53906	no	H	H
556.6049805	n/a	142490.875	responseSmallH	correct	n/a	0.53906	no	n/a	n/a
557.6791992	n/a	142765.875	largeHSmallH	correct	congruent	0.54053	no	H	H
558.2197266	n/a	142904.25	responseSmallH	correct	n/a	0.54053	no	n/a	n/a
559.2792969	n/a	143175.5	largeHSmallT	correct	incongruent	0.63281	no	H	T
559.9121094	n/a	143337.5	responseSmallT	correct	n/a	0.63281	no	n/a	n/a
560.9858398	n/a	143612.375	largeTSmallH	correct	incongruent	0.52197	no	T	H
561.5078125	n/a	143746	responseSmallH	correct	n/a	0.52197	no	n/a	n/a
562.5722656	n/a	144018.5	largeHSmallH	correct	congruent	0.56006	no	H	H
563.1323242	n/a	144161.875	responseSmallH	correct	n/a	0.56006	no	n/a	n/a
564.1992188	n/a	144435	largeTSmallT	correct	congruent	0.50977	no	T	T
564.7089844	n/a	144565.5	responseSmallT	correct	n/a	0.50977	no	n/a	n/a
565.7724609	n/a	144837.75	largeHSmallT	correct	incongruent	0.59229	no	H	T
566.3647461	n/a	144989.375	responseSmallT	correct	n/a	0.59229	no	n/a	n/a
567.4389648	n/a	145264.375	largeTSmallT	correct	congruent	0.55859	no	T	T
567.9975586	n/a	145407.375	responseSmallT	correct	n/a	0.55859	no	n/a	n/a
569.065918	n/a	145680.875	largeTSmallT	correct	congruent	0.53418	no	T	T
569.6000977	n/a	145817.625	responseSmallT	correct	n/a	0.53418	no	n/a	n/a
570.6791992	n/a	146093.875	largeHSmallT	correct	incongruent	0.72754	no	H	T
571.4067383	n/a	146280.125	responseSmallT	correct	n/a	0.72754	no	n/a	n/a
572.4790039	n/a	146554.625	largeTSmallH	correct	incongruent	0.55322	no	T	H
573.0322266	n/a	146696.25	responseSmallH	correct	n/a	0.55322	no	n/a	n/a
574.1054688	n/a	146971	largeTSmallT	correct	congruent	0.5459	no	T	T
574.6513672	n/a	147110.75	responseSmallT	correct	n/a	0.5459	no	n/a	n/a
575.7324219	n/a	147387.5	largeHSmallT	correct	incongruent	0.71387	no	H	T
576.4462891	n/a	147570.25	responseSmallT	correct	n/a	0.71387	no	n/a	n/a
577.5185547	n/a	147844.75	largeHSmallT	correct	incongruent	0.56006	no	H	T
578.0786133	n/a	147988.125	responseSmallT	correct	n/a	0.56006	no	n/a	n/a
579.1455078	n/a	148261.25	largeTSmallH	correct	incongruent	0.57422	no	T	H
579.7197266	n/a	148408.25	responseSmallH	correct	n/a	0.57422	no	n/a	n/a
580.7988281	n/a	148684.5	largeHSmallT	correct	incongruent	0.64941	no	H	T
581.4482422	n/a	148850.75	responseSmallT	correct	n/a	0.64941	no	n/a	n/a
582.5185547	n/a	149124.75	largeHSmallH	correct	congruent	0.61328	no	H	H
583.1318359	n/a	149281.75	responseSmallH	correct	n/a	0.61328	no	n/a	n/a
584.1987305	n/a	149554.875	largeHSmallT	correct	incongruent	0.57617	no	H	T
584.7749023	n/a	149702.375	responseSmallT	correct	n/a	0.57617	no	n/a	n/a
585.8520508	n/a	149978.125	largeHSmallH	correct	congruent	0.55225	no	H	H
586.4042969	n/a	150119.5	responseSmallH	correct	n/a	0.55225	no	n/a	n/a
587.4785156	n/a	150394.5	largeTSmallH	correct	incongruent	0.55322	no	T	H
588.0317383	n/a	150536.125	responseSmallH	correct	n/a	0.55322	no	n/a	n/a
589.0917969	n/a	150807.5	largeHSmallH	correct	congruent	0.52197	no	H	H
589.6137695	n/a	150941.125	responseSmallH	correct	n/a	0.52197	no	n/a	n/a
590.6918945	n/a	151217.125	largeTSmallT	correct	congruent	0.65283	no	T	T
591.3447266	n/a	151384.25	responseSmallT	correct	n/a	0.65283	no	n/a	n/a
592.4248047	n/a	151660.75	largeTSmallT	correct	congruent	0.45703	no	T	T
592.8818359	n/a	151777.75	responseSmallT	correct	n/a	0.45703	no	n/a	n/a
593.9448242	n/a	152049.875	largeTSmallT	correct	congruent	0.50732	no	T	T
594.4521484	n/a	152179.75	responseSmallT	correct	n/a	0.50732	no	n/a	n/a
595.5180664	n/a	152452.625	largeHSmallH	correct	congruent	0.56006	no	H	H
596.078125	n/a	152596	responseSmallH	correct	n/a	0.56006	no	n/a	n/a
597.1450195	n/a	152869.125	largeHSmallT	correct	incongruent	0.58301	no	H	T
597.7280273	n/a	153018.375	responseSmallT	correct	n/a	0.58301	no	n/a	n/a
598.7983398	n/a	153292.375	largeHSmallT	correct	incongruent	0.75635	no	H	T
599.5546875	n/a	153486	responseSmallT	correct	n/a	0.75635	no	n/a	n/a
600.625	n/a	153760	largeTSmallH	correct	incongruent	0.59326	no	T	H
601.2182617	n/a	153911.875	responseSmallH	correct	n/a	0.59326	no	n/a	n/a
602.2915039	n/a	154186.625	largeTSmallH	correct	incongruent	0.76758	no	T	H
603.059082	n/a	154383.125	responseSmallH	correct	n/a	0.76758	no	n/a	n/a
604.1313477	n/a	154657.625	largeTSmallT	correct	congruent	0.61279	no	T	T
604.7441406	n/a	154814.5	responseSmallT	correct	n/a	0.61279	no	n/a	n/a
605.8110352	n/a	155087.625	largeTSmallH	correct	incongruent	0.521	no	T	H
606.3320312	n/a	155221	responseSmallH	correct	n/a	0.521	no	n/a	n/a
607.4111328	n/a	155497.25	largeTSmallT	correct	congruent	0.60889	no	T	T
608.0200195	n/a	155653.125	responseSmallT	correct	n/a	0.60889	no	n/a	n/a
609.0913086	n/a	155927.375	largeTSmallH	correct	incongruent	0.57422	no	T	H
609.6655273	n/a	156074.375	responseSmallH	correct	n/a	0.57422	no	n/a	n/a
610.730957	n/a	156347.125	largeTSmallH	correct	incongruent	0.68848	no	T	H
611.4194336	n/a	156523.375	responseSmallH	correct	n/a	0.68848	no	n/a	n/a
612.4912109	n/a	156797.75	largeHSmallH	correct	congruent	0.58057	no	H	H
613.0717773	n/a	156946.375	responseSmallH	correct	n/a	0.58057	no	n/a	n/a
614.1445312	n/a	157221	largeHSmallH	correct	congruent	0.55225	no	H	H
614.6967773	n/a	157362.375	responseSmallH	correct	n/a	0.55225	no	n/a	n/a
615.7709961	n/a	157637.375	largeTSmallT	correct	congruent	0.60889	no	T	T
616.3798828	n/a	157793.25	responseSmallT	correct	n/a	0.60889	no	n/a	n/a
617.4511719	n/a	158067.5	largeTSmallT	correct	congruent	0.57227	no	T	T
618.0234375	n/a	158214	responseSmallT	correct	n/a	0.57227	no	n/a	n/a
619.0908203	n/a	158487.25	largeTSmallT	correct	congruent	0.56006	no	T	T
619.6508789	n/a	158630.625	responseSmallT	correct	n/a	0.56006	no	n/a	n/a
620.7177734	n/a	158903.75	largeTSmallT	correct	congruent	0.43652	no	T	T
621.1542969	n/a	159015.5	responseSmallT	correct	n/a	0.43652	no	n/a	n/a
622.2241211	n/a	159289.375	largeHSmallT	correct	incongruent	0.62793	no	H	T
622.8520508	n/a	159450.125	responseSmallT	correct	n/a	0.62793	no	n/a	n/a
623.9306641	n/a	159726.25	largeHSmallT	correct	incongruent	0.42969	no	H	T
624.3603516	n/a	159836.25	responseSmallT	correct	n/a	0.42969	no	n/a	n/a
625.4243164	n/a	160108.625	largeHSmallH	correct	congruent	0.53271	no	H	H
625.9570312	n/a	160245	responseSmallH	correct	n/a	0.53271	no	n/a	n/a
627.0375977	n/a	160521.625	largeTSmallH	correct	incongruent	0.62744	no	T	H
627.6650391	n/a	160682.25	responseSmallH	correct	n/a	0.62744	no	n/a	n/a
628.7304688	n/a	160955	largeHSmallH	correct	congruent	0.45557	no	H	H
629.1860352	n/a	161071.625	responseSmallH	correct	n/a	0.45557	no	n/a	n/a
630.2641602	n/a	161347.625	largeTSmallT	correct	congruent	0.5083	no	T	T
630.7724609	n/a	161477.75	responseSmallT	correct	n/a	0.5083	no	n/a	n/a
631.8374023	n/a	161750.375	largeTSmallH	correct	incongruent	0.43945	no	T	H
632.2768555	n/a	161862.875	responseSmallH	correct	n/a	0.43945	no	n/a	n/a
633.3574219	n/a	162139.5	largeHSmallH	correct	congruent	0.46777	no	H	H
633.8251953	n/a	162259.25	responseSmallH	correct	n/a	0.46777	no	n/a	n/a
634.890625	n/a	162532	largeHSmallT	correct	incongruent	0.58496	no	H	T
635.4755859	n/a	162681.75	responseSmallT	correct	n/a	0.58496	no	n/a	n/a
636.5571289	n/a	162958.625	largeHSmallT	correct	incongruent	0.46338	no	H	T
637.0205078	n/a	163077.25	responseSmallT	correct	n/a	0.46338	no	n/a	n/a
638.090332	n/a	163351.125	largeHSmallH	correct	congruent	0.60498	no	H	H
638.6953125	n/a	163506	responseSmallH	correct	n/a	0.60498	no	n/a	n/a
639.7705078	n/a	163781.25	largeTSmallT	correct	congruent	0.64111	no	T	T
640.4116211	n/a	163945.375	responseSmallT	correct	n/a	0.64111	no	n/a	n/a
641.4770508	n/a	164218.125	largeHSmallT	correct	incongruent	0.51953	no	H	T
641.996582	n/a	164351.125	responseSmallT	correct	n/a	0.51953	no	n/a	n/a
643.078125	n/a	164628	largeHSmallT	correct	incongruent	0.53076	no	H	T
643.6088867	n/a	164763.875	responseSmallT	correct	n/a	0.53076	no	n/a	n/a
644.6767578	n/a	165037.25	largeTSmallT	correct	congruent	0.47607	no	T	T
645.152832	n/a	165159.125	responseSmallT	correct	n/a	0.47607	no	n/a	n/a
646.2236328	n/a	165433.25	largeHSmallH	correct	congruent	0.66504	no	H	H
646.8886719	n/a	165603.5	responseSmallH	correct	n/a	0.66504	no	n/a	n/a
647.9570312	n/a	165877	largeTSmallT	correct	congruent	0.59229	no	T	T
648.5493164	n/a	166028.625	responseSmallT	correct	n/a	0.59229	no	n/a	n/a
649.6235352	n/a	166303.625	largeTSmallH	correct	incongruent	0.5459	no	T	H
650.1694336	n/a	166443.375	responseSmallH	correct	n/a	0.5459	no	n/a	n/a
651.2504883	n/a	166720.125	largeTSmallT	correct	congruent	0.60205	no	T	T
651.8525391	n/a	166874.25	responseSmallT	correct	n/a	0.60205	no	n/a	n/a
652.9301758	n/a	167150.125	largeTSmallT	correct	congruent	0.61035	no	T	T
653.5405273	n/a	167306.375	responseSmallT	correct	n/a	0.61035	no	n/a	n/a
654.6235352	n/a	167583.625	largeHSmallT	correct	incongruent	0.59766	no	H	T
655.2211914	n/a	167736.625	responseSmallT	correct	n/a	0.59766	no	n/a	n/a
656.2900391	n/a	168010.25	largeHSmallT	correct	incongruent	0.57227	no	H	T
656.8623047	n/a	168156.75	responseSmallT	correct	n/a	0.57227	no	n/a	n/a
657.9433594	n/a	168433.5	largeHSmallT	correct	incongruent	0.54639	no	H	T
658.4897461	n/a	168573.375	responseSmallT	correct	n/a	0.54639	no	n/a	n/a
659.5566406	n/a	168846.5	largeHSmallT	correct	incongruent	0.45459	no	H	T
660.0112305	n/a	168962.875	responseSmallT	correct	n/a	0.45459	no	n/a	n/a
661.0898438	n/a	169239	largeTSmallT	correct	congruent	0.4502	no	T	T
661.5400391	n/a	169354.25	responseSmallT	correct	n/a	0.4502	no	n/a	n/a
662.6230469	n/a	169631.5	largeHSmallH	correct	congruent	0.5332	no	H	H
663.15625	n/a	169768	responseSmallH	correct	n/a	0.5332	no	n/a	n/a
664.2231445	n/a	170041.125	largeTSmallH	correct	incongruent	0.53125	no	T	H
664.7543945	n/a	170177.125	responseSmallH	correct	n/a	0.53125	no	n/a	n/a
665.8364258	n/a	170454.125	largeHSmallH	correct	congruent	0.51074	no	H	H
666.347168	n/a	170584.875	responseSmallH	correct	n/a	0.51074	no	n/a	n/a
667.4228516	n/a	170860.25	largeHSmallT	correct	incongruent	0.65332	no	H	T
668.0761719	n/a	171027.5	responseSmallT	correct	n/a	0.65332	no	n/a	n/a
669.1430664	n/a	171300.625	largeHSmallT	correct	incongruent	0.55078	no	H	T
669.6938477	n/a	171441.625	responseSmallT	correct	n/a	0.55078	no	n/a	n/a
670.7563477	n/a	171713.625	largeHSmallH	correct	congruent	0.65918	no	H	H
671.4155273	n/a	171882.375	responseSmallH	correct	n/a	0.65918	no	n/a	n/a
672.4897461	n/a	172157.375	largeHSmallT	correct	incongruent	0.64258	no	H	T
673.1323242	n/a	172321.875	responseSmallT	correct	n/a	0.64258	no	n/a	n/a
674.2099609	n/a	172597.75	largeTSmallH	correct	incongruent	0.57129	no	T	H
674.78125	n/a	172744	responseSmallH	correct	n/a	0.57129	no	n/a	n/a
675.8496094	n/a	173017.5	largeHSmallH	correct	congruent	0.5918	no	H	H
676.4414062	n/a	173169	responseSmallH	correct	n/a	0.5918	no	n/a	n/a
677.5161133	n/a	173444.125	largeHSmallH	correct	congruent	0.69482	no	H	H
678.2109375	n/a	173622	responseSmallH	correct	n/a	0.69482	no	n/a	n/a
679.2758789	n/a	173894.625	largeHSmallH	correct	congruent	0.5376	no	H	H
679.8134766	n/a	174032.25	responseSmallH	correct	n/a	0.5376	no	n/a	n/a
680.8891602	n/a	174307.625	largeHSmallH	correct	congruent	0.59717	no	H	H
681.4863281	n/a	174460.5	responseSmallH	correct	n/a	0.59717	no	n/a	n/a
682.5561523	n/a	174734.375	largeTSmallH	correct	incongruent	0.64258	no	T	H
683.1987305	n/a	174898.875	responseSmallH	correct	n/a	0.64258	no	n/a	n/a
684.2758789	n/a	175174.625	largeHSmallH	correct	congruent	0.61426	no	H	H
684.8901367	n/a	175331.875	responseSmallH	correct	n/a	0.61426	no	n/a	n/a
685.9560547	n/a	175604.75	largeTSmallT	correct	congruent	0.70068	no	T	T
686.6567383	n/a	175784.125	responseSmallT	correct	n/a	0.70068	no	n/a	n/a
687.7294922	n/a	176058.75	largeHSmallT	correct	incongruent	0.72705	no	H	T
688.456543	n/a	176244.875	responseSmallT	correct	n/a	0.72705	no	n/a	n/a
689.5292969	n/a	176519.5	largeHSmallH	correct	congruent	0.63086	no	H	H
690.1601562	n/a	176681	responseSmallH	correct	n/a	0.63086	no	n/a	n/a
691.2358398	n/a	176956.375	largeHSmallT	correct	incongruent	0.70898	no	H	T
691.9448242	n/a	177137.875	responseSmallT	correct	n/a	0.70898	no	n/a	n/a
693.0224609	n/a	177413.75	largeTSmallT	correct	congruent	0.50293	no	T	T
693.5253906	n/a	177542.5	responseSmallT	correct	n/a	0.50293	no	n/a	n/a
694.5957031	n/a	177816.5	largeTSmallT	correct	congruent	0.43604	no	T	T
695.0317383	n/a	177928.125	responseSmallT	correct	n/a	0.43604	no	n/a	n/a
696.0888672	n/a	178198.75	largeTSmallH	correct	incongruent	0.64062	no	T	H
696.7294922	n/a	178362.75	responseSmallH	correct	n/a	0.64062	no	n/a	n/a
697.7954102	n/a	178635.625	largeHSmallT	correct	incongruent	0.66895	no	H	T
698.4643555	n/a	178806.875	responseSmallT	correct	n/a	0.66895	no	n/a	n/a
699.5288086	n/a	179079.375	largeTSmallH	correct	incongruent	0.68408	no	T	H
700.2128906	n/a	179254.5	responseSmallH	correct	n/a	0.68408	no	n/a	n/a
707.5683594	n/a	181137.5	largeTSmallH	correct	incongruent	0.6167	no	T	H
708.1850586	n/a	181295.375	responseLargeT	correct	n/a	0.6167	no	n/a	n/a
709.2617188	n/a	181571	largeHSmallH	correct	congruent	0.52148	no	H	H
709.7832031	n/a	181704.5	responseLargeH	correct	n/a	0.52148	no	n/a	n/a
710.8486328	n/a	181977.25	largeTSmallH	correct	incongruent	0.39404	no	T	H
711.2426758	n/a	182078.125	responseLargeT	correct	n/a	0.39404	no	n/a	n/a
712.3149414	n/a	182352.625	largeHSmallH	correct	congruent	0.36328	no	H	H
712.6782227	n/a	182445.625	responseLargeH	correct	n/a	0.36328	no	n/a	n/a
713.7548828	n/a	182721.25	largeTSmallT	correct	congruent	0.39551	no	T	T
714.1503906	n/a	182822.5	responseLargeT	correct	n/a	0.39551	no	n/a	n/a
715.2216797	n/a	183096.75	largeTSmallH	correct	incongruent	0.49365	no	T	H
715.715332	n/a	183223.125	responseLargeT	correct	n/a	0.49365	no	n/a	n/a
716.7817383	n/a	183496.125	largeHSmallH	correct	congruent	0.4873	no	H	H
717.269043	n/a	183620.875	responseLargeH	correct	n/a	0.4873	no	n/a	n/a
718.3417969	n/a	183895.5	largeHSmallH	correct	congruent	0.47656	no	H	H
718.8183594	n/a	184017.5	responseLargeH	correct	n/a	0.47656	no	n/a	n/a
719.8886719	n/a	184291.5	largeTSmallT	correct	congruent	0.43506	no	T	T
720.3237305	n/a	184402.875	responseLargeT	correct	n/a	0.43506	no	n/a	n/a
721.3950195	n/a	184677.125	largeHSmallT	correct	incongruent	0.47314	no	H	T
721.8681641	n/a	184798.25	responseLargeH	correct	n/a	0.47314	no	n/a	n/a
722.9418945	n/a	185073.125	largeHSmallH	correct	congruent	0.52783	no	H	H
723.4697266	n/a	185208.25	responseLargeH	correct	n/a	0.52783	no	n/a	n/a
724.5283203	n/a	185479.25	largeTSmallT	correct	congruent	0.4248	no	T	T
724.953125	n/a	185588	responseLargeT	correct	n/a	0.4248	no	n/a	n/a
726.0214844	n/a	185861.5	largeTSmallT	error	congruent	0.48584	no	T	T
726.5073242	n/a	185985.875	responseLargeH	error	n/a	0.48584	no	n/a	n/a
727.581543	n/a	186260.875	largeTSmallT	correct	congruent	0.66846	no	T	T
728.25	n/a	186432	responseLargeT	correct	n/a	0.66846	no	n/a	n/a
729.328125	n/a	186708	largeTSmallT	correct	congruent	0.44629	no	T	T
729.7744141	n/a	186822.25	responseLargeT	correct	n/a	0.44629	no	n/a	n/a
730.8481445	n/a	187097.125	largeTSmallT	correct	congruent	0.5415	no	T	T
731.3896484	n/a	187235.75	responseLargeT	correct	n/a	0.5415	no	n/a	n/a
732.4614258	n/a	187510.125	largeTSmallH	correct	incongruent	0.7876	no	T	H
733.2490234	n/a	187711.75	responseLargeT	correct	n/a	0.7876	no	n/a	n/a
734.3144531	n/a	187984.5	largeTSmallH	correct	incongruent	0.42236	no	T	H
734.7368164	n/a	188092.625	responseLargeT	correct	n/a	0.42236	no	n/a	n/a
735.8076172	n/a	188366.75	largeHSmallH	correct	congruent	0.46045	no	H	H
736.2680664	n/a	188484.625	responseLargeH	correct	n/a	0.46045	no	n/a	n/a
737.3413086	n/a	188759.375	largeTSmallT	correct	congruent	0.50098	no	T	T
737.8422852	n/a	188887.625	responseLargeT	correct	n/a	0.50098	no	n/a	n/a
738.9145508	n/a	189162.125	largeHSmallH	correct	congruent	0.52295	no	H	H
739.4375	n/a	189296	responseLargeH	correct	n/a	0.52295	no	n/a	n/a
740.5146484	n/a	189571.75	largeHSmallT	correct	incongruent	0.50684	no	H	T
741.0214844	n/a	189701.5	responseLargeH	correct	n/a	0.50684	no	n/a	n/a
742.1010742	n/a	189977.875	largeHSmallH	correct	congruent	0.50439	no	H	H
742.6054688	n/a	190107	responseLargeH	correct	n/a	0.50439	no	n/a	n/a
743.6743164	n/a	190380.625	largeTSmallH	error	incongruent	0.45752	no	T	H
744.1318359	n/a	190497.75	responseLargeH	error	n/a	0.45752	no	n/a	n/a
745.2075195	n/a	190773.125	largeTSmallT	correct	congruent	0.65137	no	T	T
745.8588867	n/a	190939.875	responseLargeT	correct	n/a	0.65137	no	n/a	n/a
746.940918	n/a	191216.875	largeHSmallT	correct	incongruent	0.50977	no	H	T
747.4506836	n/a	191347.375	responseLargeH	correct	n/a	0.50977	no	n/a	n/a
748.5273438	n/a	191623	largeHSmallT	correct	incongruent	0.56201	no	H	T
749.0893555	n/a	191766.875	responseLargeH	correct	n/a	0.56201	no	n/a	n/a
750.1674805	n/a	192042.875	largeHSmallT	correct	incongruent	0.53613	no	H	T
750.7036133	n/a	192180.125	responseLargeH	correct	n/a	0.53613	no	n/a	n/a
751.7675781	n/a	192452.5	largeHSmallH	correct	congruent	0.66748	no	H	H
752.4350586	n/a	192623.375	responseLargeH	correct	n/a	0.66748	no	n/a	n/a
753.5009766	n/a	192896.25	largeHSmallH	correct	congruent	0.44482	no	H	H
753.9458008	n/a	193010.125	responseLargeH	correct	n/a	0.44482	no	n/a	n/a
755.0205078	n/a	193285.25	largeTSmallT	correct	congruent	0.49316	no	T	T
755.5136719	n/a	193411.5	responseLargeT	correct	n/a	0.49316	no	n/a	n/a
756.5805664	n/a	193684.625	largeHSmallH	correct	congruent	0.51709	no	H	H
757.0976562	n/a	193817	responseLargeH	correct	n/a	0.51709	no	n/a	n/a
758.1674805	n/a	194090.875	largeHSmallH	correct	congruent	0.47559	no	H	H
758.6430664	n/a	194212.625	responseLargeH	correct	n/a	0.47559	no	n/a	n/a
759.7138672	n/a	194486.75	largeHSmallH	correct	congruent	0.45947	no	H	H
760.1733398	n/a	194604.375	responseLargeH	correct	n/a	0.45947	no	n/a	n/a
761.234375	n/a	194876	largeHSmallH	correct	congruent	0.43164	no	H	H
761.6660156	n/a	194986.5	responseLargeH	correct	n/a	0.43164	no	n/a	n/a
762.7407227	n/a	195261.625	largeHSmallH	correct	congruent	0.43018	no	H	H
763.1708984	n/a	195371.75	responseLargeH	correct	n/a	0.43018	no	n/a	n/a
764.2338867	n/a	195643.875	largeHSmallH	correct	congruent	0.39209	no	H	H
764.6259766	n/a	195744.25	responseLargeH	correct	n/a	0.39209	no	n/a	n/a
765.7001953	n/a	196019.25	largeTSmallH	correct	incongruent	0.5498	no	T	H
766.25	n/a	196160	responseLargeT	correct	n/a	0.5498	no	n/a	n/a
767.3271484	n/a	196435.75	largeHSmallH	correct	congruent	0.53467	no	H	H
767.8618164	n/a	196572.625	responseLargeH	correct	n/a	0.53467	no	n/a	n/a
768.9272461	n/a	196845.375	largeTSmallT	correct	congruent	0.5083	no	T	T
769.4355469	n/a	196975.5	responseLargeT	correct	n/a	0.5083	no	n/a	n/a
770.5136719	n/a	197251.5	largeTSmallH	correct	incongruent	0.53906	no	T	H
771.0527344	n/a	197389.5	responseLargeT	correct	n/a	0.53906	no	n/a	n/a
772.1269531	n/a	197664.5	largeTSmallT	correct	congruent	0.5708	no	T	T
772.6977539	n/a	197810.625	responseLargeT	correct	n/a	0.5708	no	n/a	n/a
773.7670898	n/a	198084.375	largeTSmallH	correct	incongruent	0.58594	no	T	H
774.3530273	n/a	198234.375	responseLargeT	correct	n/a	0.58594	no	n/a	n/a
775.4335938	n/a	198511	largeHSmallT	correct	incongruent	0.47754	no	H	T
775.9111328	n/a	198633.25	responseLargeH	correct	n/a	0.47754	no	n/a	n/a
776.9799805	n/a	198906.875	largeTSmallT	correct	congruent	0.4624	no	T	T
777.4423828	n/a	199025.25	responseLargeT	correct	n/a	0.4624	no	n/a	n/a
778.5131836	n/a	199299.375	largeHSmallT	correct	incongruent	0.55029	no	H	T
779.0634766	n/a	199440.25	responseLargeH	correct	n/a	0.55029	no	n/a	n/a
780.1401367	n/a	199715.875	largeHSmallT	correct	incongruent	0.5	no	H	T
780.6401367	n/a	199843.875	responseLargeH	correct	n/a	0.5	no	n/a	n/a
781.7133789	n/a	200118.625	largeTSmallH	correct	incongruent	0.49561	no	T	H
782.2089844	n/a	200245.5	responseLargeT	correct	n/a	0.49561	no	n/a	n/a
783.2866211	n/a	200521.375	largeTSmallT	correct	congruent	0.57959	no	T	T
783.8662109	n/a	200669.75	responseLargeT	correct	n/a	0.57959	no	n/a	n/a
784.9399414	n/a	200944.625	largeTSmallH	correct	incongruent	0.42188	no	T	H
785.3618164	n/a	201052.625	responseLargeT	correct	n/a	0.42188	no	n/a	n/a
786.4331055	n/a	201326.875	largeHSmallH	correct	congruent	0.51074	no	H	H
786.9438477	n/a	201457.625	responseLargeH	correct	n/a	0.51074	no	n/a	n/a
788.0068359	n/a	201729.75	largeHSmallT	correct	incongruent	0.82666	no	H	T
788.8334961	n/a	201941.375	responseLargeH	correct	n/a	0.82666	no	n/a	n/a
789.8999023	n/a	202214.375	largeTSmallT	correct	congruent	0.65967	no	T	T
790.5595703	n/a	202383.25	responseLargeT	correct	n/a	0.65967	no	n/a	n/a
791.6333008	n/a	202658.125	largeTSmallH	correct	incongruent	0.62207	no	T	H
792.2553711	n/a	202817.375	responseLargeT	correct	n/a	0.62207	no	n/a	n/a
793.3261719	n/a	203091.5	largeHSmallH	correct	congruent	0.52637	no	H	H
793.8525391	n/a	203226.25	responseLargeH	correct	n/a	0.52637	no	n/a	n/a
794.9262695	n/a	203501.125	largeTSmallH	correct	incongruent	0.6748	no	T	H
795.6010742	n/a	203673.875	responseLargeT	correct	n/a	0.6748	no	n/a	n/a
796.6728516	n/a	203948.25	largeTSmallT	correct	congruent	0.75439	no	T	T
797.4272461	n/a	204141.375	responseLargeT	correct	n/a	0.75439	no	n/a	n/a
798.4995117	n/a	204415.875	largeTSmallT	correct	congruent	0.5249	no	T	T
799.0244141	n/a	204550.25	responseLargeT	correct	n/a	0.5249	no	n/a	n/a
800.0996094	n/a	204825.5	largeHSmallH	correct	congruent	0.52686	no	H	H
800.6264648	n/a	204960.375	responseLargeH	correct	n/a	0.52686	no	n/a	n/a
801.699707	n/a	205235.125	largeTSmallH	correct	incongruent	0.46533	no	T	H
802.1650391	n/a	205354.25	responseLargeT	correct	n/a	0.46533	no	n/a	n/a
803.2329102	n/a	205627.625	largeTSmallT	correct	congruent	0.71533	no	T	T
803.9482422	n/a	205810.75	responseLargeT	correct	n/a	0.71533	no	n/a	n/a
805.0195312	n/a	206085	largeTSmallT	correct	congruent	0.48535	no	T	T
805.5048828	n/a	206209.25	responseLargeT	correct	n/a	0.48535	no	n/a	n/a
806.5791016	n/a	206484.25	largeTSmallT	correct	congruent	0.49219	no	T	T
807.0712891	n/a	206610.25	responseLargeT	correct	n/a	0.49219	no	n/a	n/a
808.1391602	n/a	206883.625	largeTSmallH	error	incongruent	0.59473	no	T	H
808.7338867	n/a	207035.875	responseLargeH	error	n/a	0.59473	no	n/a	n/a
809.8056641	n/a	207310.25	largeHSmallH	correct	congruent	0.62305	no	H	H
810.4287109	n/a	207469.75	responseLargeH	correct	n/a	0.62305	no	n/a	n/a
811.512207	n/a	207747.125	largeHSmallT	correct	incongruent	0.58936	no	H	T
812.1015625	n/a	207898	responseLargeH	correct	n/a	0.58936	no	n/a	n/a
813.1791992	n/a	208173.875	largeHSmallT	correct	incongruent	0.59229	no	H	T
813.7714844	n/a	208325.5	responseLargeH	correct	n/a	0.59229	no	n/a	n/a
814.8457031	n/a	208600.5	largeHSmallT	correct	incongruent	0.59766	no	H	T
815.4433594	n/a	208753.5	responseLargeH	correct	n/a	0.59766	no	n/a	n/a
816.5126953	n/a	209027.25	largeTSmallT	correct	congruent	0.55469	no	T	T
817.0673828	n/a	209169.25	responseLargeT	correct	n/a	0.55469	no	n/a	n/a
818.1391602	n/a	209443.625	largeTSmallH	correct	incongruent	0.49854	no	T	H
818.6376953	n/a	209571.25	responseLargeT	correct	n/a	0.49854	no	n/a	n/a
819.7124023	n/a	209846.375	largeTSmallT	correct	congruent	0.55225	no	T	T
820.2646484	n/a	209987.75	responseLargeT	correct	n/a	0.55225	no	n/a	n/a
821.3256836	n/a	210259.375	largeHSmallH	correct	congruent	0.62842	no	H	H
821.9541016	n/a	210420.25	responseLargeH	correct	n/a	0.62842	no	n/a	n/a
823.019043	n/a	210692.875	largeTSmallH	correct	incongruent	0.88281	no	T	H
823.9018555	n/a	210918.875	responseLargeT	correct	n/a	0.88281	no	n/a	n/a
824.9658203	n/a	211191.25	largeTSmallH	correct	incongruent	0.39844	no	T	H
825.3642578	n/a	211293.25	responseLargeT	correct	n/a	0.39844	no	n/a	n/a
826.4321289	n/a	211566.625	largeHSmallT	correct	incongruent	0.4917	no	H	T
826.9238281	n/a	211692.5	responseLargeH	correct	n/a	0.4917	no	n/a	n/a
827.9921875	n/a	211966	largeTSmallT	correct	congruent	0.64404	no	T	T
828.6362305	n/a	212130.875	responseLargeT	correct	n/a	0.64404	no	n/a	n/a
829.7119141	n/a	212406.25	largeHSmallH	correct	congruent	0.48779	no	H	H
830.199707	n/a	212531.125	responseLargeH	correct	n/a	0.48779	no	n/a	n/a
831.2719727	n/a	212805.625	largeHSmallT	correct	incongruent	0.71338	no	H	T
831.9853516	n/a	212988.25	responseLargeH	correct	n/a	0.71338	no	n/a	n/a
833.0585938	n/a	213263	largeHSmallT	correct	incongruent	0.49805	no	H	T
833.5566406	n/a	213390.5	responseLargeH	correct	n/a	0.49805	no	n/a	n/a
834.6186523	n/a	213662.375	largeHSmallH	correct	congruent	0.73584	no	H	H
835.3544922	n/a	213850.75	responseLargeH	correct	n/a	0.73584	no	n/a	n/a
836.418457	n/a	214123.125	largeTSmallH	correct	incongruent	0.54053	no	T	H
836.9589844	n/a	214261.5	responseLargeT	correct	n/a	0.54053	no	n/a	n/a
838.019043	n/a	214532.875	largeHSmallH	correct	congruent	0.48096	no	H	H
838.5	n/a	214656	responseLargeH	correct	n/a	0.48096	no	n/a	n/a
839.5649414	n/a	214928.625	largeHSmallT	error	incongruent	0.26807	no	H	T
839.8330078	n/a	214997.25	responseLargeT	error	n/a	0.26807	no	n/a	n/a
840.9116211	n/a	215273.375	largeHSmallH	correct	congruent	0.62207	no	H	H
841.5336914	n/a	215432.625	responseLargeH	correct	n/a	0.62207	no	n/a	n/a
842.6181641	n/a	215710.25	largeHSmallH	correct	congruent	0.53857	no	H	H
843.1567383	n/a	215848.125	responseLargeH	correct	n/a	0.53857	no	n/a	n/a
844.2319336	n/a	216123.375	largeHSmallT	correct	incongruent	0.40283	no	H	T
844.6347656	n/a	216226.5	responseLargeH	correct	n/a	0.40283	no	n/a	n/a
845.6982422	n/a	216498.75	largeHSmallT	correct	incongruent	0.38672	no	H	T
846.0849609	n/a	216597.75	responseLargeH	correct	n/a	0.38672	no	n/a	n/a
847.1518555	n/a	216870.875	largeHSmallT	correct	incongruent	0.40283	no	H	T
847.5546875	n/a	216974	responseLargeH	correct	n/a	0.40283	no	n/a	n/a
848.6313477	n/a	217249.625	largeTSmallT	correct	congruent	0.57275	no	T	T
849.2041016	n/a	217396.25	responseLargeT	correct	n/a	0.57275	no	n/a	n/a
850.2714844	n/a	217669.5	largeHSmallH	error	congruent	0.2959	no	H	H
850.5673828	n/a	217745.25	responseLargeT	error	n/a	0.2959	no	n/a	n/a
851.6450195	n/a	218021.125	largeHSmallH	correct	congruent	0.77783	no	H	H
852.4228516	n/a	218220.25	responseLargeH	correct	n/a	0.77783	no	n/a	n/a
853.4980469	n/a	218495.5	largeHSmallH	correct	congruent	0.39551	no	H	H
853.8935547	n/a	218596.75	responseLargeH	correct	n/a	0.39551	no	n/a	n/a
854.9648438	n/a	218871	largeTSmallT	correct	congruent	0.55762	no	T	T
855.5224609	n/a	219013.75	responseLargeT	correct	n/a	0.55762	no	n/a	n/a
856.5913086	n/a	219287.375	largeTSmallT	correct	congruent	0.50146	no	T	T
857.0927734	n/a	219415.75	responseLargeT	correct	n/a	0.50146	no	n/a	n/a
858.1645508	n/a	219690.125	largeHSmallH	correct	congruent	0.5376	no	H	H
858.7021484	n/a	219827.75	responseLargeH	correct	n/a	0.5376	no	n/a	n/a
859.7646484	n/a	220099.75	largeHSmallT	correct	incongruent	0.49805	no	H	T
860.2626953	n/a	220227.25	responseLargeH	correct	n/a	0.49805	no	n/a	n/a
861.3378906	n/a	220502.5	largeHSmallT	correct	incongruent	0.4917	no	H	T
861.8295898	n/a	220628.375	responseLargeH	correct	n/a	0.4917	no	n/a	n/a
862.9111328	n/a	220905.25	largeTSmallH	correct	incongruent	0.50488	no	T	H
863.4160156	n/a	221034.5	responseLargeT	correct	n/a	0.50488	no	n/a	n/a
864.484375	n/a	221308	largeHSmallT	correct	incongruent	0.60547	no	H	T
865.0898438	n/a	221463	responseLargeH	correct	n/a	0.60547	no	n/a	n/a
866.1645508	n/a	221738.125	largeHSmallT	error	incongruent	0.38037	no	H	T
866.5449219	n/a	221835.5	responseLargeT	error	n/a	0.38037	no	n/a	n/a
867.6176758	n/a	222110.125	largeHSmallH	correct	congruent	0.56836	no	H	H
868.1860352	n/a	222255.625	responseLargeH	correct	n/a	0.56836	no	n/a	n/a
869.2578125	n/a	222530	largeHSmallT	correct	incongruent	0.47705	no	H	T
869.7348633	n/a	222652.125	responseLargeH	correct	n/a	0.47705	no	n/a	n/a
870.8041992	n/a	222925.875	largeTSmallH	correct	incongruent	0.53906	no	T	H
871.3432617	n/a	223063.875	responseLargeT	correct	n/a	0.53906	no	n/a	n/a
872.4042969	n/a	223335.5	largeTSmallT	correct	congruent	0.47412	no	T	T
872.878418	n/a	223456.875	responseLargeT	correct	n/a	0.47412	no	n/a	n/a
873.9511719	n/a	223731.5	largeTSmallT	correct	congruent	0.44141	no	T	T
874.3925781	n/a	223844.5	responseLargeT	correct	n/a	0.44141	no	n/a	n/a
875.4707031	n/a	224120.5	largeTSmallT	correct	congruent	0.50439	no	T	T
875.9750977	n/a	224249.625	responseLargeT	correct	n/a	0.50439	no	n/a	n/a
877.0439453	n/a	224523.25	largeTSmallT	correct	congruent	0.41504	no	T	T
877.4589844	n/a	224629.5	responseLargeT	correct	n/a	0.41504	no	n/a	n/a
878.5239258	n/a	224902.125	largeTSmallT	correct	congruent	0.46875	no	T	T
878.9926758	n/a	225022.125	responseLargeT	correct	n/a	0.46875	no	n/a	n/a
880.0708008	n/a	225298.125	largeHSmallT	correct	incongruent	0.5293	no	H	T
880.6000977	n/a	225433.625	responseLargeH	correct	n/a	0.5293	no	n/a	n/a
881.6708984	n/a	225707.75	largeHSmallT	correct	incongruent	0.5	no	H	T
882.1708984	n/a	225835.75	responseLargeH	correct	n/a	0.5	no	n/a	n/a
883.2441406	n/a	226110.5	largeHSmallT	correct	incongruent	0.45215	no	H	T
883.6962891	n/a	226226.25	responseLargeH	correct	n/a	0.45215	no	n/a	n/a
884.7636719	n/a	226499.5	largeTSmallH	correct	incongruent	0.54199	no	T	H
885.3056641	n/a	226638.25	responseLargeT	correct	n/a	0.54199	no	n/a	n/a
886.3637695	n/a	226909.125	largeHSmallH	correct	congruent	0.51074	no	H	H
886.8745117	n/a	227039.875	responseLargeH	correct	n/a	0.51074	no	n/a	n/a
887.9506836	n/a	227315.375	largeTSmallT	correct	congruent	0.41309	no	T	T
888.3637695	n/a	227421.125	responseLargeT	correct	n/a	0.41309	no	n/a	n/a
889.4306641	n/a	227694.25	largeHSmallT	correct	incongruent	0.50293	no	H	T
889.9335938	n/a	227823	responseLargeH	correct	n/a	0.50293	no	n/a	n/a
891.0039062	n/a	228097	largeTSmallH	correct	incongruent	0.43945	no	T	H
891.4433594	n/a	228209.5	responseLargeT	correct	n/a	0.43945	no	n/a	n/a
892.5102539	n/a	228482.625	largeHSmallH	correct	congruent	0.47852	no	H	H
892.9887695	n/a	228605.125	responseLargeH	correct	n/a	0.47852	no	n/a	n/a
894.0571289	n/a	228878.625	largeTSmallH	correct	incongruent	0.41602	no	T	H
894.4731445	n/a	228985.125	responseLargeT	correct	n/a	0.41602	no	n/a	n/a
895.550293	n/a	229260.875	largeTSmallH	correct	incongruent	0.75146	no	T	H
896.3017578	n/a	229453.25	responseLargeT	correct	n/a	0.75146	no	n/a	n/a
897.3632812	n/a	229725	largeHSmallT	correct	incongruent	0.51953	no	H	T
897.8828125	n/a	229858	responseLargeH	correct	n/a	0.51953	no	n/a	n/a
898.9638672	n/a	230134.75	largeHSmallT	correct	incongruent	0.55713	no	H	T
899.5209961	n/a	230277.375	responseLargeH	correct	n/a	0.55713	no	n/a	n/a
900.6035156	n/a	230554.5	largeTSmallT	correct	congruent	0.57422	no	T	T
901.1777344	n/a	230701.5	responseLargeT	correct	n/a	0.57422	no	n/a	n/a
902.2436523	n/a	230974.375	largeTSmallT	correct	congruent	0.52051	no	T	T
902.7641602	n/a	231107.625	responseLargeT	correct	n/a	0.52051	no	n/a	n/a
903.8432617	n/a	231383.875	largeTSmallH	correct	incongruent	0.62744	no	T	H
904.4707031	n/a	231544.5	responseLargeT	correct	n/a	0.62744	no	n/a	n/a
905.5371094	n/a	231817.5	largeTSmallT	correct	congruent	0.50244	no	T	T
906.0395508	n/a	231946.125	responseLargeT	correct	n/a	0.50244	no	n/a	n/a
907.1235352	n/a	232223.625	largeHSmallH	correct	congruent	0.53027	no	H	H
907.6538086	n/a	232359.375	responseLargeH	correct	n/a	0.53027	no	n/a	n/a
908.7231445	n/a	232633.125	largeTSmallT	correct	congruent	0.86963	no	T	T
909.5927734	n/a	232855.75	responseLargeT	correct	n/a	0.86963	no	n/a	n/a
910.6567383	n/a	233128.125	largeTSmallH	correct	incongruent	0.53271	no	T	H
911.1894531	n/a	233264.5	responseLargeT	correct	n/a	0.53271	no	n/a	n/a
912.2700195	n/a	233541.125	largeTSmallT	correct	congruent	0.51709	no	T	T
912.7871094	n/a	233673.5	responseLargeT	correct	n/a	0.51709	no	n/a	n/a
913.8564453	n/a	233947.25	largeHSmallH	correct	congruent	0.63379	no	H	H
914.4902344	n/a	234109.5	responseLargeH	correct	n/a	0.63379	no	n/a	n/a
915.5629883	n/a	234384.125	largeHSmallT	correct	incongruent	0.4873	no	H	T
916.050293	n/a	234508.875	responseLargeH	correct	n/a	0.4873	no	n/a	n/a
917.1098633	n/a	234780.125	largeHSmallH	correct	congruent	0.65479	no	H	H
917.7646484	n/a	234947.75	responseLargeH	correct	n/a	0.65479	no	n/a	n/a
918.8295898	n/a	235220.375	largeHSmallH	correct	congruent	0.52637	no	H	H
919.355957	n/a	235355.125	responseLargeH	correct	n/a	0.52637	no	n/a	n/a
920.4296875	n/a	235630	largeTSmallT	correct	congruent	0.59814	no	T	T
921.027832	n/a	235783.125	responseLargeT	correct	n/a	0.59814	no	n/a	n/a
922.0961914	n/a	236056.625	largeHSmallT	error	incongruent	0.97998	no	H	T
923.0761719	n/a	236307.5	responseLargeT	error	n/a	0.97998	no	n/a	n/a
924.1494141	n/a	236582.25	largeHSmallT	error	incongruent	0.57227	no	H	T
924.7216797	n/a	236728.75	responseLargeT	error	n/a	0.57227	no	n/a	n/a
925.7895508	n/a	237002.125	largeHSmallT	correct	incongruent	0.69531	no	H	T
926.4848633	n/a	237180.125	responseLargeH	correct	n/a	0.69531	no	n/a	n/a
927.5493164	n/a	237452.625	largeTSmallT	correct	congruent	0.78711	no	T	T
928.3364258	n/a	237654.125	responseLargeT	correct	n/a	0.78711	no	n/a	n/a
929.4160156	n/a	237930.5	largeHSmallT	correct	incongruent	0.68652	no	H	T
930.1025391	n/a	238106.25	responseLargeH	correct	n/a	0.68652	no	n/a	n/a
931.1762695	n/a	238381.125	largeHSmallT	correct	incongruent	0.78613	no	H	T
931.9624023	n/a	238582.375	responseLargeH	correct	n/a	0.78613	no	n/a	n/a
933.0292969	n/a	238855.5	largeTSmallT	correct	congruent	0.74365	no	T	T
933.7729492	n/a	239045.875	responseLargeT	correct	n/a	0.74365	no	n/a	n/a
934.8427734	n/a	239319.75	largeTSmallH	correct	incongruent	0.63379	no	T	H
935.4765625	n/a	239482	responseLargeT	correct	n/a	0.63379	no	n/a	n/a
936.5498047	n/a	239756.75	largeHSmallH	correct	congruent	0.56348	no	H	H
937.1132812	n/a	239901	responseLargeH	correct	n/a	0.56348	no	n/a	n/a
938.1757812	n/a	240173	largeHSmallT	correct	incongruent	0.60205	no	H	T
938.777832	n/a	240327.125	responseLargeH	correct	n/a	0.60205	no	n/a	n/a
939.8422852	n/a	240599.625	largeHSmallH	correct	congruent	0.52148	no	H	H
940.3637695	n/a	240733.125	responseLargeH	correct	n/a	0.52148	no	n/a	n/a
941.4423828	n/a	241009.25	largeTSmallH	correct	incongruent	0.65674	no	T	H
942.0991211	n/a	241177.375	responseLargeT	correct	n/a	0.65674	no	n/a	n/a
943.1625977	n/a	241449.625	largeTSmallH	correct	incongruent	0.44824	no	T	H
943.6108398	n/a	241564.375	responseLargeT	correct	n/a	0.44824	no	n/a	n/a
944.6821289	n/a	241838.625	largeHSmallH	correct	congruent	0.5332	no	H	H
945.215332	n/a	241975.125	responseLargeH	correct	n/a	0.5332	no	n/a	n/a
946.2954102	n/a	242251.625	largeTSmallH	correct	incongruent	0.52295	no	T	H
946.8183594	n/a	242385.5	responseLargeT	correct	n/a	0.52295	no	n/a	n/a
947.8955078	n/a	242661.25	largeTSmallH	correct	incongruent	0.48096	no	T	H
948.3764648	n/a	242784.375	responseLargeT	correct	n/a	0.48096	no	n/a	n/a
949.4423828	n/a	243057.25	largeTSmallH	correct	incongruent	0.46777	no	T	H
949.9101562	n/a	243177	responseLargeT	correct	n/a	0.46777	no	n/a	n/a
950.9887695	n/a	243453.125	largeTSmallT	correct	congruent	0.44629	no	T	T
951.4350586	n/a	243567.375	responseLargeT	correct	n/a	0.44629	no	n/a	n/a
952.4956055	n/a	243838.875	largeHSmallT	correct	incongruent	0.56396	no	H	T
953.0595703	n/a	243983.25	responseLargeH	correct	n/a	0.56396	no	n/a	n/a
954.1352539	n/a	244258.625	largeTSmallT	correct	congruent	0.69629	no	T	T
954.831543	n/a	244436.875	responseLargeT	correct	n/a	0.69629	no	n/a	n/a
955.8955078	n/a	244709.25	largeHSmallT	correct	incongruent	0.49561	no	H	T
956.3911133	n/a	244836.125	responseLargeH	correct	n/a	0.49561	no	n/a	n/a
957.4550781	n/a	245108.5	largeTSmallH	correct	incongruent	0.65625	no	T	H
958.1113281	n/a	245276.5	responseLargeT	correct	n/a	0.65625	no	n/a	n/a
959.175293	n/a	245548.875	largeTSmallT	correct	congruent	0.61523	no	T	T
959.7905273	n/a	245706.375	responseLargeT	correct	n/a	0.61523	no	n/a	n/a
960.8554688	n/a	245979	largeHSmallT	correct	incongruent	0.47412	no	H	T
961.3295898	n/a	246100.375	responseLargeH	correct	n/a	0.47412	no	n/a	n/a
962.4018555	n/a	246374.875	largeTSmallT	correct	congruent	0.63818	no	T	T
963.0400391	n/a	246538.25	responseLargeT	correct	n/a	0.63818	no	n/a	n/a
964.1083984	n/a	246811.75	largeHSmallH	correct	congruent	0.85742	no	H	H
964.9658203	n/a	247031.25	responseLargeH	correct	n/a	0.85742	no	n/a	n/a
966.0415039	n/a	247306.625	largeTSmallT	correct	congruent	0.66211	no	T	T
966.7036133	n/a	247476.125	responseLargeT	correct	n/a	0.66211	no	n/a	n/a
967.7749023	n/a	247750.375	largeTSmallH	correct	incongruent	0.63379	no	T	H
968.4086914	n/a	247912.625	responseLargeT	correct	n/a	0.63379	no	n/a	n/a
969.4814453	n/a	248187.25	largeHSmallH	correct	congruent	0.49268	no	H	H
969.9741211	n/a	248313.375	responseLargeH	correct	n/a	0.49268	no	n/a	n/a
971.0415039	n/a	248586.625	largeTSmallH	error	incongruent	1.0522	no	T	H
972.09375	n/a	248856	responseLargeH	error	n/a	1.0522	no	n/a	n/a
973.1616211	n/a	249129.375	largeHSmallH	correct	congruent	0.86182	no	H	H
974.0234375	n/a	249350	responseLargeH	correct	n/a	0.86182	no	n/a	n/a
975.0820312	n/a	249621	largeHSmallH	error	congruent	0.41748	no	H	H
975.4995117	n/a	249727.875	responseLargeT	error	n/a	0.41748	no	n/a	n/a
976.574707	n/a	250003.125	largeHSmallT	correct	incongruent	1.2349	no	H	T
977.8095703	n/a	250319.25	responseLargeH	correct	n/a	1.2349	no	n/a	n/a
978.8813477	n/a	250593.625	largeTSmallH	correct	incongruent	0.60059	no	T	H
979.4819336	n/a	250747.375	responseLargeT	correct	n/a	0.60059	no	n/a	n/a
980.5478516	n/a	251020.25	largeHSmallT	correct	incongruent	0.74854	no	H	T
981.2963867	n/a	251211.875	responseLargeH	correct	n/a	0.74854	no	n/a	n/a
982.375	n/a	251488	largeTSmallH	correct	incongruent	0.50049	no	T	H
982.8754883	n/a	251616.125	responseLargeT	correct	n/a	0.50049	no	n/a	n/a
983.9477539	n/a	251890.625	largeHSmallT	correct	incongruent	0.59326	no	H	T
984.5410156	n/a	252042.5	responseLargeH	correct	n/a	0.59326	no	n/a	n/a
985.6147461	n/a	252317.375	largeHSmallH	correct	congruent	0.69873	no	H	H
986.3134766	n/a	252496.25	responseLargeH	correct	n/a	0.69873	no	n/a	n/a
987.3745117	n/a	252767.875	largeTSmallT	correct	congruent	0.58008	no	T	T
987.9545898	n/a	252916.375	responseLargeT	correct	n/a	0.58008	no	n/a	n/a
989.027832	n/a	253191.125	largeTSmallH	correct	incongruent	0.64404	no	T	H
989.671875	n/a	253356	responseLargeT	correct	n/a	0.64404	no	n/a	n/a
990.7475586	n/a	253631.375	largeHSmallH	correct	congruent	0.68799	no	H	H
991.4355469	n/a	253807.5	responseLargeH	correct	n/a	0.68799	no	n/a	n/a
992.5078125	n/a	254082	largeHSmallT	correct	incongruent	0.56934	no	H	T
993.0771484	n/a	254227.75	responseLargeH	correct	n/a	0.56934	no	n/a	n/a
994.1474609	n/a	254501.75	largeTSmallH	correct	incongruent	0.58057	no	T	H
994.7280273	n/a	254650.375	responseLargeT	correct	n/a	0.58057	no	n/a	n/a
995.8012695	n/a	254925.125	largeHSmallH	correct	congruent	1.604	yes	H	H
997.4052734	n/a	255335.75	responseLargeH	correct	n/a	1.604	yes	n/a	n/a
998.4677734	n/a	255607.75	largeHSmallT	correct	incongruent	0.51465	no	H	T
998.9824219	n/a	255739.5	responseLargeH	correct	n/a	0.51465	no	n/a	n/a
1000.041504	n/a	256010.625	largeHSmallT	correct	incongruent	0.4834	no	H	T
1000.524902	n/a	256134.375	responseLargeH	correct	n/a	0.4834	no	n/a	n/a
1001.587402	n/a	256406.375	largeHSmallH	correct	congruent	0.53662	no	H	H
1002.124023	n/a	256543.75	responseLargeH	correct	n/a	0.53662	no	n/a	n/a
1003.200684	n/a	256819.375	largeTSmallH	correct	incongruent	0.53564	no	T	H
1003.736328	n/a	256956.5	responseLargeT	correct	n/a	0.53564	no	n/a	n/a
1004.802246	n/a	257229.375	largeTSmallT	correct	congruent	0.5249	no	T	T
1005.327148	n/a	257363.75	responseLargeT	correct	n/a	0.5249	no	n/a	n/a
1006.400879	n/a	257638.625	largeHSmallH	correct	congruent	0.62305	no	H	H
1007.023926	n/a	257798.125	responseLargeH	correct	n/a	0.62305	no	n/a	n/a
1008.094238	n/a	258072.125	largeHSmallT	correct	incongruent	0.60107	no	H	T
1008.695312	n/a	258226	responseLargeH	correct	n/a	0.60107	no	n/a	n/a
1009.760742	n/a	258498.75	largeHSmallT	correct	incongruent	0.47412	no	H	T
1010.234863	n/a	258620.125	responseLargeH	correct	n/a	0.47412	no	n/a	n/a
1011.307129	n/a	258894.625	largeTSmallH	correct	incongruent	1.0103	no	T	H
1012.317383	n/a	259153.25	responseLargeT	correct	n/a	1.0103	no	n/a	n/a
1013.387207	n/a	259427.125	largeHSmallT	correct	incongruent	0.54053	no	H	T
1013.927734	n/a	259565.5	responseLargeH	correct	n/a	0.54053	no	n/a	n/a
1014.987305	n/a	259836.75	largeTSmallT	correct	congruent	1.3945	no	T	T
1016.381836	n/a	260193.75	responseLargeT	correct	n/a	1.3945	no	n/a	n/a
1017.453613	n/a	260468.125	largeHSmallT	correct	incongruent	1.4316	no	H	T
1018.885254	n/a	260834.625	responseLargeH	correct	n/a	1.4316	no	n/a	n/a
1019.947266	n/a	261106.5	largeTSmallH	correct	incongruent	0.57666	no	T	H
1020.523926	n/a	261254.125	responseLargeT	correct	n/a	0.57666	no	n/a	n/a
1021.586914	n/a	261526.25	largeTSmallT	correct	congruent	0.78516	no	T	T
1022.37207	n/a	261727.25	responseLargeT	correct	n/a	0.78516	no	n/a	n/a
1023.44043	n/a	262000.75	largeTSmallH	correct	incongruent	0.58838	no	T	H
1024.028809	n/a	262151.375	responseLargeT	correct	n/a	0.58838	no	n/a	n/a
1025.093262	n/a	262423.875	largeTSmallH	correct	incongruent	0.53906	no	T	H
1025.632324	n/a	262561.875	responseLargeT	correct	n/a	0.53906	no	n/a	n/a
1026.707031	n/a	262837	largeTSmallH	correct	incongruent	0.66455	no	T	H
1027.371582	n/a	263007.125	responseLargeT	correct	n/a	0.66455	no	n/a	n/a
1028.439453	n/a	263280.5	largeTSmallH	correct	incongruent	0.68652	no	T	H
1029.125977	n/a	263456.25	responseLargeT	correct	n/a	0.68652	no	n/a	n/a
1030.200195	n/a	263731.25	largeTSmallH	correct	incongruent	0.43604	no	T	H
1030.63623	n/a	263842.875	responseLargeT	correct	n/a	0.43604	no	n/a	n/a
1031.693359	n/a	264113.5	largeTSmallH	correct	incongruent	0.48047	no	T	H
1032.173828	n/a	264236.5	responseLargeT	correct	n/a	0.48047	no	n/a	n/a
1033.239746	n/a	264509.375	largeTSmallT	correct	congruent	0.57275	no	T	T
1033.8125	n/a	264656	responseLargeT	correct	n/a	0.57275	no	n/a	n/a
1034.879883	n/a	264929.25	largeTSmallH	correct	incongruent	0.49561	no	T	H
1035.375488	n/a	265056.125	responseLargeT	correct	n/a	0.49561	no	n/a	n/a
1039.119629	n/a	266014.625	largeTSmallT	correct	congruent	0.75781	no	T	T
1039.877441	n/a	266208.625	responseSmallT	correct	n/a	0.75781	no	n/a	n/a
1040.946777	n/a	266482.375	largeHSmallT	correct	incongruent	0.55518	no	H	T
1041.501953	n/a	266624.5	responseSmallT	correct	n/a	0.55518	no	n/a	n/a
1042.573242	n/a	266898.75	largeTSmallT	correct	congruent	0.43213	no	T	T
1043.005371	n/a	267009.375	responseSmallT	correct	n/a	0.43213	no	n/a	n/a
1044.066406	n/a	267281	largeHSmallH	correct	congruent	0.50635	no	H	H
1044.572754	n/a	267410.625	responseSmallH	correct	n/a	0.50635	no	n/a	n/a
1045.652832	n/a	267687.125	largeTSmallH	correct	incongruent	0.5293	no	T	H
1046.182129	n/a	267822.625	responseSmallH	correct	n/a	0.5293	no	n/a	n/a
1047.25293	n/a	268096.75	largeHSmallH	correct	congruent	0.55908	no	H	H
1047.812012	n/a	268239.875	responseSmallH	correct	n/a	0.55908	no	n/a	n/a
1048.879395	n/a	268513.125	largeHSmallH	correct	congruent	0.4707	no	H	H
1049.350098	n/a	268633.625	responseSmallH	correct	n/a	0.4707	no	n/a	n/a
1050.42627	n/a	268909.125	largeHSmallT	correct	incongruent	0.59229	no	H	T
1051.018555	n/a	269060.75	responseSmallT	correct	n/a	0.59229	no	n/a	n/a
1052.092773	n/a	269335.75	largeHSmallH	correct	congruent	0.4917	no	H	H
1052.584473	n/a	269461.625	responseSmallH	correct	n/a	0.4917	no	n/a	n/a
1053.652832	n/a	269735.125	largeTSmallH	correct	incongruent	0.47461	no	T	H
1054.127441	n/a	269856.625	responseSmallH	correct	n/a	0.47461	no	n/a	n/a
1055.199219	n/a	270131	largeHSmallT	correct	incongruent	0.56396	no	H	T
1055.763184	n/a	270275.375	responseSmallT	correct	n/a	0.56396	no	n/a	n/a
1056.825684	n/a	270547.375	largeHSmallT	correct	incongruent	0.5166	no	H	T
1057.342285	n/a	270679.625	responseSmallT	correct	n/a	0.5166	no	n/a	n/a
1058.399414	n/a	270950.25	largeHSmallH	correct	congruent	0.52197	no	H	H
1058.921387	n/a	271083.875	responseSmallH	correct	n/a	0.52197	no	n/a	n/a
1059.999023	n/a	271359.75	largeHSmallH	correct	congruent	0.50244	no	H	H
1060.501465	n/a	271488.375	responseSmallH	correct	n/a	0.50244	no	n/a	n/a
1061.572754	n/a	271762.625	largeHSmallT	correct	incongruent	0.49219	no	H	T
1062.064941	n/a	271888.625	responseSmallT	correct	n/a	0.49219	no	n/a	n/a
1063.132324	n/a	272161.875	largeHSmallT	correct	incongruent	0.49121	no	H	T
1063.623535	n/a	272287.625	responseSmallT	correct	n/a	0.49121	no	n/a	n/a
1064.692383	n/a	272561.25	largeTSmallH	correct	incongruent	0.49316	no	T	H
1065.185547	n/a	272687.5	responseSmallH	correct	n/a	0.49316	no	n/a	n/a
1066.252441	n/a	272960.625	largeHSmallT	correct	incongruent	0.56494	no	H	T
1066.817383	n/a	273105.25	responseSmallT	correct	n/a	0.56494	no	n/a	n/a
1067.892578	n/a	273380.5	largeTSmallT	correct	congruent	0.57715	no	T	T
1068.469727	n/a	273528.25	responseSmallT	correct	n/a	0.57715	no	n/a	n/a
1069.54541	n/a	273803.625	largeTSmallT	correct	congruent	0.57764	no	T	T
1070.123047	n/a	273951.5	responseSmallT	correct	n/a	0.57764	no	n/a	n/a
1071.199219	n/a	274227	largeHSmallT	correct	incongruent	0.69727	no	H	T
1071.896484	n/a	274405.5	responseSmallT	correct	n/a	0.69727	no	n/a	n/a
1072.958984	n/a	274677.5	largeTSmallT	correct	congruent	0.55713	no	T	T
1073.516113	n/a	274820.125	responseSmallT	correct	n/a	0.55713	no	n/a	n/a
1074.585449	n/a	275093.875	largeTSmallH	correct	incongruent	0.64307	no	T	H
1075.228516	n/a	275258.5	responseSmallH	correct	n/a	0.64307	no	n/a	n/a
1076.305664	n/a	275534.25	largeHSmallH	correct	congruent	0.58984	no	H	H
1076.895508	n/a	275685.25	responseSmallH	correct	n/a	0.58984	no	n/a	n/a
1077.972168	n/a	275960.875	largeHSmallH	correct	congruent	0.55811	no	H	H
1078.530273	n/a	276103.75	responseSmallH	correct	n/a	0.55811	no	n/a	n/a
1079.612305	n/a	276380.75	largeHSmallH	correct	congruent	0.52783	no	H	H
1080.140137	n/a	276515.875	responseSmallH	correct	n/a	0.52783	no	n/a	n/a
1081.211914	n/a	276790.25	largeTSmallT	correct	congruent	0.62598	no	T	T
1081.837891	n/a	276950.5	responseSmallT	correct	n/a	0.62598	no	n/a	n/a
1082.918945	n/a	277227.25	largeTSmallH	correct	incongruent	0.58887	no	T	H
1083.507812	n/a	277378	responseSmallH	correct	n/a	0.58887	no	n/a	n/a
1084.585449	n/a	277653.875	largeTSmallT	correct	congruent	0.62549	no	T	T
1085.210938	n/a	277814	responseSmallT	correct	n/a	0.62549	no	n/a	n/a
1086.278809	n/a	278087.375	largeHSmallT	correct	incongruent	0.57568	no	H	T
1086.854492	n/a	278234.75	responseSmallT	correct	n/a	0.57568	no	n/a	n/a
1087.918457	n/a	278507.125	largeHSmallT	correct	incongruent	0.57129	no	H	T
1088.489746	n/a	278653.375	responseSmallT	correct	n/a	0.57129	no	n/a	n/a
1089.558594	n/a	278927	largeHSmallT	correct	incongruent	0.56104	no	H	T
1090.119629	n/a	279070.625	responseSmallT	correct	n/a	0.56104	no	n/a	n/a
1091.185059	n/a	279343.375	largeHSmallH	correct	congruent	0.65186	no	H	H
1091.836914	n/a	279510.25	responseSmallH	correct	n/a	0.65186	no	n/a	n/a
1092.918457	n/a	279787.125	largeTSmallH	correct	incongruent	0.51367	no	T	H
1093.432129	n/a	279918.625	responseSmallH	correct	n/a	0.51367	no	n/a	n/a
1094.504883	n/a	280193.25	largeHSmallH	correct	congruent	0.5166	no	H	H
1095.021484	n/a	280325.5	responseSmallH	correct	n/a	0.5166	no	n/a	n/a
1096.091797	n/a	280599.5	largeTSmallT	correct	congruent	0.55518	no	T	T
1096.646973	n/a	280741.625	responseSmallT	correct	n/a	0.55518	no	n/a	n/a
1097.718262	n/a	281015.875	largeTSmallT	correct	congruent	0.56592	no	T	T
1098.28418	n/a	281160.75	responseSmallT	correct	n/a	0.56592	no	n/a	n/a
1099.358398	n/a	281435.75	largeHSmallT	correct	incongruent	0.60303	no	H	T
1099.961426	n/a	281590.125	responseSmallT	correct	n/a	0.60303	no	n/a	n/a
1101.024902	n/a	281862.375	largeTSmallT	correct	congruent	0.479	no	T	T
1101.503906	n/a	281985	responseSmallT	correct	n/a	0.479	no	n/a	n/a
1102.571289	n/a	282258.25	largeHSmallH	correct	congruent	0.56055	no	H	H
1103.131836	n/a	282401.75	responseSmallH	correct	n/a	0.56055	no	n/a	n/a
1104.211426	n/a	282678.125	largeHSmallT	correct	incongruent	0.99219	no	H	T
1105.203613	n/a	282932.125	responseSmallT	correct	n/a	0.99219	no	n/a	n/a
1106.264648	n/a	283203.75	largeTSmallT	correct	congruent	0.57568	no	T	T
1106.840332	n/a	283351.125	responseSmallT	correct	n/a	0.57568	no	n/a	n/a
1107.904297	n/a	283623.5	largeTSmallH	correct	incongruent	0.57373	no	T	H
1108.478027	n/a	283770.375	responseSmallH	correct	n/a	0.57373	no	n/a	n/a
1109.544434	n/a	284043.375	largeHSmallH	correct	congruent	0.73096	no	H	H
1110.275391	n/a	284230.5	responseSmallH	correct	n/a	0.73096	no	n/a	n/a
1111.35791	n/a	284507.625	largeTSmallH	correct	incongruent	0.59863	no	T	H
1111.956543	n/a	284660.875	responseSmallH	correct	n/a	0.59863	no	n/a	n/a
1113.024414	n/a	284934.25	largeHSmallH	correct	congruent	0.53516	no	H	H
1113.55957	n/a	285071.25	responseSmallH	correct	n/a	0.53516	no	n/a	n/a
1114.624512	n/a	285343.875	largeHSmallH	correct	congruent	0.52832	no	H	H
1115.152832	n/a	285479.125	responseSmallH	correct	n/a	0.52832	no	n/a	n/a
1116.224609	n/a	285753.5	largeHSmallH	correct	congruent	0.53271	no	H	H
1116.757324	n/a	285889.875	responseSmallH	correct	n/a	0.53271	no	n/a	n/a
1117.824219	n/a	286163	largeHSmallH	correct	congruent	0.49219	no	H	H
1118.316406	n/a	286289	responseSmallH	correct	n/a	0.49219	no	n/a	n/a
1119.384277	n/a	286562.375	largeTSmallT	correct	congruent	0.55615	no	T	T
1119.94043	n/a	286704.75	responseSmallT	correct	n/a	0.55615	no	n/a	n/a
1121.010742	n/a	286978.75	largeTSmallH	correct	incongruent	0.57471	no	T	H
1121.585449	n/a	287125.875	responseSmallH	correct	n/a	0.57471	no	n/a	n/a
1122.664551	n/a	287402.125	largeHSmallT	correct	incongruent	0.80078	no	H	T
1123.465332	n/a	287607.125	responseSmallT	correct	n/a	0.80078	no	n/a	n/a
1124.530762	n/a	287879.875	largeHSmallT	correct	incongruent	0.62793	no	H	T
1125.158691	n/a	288040.625	responseSmallT	correct	n/a	0.62793	no	n/a	n/a
1126.237305	n/a	288316.75	largeTSmallH	correct	incongruent	0.59473	no	T	H
1126.832031	n/a	288469	responseSmallH	correct	n/a	0.59473	no	n/a	n/a
1127.904297	n/a	288743.5	largeTSmallH	correct	incongruent	0.91846	no	T	H
1128.822754	n/a	288978.625	responseSmallH	correct	n/a	0.91846	no	n/a	n/a
1129.890625	n/a	289252	largeHSmallH	correct	congruent	0.56201	no	H	H
1130.452637	n/a	289395.875	responseSmallH	correct	n/a	0.56201	no	n/a	n/a
1131.517578	n/a	289668.5	largeHSmallH	correct	congruent	0.56934	no	H	H
1132.086914	n/a	289814.25	responseSmallH	correct	n/a	0.56934	no	n/a	n/a
1133.157227	n/a	290088.25	largeHSmallT	correct	incongruent	0.69824	no	H	T
1133.855469	n/a	290267	responseSmallT	correct	n/a	0.69824	no	n/a	n/a
1134.930664	n/a	290542.25	largeHSmallH	correct	congruent	0.69775	no	H	H
1135.628418	n/a	290720.875	responseSmallH	correct	n/a	0.69775	no	n/a	n/a
1136.703613	n/a	290996.125	largeTSmallH	correct	incongruent	0.66016	no	T	H
1137.36377	n/a	291165.125	responseSmallH	correct	n/a	0.66016	no	n/a	n/a
1138.437012	n/a	291439.875	largeHSmallT	correct	incongruent	0.66748	no	H	T
1139.104492	n/a	291610.75	responseSmallT	correct	n/a	0.66748	no	n/a	n/a
1140.183594	n/a	291887	largeHSmallT	correct	incongruent	0.76318	no	H	T
1140.946777	n/a	292082.375	responseSmallT	correct	n/a	0.76318	no	n/a	n/a
1142.023438	n/a	292358	largeTSmallH	correct	incongruent	0.51123	no	T	H
1142.534668	n/a	292488.875	responseSmallH	correct	n/a	0.51123	no	n/a	n/a
1143.59668	n/a	292760.75	largeTSmallT	correct	congruent	0.53906	no	T	T
1144.135742	n/a	292898.75	responseSmallT	correct	n/a	0.53906	no	n/a	n/a
1145.210449	n/a	293173.875	largeHSmallT	correct	incongruent	0.6626	no	H	T
1145.873047	n/a	293343.5	responseSmallT	correct	n/a	0.6626	no	n/a	n/a
1146.930176	n/a	293614.125	largeHSmallH	correct	congruent	0.58936	no	H	H
1147.519531	n/a	293765	responseSmallH	correct	n/a	0.58936	no	n/a	n/a
1148.583496	n/a	294037.375	largeTSmallT	correct	congruent	0.64697	no	T	T
1149.230469	n/a	294203	responseSmallT	correct	n/a	0.64697	no	n/a	n/a
1150.303223	n/a	294477.625	largeHSmallH	correct	congruent	0.67285	no	H	H
1150.976074	n/a	294649.875	responseSmallH	correct	n/a	0.67285	no	n/a	n/a
1152.050293	n/a	294924.875	largeTSmallH	correct	incongruent	0.65674	no	T	H
1152.707031	n/a	295093	responseSmallH	correct	n/a	0.65674	no	n/a	n/a
1153.77002	n/a	295365.125	largeTSmallH	correct	incongruent	0.58887	no	T	H
1154.358887	n/a	295515.875	responseSmallH	correct	n/a	0.58887	no	n/a	n/a
1155.42334	n/a	295788.375	largeTSmallH	correct	incongruent	0.57324	no	T	H
1155.996582	n/a	295935.125	responseSmallH	correct	n/a	0.57324	no	n/a	n/a
1157.063477	n/a	296208.25	largeTSmallT	correct	congruent	0.63867	no	T	T
1157.702148	n/a	296371.75	responseSmallT	correct	n/a	0.63867	no	n/a	n/a
1158.783203	n/a	296648.5	largeHSmallH	correct	congruent	0.59473	no	H	H
1159.37793	n/a	296800.75	responseSmallH	correct	n/a	0.59473	no	n/a	n/a
1160.449707	n/a	297075.125	largeTSmallH	correct	incongruent	0.64697	no	T	H
1161.09668	n/a	297240.75	responseSmallH	correct	n/a	0.64697	no	n/a	n/a
1162.169922	n/a	297515.5	largeTSmallT	correct	congruent	0.75146	no	T	T
1162.921387	n/a	297707.875	responseSmallT	correct	n/a	0.75146	no	n/a	n/a
1163.983398	n/a	297979.75	largeHSmallT	correct	incongruent	0.73242	no	H	T
1164.71582	n/a	298167.25	responseSmallT	correct	n/a	0.73242	no	n/a	n/a
1165.783203	n/a	298440.5	largeTSmallH	correct	incongruent	0.59277	no	T	H
1166.375977	n/a	298592.25	responseSmallH	correct	n/a	0.59277	no	n/a	n/a
1167.449707	n/a	298867.125	largeHSmallT	correct	incongruent	0.64209	no	H	T
1168.091797	n/a	299031.5	responseSmallT	correct	n/a	0.64209	no	n/a	n/a
1169.169434	n/a	299307.375	largeTSmallH	correct	incongruent	0.65869	no	T	H
1169.828125	n/a	299476	responseSmallH	correct	n/a	0.65869	no	n/a	n/a
1170.902832	n/a	299751.125	largeTSmallH	correct	incongruent	0.61572	no	T	H
1171.518555	n/a	299908.75	responseSmallH	correct	n/a	0.61572	no	n/a	n/a
1172.583008	n/a	300181.25	largeTSmallT	correct	congruent	0.67139	no	T	T
1173.254395	n/a	300353.125	responseSmallT	correct	n/a	0.67139	no	n/a	n/a
1174.32959	n/a	300628.375	largeTSmallT	correct	congruent	0.67334	no	T	T
1175.00293	n/a	300800.75	responseSmallT	correct	n/a	0.67334	no	n/a	n/a
1176.076172	n/a	301075.5	largeHSmallH	correct	congruent	1.0264	no	H	H
1177.102539	n/a	301338.25	responseSmallH	correct	n/a	1.0264	no	n/a	n/a
1178.169434	n/a	301611.375	largeTSmallT	correct	congruent	0.61426	no	T	T
1178.783691	n/a	301768.625	responseSmallT	correct	n/a	0.61426	no	n/a	n/a
1179.849609	n/a	302041.5	largeTSmallH	correct	incongruent	0.56445	no	T	H
1180.414062	n/a	302186	responseSmallH	correct	n/a	0.56445	no	n/a	n/a
1181.489258	n/a	302461.25	largeTSmallT	correct	congruent	0.61768	no	T	T
1182.106934	n/a	302619.375	responseSmallT	correct	n/a	0.61768	no	n/a	n/a
1183.182617	n/a	302894.75	largeHSmallH	correct	congruent	0.59424	no	H	H
1183.776855	n/a	303046.875	responseSmallH	correct	n/a	0.59424	no	n/a	n/a
1184.849121	n/a	303321.375	largeHSmallH	correct	congruent	0.56006	no	H	H
1185.40918	n/a	303464.75	responseSmallH	correct	n/a	0.56006	no	n/a	n/a
1186.489258	n/a	303741.25	largeTSmallH	correct	incongruent	0.55762	no	T	H
1187.046875	n/a	303884	responseSmallH	correct	n/a	0.55762	no	n/a	n/a
1188.129395	n/a	304161.125	largeTSmallH	correct	incongruent	0.55615	no	T	H
1188.685547	n/a	304303.5	responseSmallH	correct	n/a	0.55615	no	n/a	n/a
1189.755859	n/a	304577.5	largeTSmallH	correct	incongruent	0.49854	no	T	H
1190.254395	n/a	304705.125	responseSmallH	correct	n/a	0.49854	no	n/a	n/a
1191.315918	n/a	304976.875	largeTSmallT	correct	congruent	0.66162	no	T	T
1191.977539	n/a	305146.25	responseSmallT	correct	n/a	0.66162	no	n/a	n/a
1193.048828	n/a	305420.5	largeTSmallT	correct	congruent	0.5918	no	T	T
1193.640625	n/a	305572	responseSmallT	correct	n/a	0.5918	no	n/a	n/a
1194.702637	n/a	305843.875	largeHSmallH	correct	congruent	0.73193	no	H	H
1195.43457	n/a	306031.25	responseSmallH	correct	n/a	0.73193	no	n/a	n/a
1196.501953	n/a	306304.5	largeHSmallH	correct	congruent	0.5293	no	H	H
