onset	duration	sample	value	response_type	congruence	response_time	response_out_of_range	largeletter	smallletter
14.3125	n/a	3664	largeTSmallT	correct	congruent	1.5898	yes	T	T
15.90234375	n/a	4071	responseLargeT	correct	n/a	1.5898	yes	n/a	n/a
16.9765625	n/a	4346	largeHSmallT	correct	incongruent	0.78906	no	H	T
17.765625	n/a	4548	responseLargeH	correct	n/a	0.78906	no	n/a	n/a
18.83203125	n/a	4821	largeHSmallT	correct	incongruent	0.74609	no	H	T
19.578125	n/a	5012	responseLargeH	correct	n/a	0.74609	no	n/a	n/a
20.64453125	n/a	5285	largeTSmallH	correct	incongruent	0.58594	no	T	H
21.23046875	n/a	5435	responseLargeT	correct	n/a	0.58594	no	n/a	n/a
22.296875	n/a	5708	largeHSmallT	correct	incongruent	0.55469	no	H	T
22.8515625	n/a	5850	responseLargeH	correct	n/a	0.55469	no	n/a	n/a
23.92578125	n/a	6125	largeHSmallH	correct	congruent	0.49219	no	H	H
24.41796875	n/a	6251	responseLargeH	correct	n/a	0.49219	no	n/a	n/a
25.5	n/a	6528	largeHSmallT	correct	incongruent	0.57031	no	H	T
26.0703125	n/a	6674	responseLargeH	correct	n/a	0.57031	no	n/a	n/a
27.15234375	n/a	6951	largeHSmallH	correct	congruent	0.55078	no	H	H
27.703125	n/a	7092	responseLargeH	correct	n/a	0.55078	no	n/a	n/a
28.765625	n/a	7364	largeHSmallT	correct	incongruent	0.50781	no	H	T
29.2734375	n/a	7494	responseLargeH	correct	n/a	0.50781	no	n/a	n/a
30.3515625	n/a	7770	largeHSmallH	correct	congruent	0.64062	no	H	H
30.9921875	n/a	7934	responseLargeH	correct	n/a	0.64062	no	n/a	n/a
32.05859375	n/a	8207	largeTSmallH	correct	incongruent	0.60938	no	T	H
32.66796875	n/a	8363	responseLargeT	correct	n/a	0.60938	no	n/a	n/a
33.75	n/a	8640	largeTSmallH	correct	incongruent	0.54297	no	T	H
34.29296875	n/a	8779	responseLargeT	correct	n/a	0.54297	no	n/a	n/a
35.36328125	n/a	9053	largeTSmallH	correct	incongruent	0.51562	no	T	H
35.87890625	n/a	9185	responseLargeT	correct	n/a	0.51562	no	n/a	n/a
36.94921875	n/a	9459	largeHSmallH	correct	congruent	0.56641	no	H	H
37.515625	n/a	9604	responseLargeH	correct	n/a	0.56641	no	n/a	n/a
38.578125	n/a	9876	largeHSmallT	correct	incongruent	0.46094	no	H	T
39.0390625	n/a	9994	responseLargeH	correct	n/a	0.46094	no	n/a	n/a
40.109375	n/a	10268	largeTSmallH	correct	incongruent	0.55469	no	T	H
40.6640625	n/a	10410	responseLargeT	correct	n/a	0.55469	no	n/a	n/a
41.73828125	n/a	10685	largeTSmallH	correct	incongruent	0.69141	no	T	H
42.4296875	n/a	10862	responseLargeT	correct	n/a	0.69141	no	n/a	n/a
43.49609375	n/a	11135	largeHSmallH	correct	congruent	0.52734	no	H	H
44.0234375	n/a	11270	responseLargeH	correct	n/a	0.52734	no	n/a	n/a
45.0859375	n/a	11542	largeTSmallT	correct	congruent	0.61719	no	T	T
45.703125	n/a	11700	responseLargeT	correct	n/a	0.61719	no	n/a	n/a
46.77734375	n/a	11975	largeHSmallT	correct	incongruent	0.51953	no	H	T
47.296875	n/a	12108	responseLargeH	correct	n/a	0.51953	no	n/a	n/a
48.36328125	n/a	12381	largeTSmallT	correct	congruent	0.58203	no	T	T
48.9453125	n/a	12530	responseLargeT	correct	n/a	0.58203	no	n/a	n/a
50.015625	n/a	12804	largeHSmallT	correct	incongruent	0.62109	no	H	T
50.63671875	n/a	12963	responseLargeH	correct	n/a	0.62109	no	n/a	n/a
51.69921875	n/a	13235	largeTSmallT	correct	congruent	0.53906	no	T	T
52.23828125	n/a	13373	responseLargeT	correct	n/a	0.53906	no	n/a	n/a
53.3125	n/a	13648	largeHSmallH	correct	congruent	0.66406	no	H	H
53.9765625	n/a	13818	responseLargeH	correct	n/a	0.66406	no	n/a	n/a
55.05859375	n/a	14095	largeTSmallT	correct	congruent	0.69531	no	T	T
55.75390625	n/a	14273	responseLargeT	correct	n/a	0.69531	no	n/a	n/a
56.81640625	n/a	14545	largeHSmallT	correct	incongruent	0.53906	no	H	T
57.35546875	n/a	14683	responseLargeH	correct	n/a	0.53906	no	n/a	n/a
58.4296875	n/a	14958	largeTSmallT	correct	congruent	0.54297	no	T	T
58.97265625	n/a	15097	responseLargeT	correct	n/a	0.54297	no	n/a	n/a
60.04296875	n/a	15371	largeHSmallT	correct	incongruent	0.58984	no	H	T
60.6328125	n/a	15522	responseLargeH	correct	n/a	0.58984	no	n/a	n/a
61.6953125	n/a	15794	largeTSmallH	correct	incongruent	0.48828	no	T	H
62.18359375	n/a	15919	responseLargeT	correct	n/a	0.48828	no	n/a	n/a
63.2578125	n/a	16194	largeTSmallT	correct	congruent	0.58594	no	T	T
63.84375	n/a	16344	responseLargeT	correct	n/a	0.58594	no	n/a	n/a
64.91015625	n/a	16617	largeHSmallT	correct	incongruent	0.48828	no	H	T
65.3984375	n/a	16742	responseLargeH	correct	n/a	0.48828	no	n/a	n/a
66.46875	n/a	17016	largeTSmallH	correct	incongruent	0.66797	no	T	H
67.13671875	n/a	17187	responseLargeT	correct	n/a	0.66797	no	n/a	n/a
68.203125	n/a	17460	largeHSmallH	correct	congruent	0.46484	no	H	H
68.66796875	n/a	17579	responseLargeH	correct	n/a	0.46484	no	n/a	n/a
69.73828125	n/a	17853	largeTSmallT	correct	congruent	0.67188	no	T	T
70.41015625	n/a	18025	responseLargeT	correct	n/a	0.67188	no	n/a	n/a
71.484375	n/a	18300	largeHSmallH	correct	congruent	0.50781	no	H	H
71.9921875	n/a	18430	responseLargeH	correct	n/a	0.50781	no	n/a	n/a
73.05859375	n/a	18703	largeHSmallH	correct	congruent	0.64062	no	H	H
73.69921875	n/a	18867	responseLargeH	correct	n/a	0.64062	no	n/a	n/a
74.77734375	n/a	19143	largeHSmallT	correct	incongruent	0.51562	no	H	T
75.29296875	n/a	19275	responseLargeH	correct	n/a	0.51562	no	n/a	n/a
76.36328125	n/a	19549	largeTSmallT	correct	congruent	0.58203	no	T	T
76.9453125	n/a	19698	responseLargeT	correct	n/a	0.58203	no	n/a	n/a
78.015625	n/a	19972	largeTSmallT	correct	congruent	0.65625	no	T	T
78.671875	n/a	20140	responseLargeT	correct	n/a	0.65625	no	n/a	n/a
79.73828125	n/a	20413	largeTSmallH	correct	incongruent	0.79688	no	T	H
80.53515625	n/a	20617	responseLargeT	correct	n/a	0.79688	no	n/a	n/a
81.6015625	n/a	20890	largeTSmallH	correct	incongruent	0.55078	no	T	H
82.15234375	n/a	21031	responseLargeT	correct	n/a	0.55078	no	n/a	n/a
83.23046875	n/a	21307	largeHSmallH	correct	congruent	0.73047	no	H	H
83.9609375	n/a	21494	responseLargeH	correct	n/a	0.73047	no	n/a	n/a
85.03125	n/a	21768	largeTSmallT	correct	congruent	0.62891	no	T	T
85.66015625	n/a	21929	responseLargeT	correct	n/a	0.62891	no	n/a	n/a
86.73828125	n/a	22205	largeHSmallH	correct	congruent	0.50781	no	H	H
87.24609375	n/a	22335	responseLargeH	correct	n/a	0.50781	no	n/a	n/a
88.30859375	n/a	22607	largeTSmallH	correct	incongruent	0.52344	no	T	H
88.83203125	n/a	22741	responseLargeT	correct	n/a	0.52344	no	n/a	n/a
89.91015625	n/a	23017	largeTSmallH	correct	incongruent	0.75391	no	T	H
90.6640625	n/a	23210	responseLargeT	correct	n/a	0.75391	no	n/a	n/a
91.73828125	n/a	23485	largeTSmallT	correct	congruent	0.66016	no	T	T
92.3984375	n/a	23654	responseLargeT	correct	n/a	0.66016	no	n/a	n/a
93.45703125	n/a	23925	largeTSmallH	correct	incongruent	0.55469	no	T	H
94.01171875	n/a	24067	responseLargeT	correct	n/a	0.55469	no	n/a	n/a
95.08203125	n/a	24341	largeHSmallH	correct	congruent	0.53516	no	H	H
95.6171875	n/a	24478	responseLargeH	correct	n/a	0.53516	no	n/a	n/a
96.6953125	n/a	24754	largeHSmallH	correct	congruent	0.77734	no	H	H
97.47265625	n/a	24953	responseLargeH	correct	n/a	0.77734	no	n/a	n/a
98.55078125	n/a	25229	largeTSmallH	correct	incongruent	0.71094	no	T	H
99.26171875	n/a	25411	responseLargeT	correct	n/a	0.71094	no	n/a	n/a
100.3242188	n/a	25683	largeHSmallH	correct	congruent	0.73438	no	H	H
101.0585938	n/a	25871	responseLargeH	correct	n/a	0.73438	no	n/a	n/a
102.1367188	n/a	26147	largeHSmallT	correct	incongruent	0.65234	no	H	T
102.7890625	n/a	26314	responseLargeH	correct	n/a	0.65234	no	n/a	n/a
103.8554688	n/a	26587	largeTSmallT	correct	congruent	0.57031	no	T	T
104.4257812	n/a	26733	responseLargeT	correct	n/a	0.57031	no	n/a	n/a
105.4960938	n/a	27007	largeTSmallT	correct	congruent	0.67188	no	T	T
106.1679688	n/a	27179	responseLargeT	correct	n/a	0.67188	no	n/a	n/a
107.2421875	n/a	27454	largeTSmallT	correct	congruent	0.49219	no	T	T
107.734375	n/a	27580	responseLargeT	correct	n/a	0.49219	no	n/a	n/a
108.8046875	n/a	27854	largeHSmallT	correct	incongruent	0.55859	no	H	T
109.3632812	n/a	27997	responseLargeH	correct	n/a	0.55859	no	n/a	n/a
110.4414062	n/a	28273	largeHSmallT	correct	incongruent	0.52734	no	H	T
110.96875	n/a	28408	responseLargeH	correct	n/a	0.52734	no	n/a	n/a
112.0429688	n/a	28683	largeHSmallH	correct	congruent	0.57031	no	H	H
112.6132812	n/a	28829	responseLargeH	correct	n/a	0.57031	no	n/a	n/a
113.6835938	n/a	29103	largeTSmallH	correct	incongruent	0.64844	no	T	H
114.3320312	n/a	29269	responseLargeT	correct	n/a	0.64844	no	n/a	n/a
115.4023438	n/a	29543	largeTSmallT	correct	congruent	0.60938	no	T	T
116.0117188	n/a	29699	responseLargeT	correct	n/a	0.60938	no	n/a	n/a
117.0820312	n/a	29973	largeTSmallH	correct	incongruent	0.54688	no	T	H
117.6289062	n/a	30113	responseLargeT	correct	n/a	0.54688	no	n/a	n/a
118.7070312	n/a	30389	largeTSmallH	correct	incongruent	0.71094	no	T	H
119.4179688	n/a	30571	responseLargeT	correct	n/a	0.71094	no	n/a	n/a
120.484375	n/a	30844	largeTSmallT	correct	congruent	0.48438	no	T	T
120.96875	n/a	30968	responseLargeT	correct	n/a	0.48438	no	n/a	n/a
122.0429688	n/a	31243	largeHSmallH	correct	congruent	0.64453	no	H	H
122.6875	n/a	31408	responseLargeH	correct	n/a	0.64453	no	n/a	n/a
123.7617188	n/a	31683	largeHSmallT	correct	incongruent	0.5625	no	H	T
124.3242188	n/a	31827	responseLargeH	correct	n/a	0.5625	no	n/a	n/a
125.4023438	n/a	32103	largeHSmallT	correct	incongruent	0.53906	no	H	T
125.9414062	n/a	32241	responseLargeH	correct	n/a	0.53906	no	n/a	n/a
127.015625	n/a	32516	largeTSmallH	correct	incongruent	0.65234	no	T	H
127.6679688	n/a	32683	responseLargeT	correct	n/a	0.65234	no	n/a	n/a
128.734375	n/a	32956	largeHSmallT	correct	incongruent	0.80469	no	H	T
129.5390625	n/a	33162	responseLargeH	correct	n/a	0.80469	no	n/a	n/a
130.6015625	n/a	33434	largeHSmallT	correct	incongruent	0.82812	no	H	T
131.4296875	n/a	33646	responseLargeH	correct	n/a	0.82812	no	n/a	n/a
132.4960938	n/a	33919	largeHSmallH	correct	congruent	0.67578	no	H	H
133.171875	n/a	34092	responseLargeH	correct	n/a	0.67578	no	n/a	n/a
134.2421875	n/a	34366	largeHSmallH	correct	congruent	0.71875	no	H	H
134.9609375	n/a	34550	responseLargeH	correct	n/a	0.71875	no	n/a	n/a
136.0429688	n/a	34827	largeTSmallH	correct	incongruent	0.62891	no	T	H
136.671875	n/a	34988	responseLargeT	correct	n/a	0.62891	no	n/a	n/a
137.734375	n/a	35260	largeTSmallH	correct	incongruent	0.66016	no	T	H
138.3945312	n/a	35429	responseLargeT	correct	n/a	0.66016	no	n/a	n/a
139.46875	n/a	35704	largeTSmallT	correct	congruent	0.69531	no	T	T
140.1640625	n/a	35882	responseLargeT	correct	n/a	0.69531	no	n/a	n/a
141.2304688	n/a	36155	largeHSmallH	correct	congruent	0.82422	no	H	H
142.0546875	n/a	36366	responseLargeH	correct	n/a	0.82422	no	n/a	n/a
143.1367188	n/a	36643	largeTSmallH	correct	incongruent	0.71484	no	T	H
143.8515625	n/a	36826	responseLargeT	correct	n/a	0.71484	no	n/a	n/a
144.921875	n/a	37100	largeHSmallH	correct	congruent	0.55859	no	H	H
145.4804688	n/a	37243	responseLargeH	correct	n/a	0.55859	no	n/a	n/a
146.546875	n/a	37516	largeTSmallH	correct	incongruent	0.66797	no	T	H
147.2148438	n/a	37687	responseLargeT	correct	n/a	0.66797	no	n/a	n/a
148.28125	n/a	37960	largeHSmallH	correct	congruent	0.52734	no	H	H
148.8085938	n/a	38095	responseLargeH	correct	n/a	0.52734	no	n/a	n/a
149.8671875	n/a	38366	largeHSmallT	correct	incongruent	0.53516	no	H	T
150.4023438	n/a	38503	responseLargeH	correct	n/a	0.53516	no	n/a	n/a
151.4804688	n/a	38779	largeTSmallT	correct	congruent	0.51953	no	T	T
152	n/a	38912	responseLargeT	correct	n/a	0.51953	no	n/a	n/a
153.0703125	n/a	39186	largeHSmallH	correct	congruent	0.54297	no	H	H
153.6132812	n/a	39325	responseLargeH	correct	n/a	0.54297	no	n/a	n/a
154.6796875	n/a	39598	largeHSmallH	correct	congruent	0.65234	no	H	H
155.3320312	n/a	39765	responseLargeH	correct	n/a	0.65234	no	n/a	n/a
156.4140625	n/a	40042	largeTSmallH	correct	incongruent	0.72266	no	T	H
157.1367188	n/a	40227	responseLargeT	correct	n/a	0.72266	no	n/a	n/a
158.203125	n/a	40500	largeHSmallH	correct	congruent	0.82422	no	H	H
159.0273438	n/a	40711	responseLargeH	correct	n/a	0.82422	no	n/a	n/a
160.109375	n/a	40988	largeHSmallH	correct	congruent	0.60156	no	H	H
160.7109375	n/a	41142	responseLargeH	correct	n/a	0.60156	no	n/a	n/a
161.7734375	n/a	41414	largeTSmallT	correct	congruent	0.73047	no	T	T
162.5039062	n/a	41601	responseLargeT	correct	n/a	0.73047	no	n/a	n/a
163.5742188	n/a	41875	largeTSmallH	correct	incongruent	0.72656	no	T	H
164.3007812	n/a	42061	responseLargeT	correct	n/a	0.72656	no	n/a	n/a
165.3632812	n/a	42333	largeHSmallT	correct	incongruent	0.60938	no	H	T
165.9726562	n/a	42489	responseLargeH	correct	n/a	0.60938	no	n/a	n/a
167.0546875	n/a	42766	largeHSmallT	correct	incongruent	0.51953	no	H	T
167.5742188	n/a	42899	responseLargeH	correct	n/a	0.51953	no	n/a	n/a
168.640625	n/a	43172	largeTSmallT	correct	congruent	0.61328	no	T	T
169.2539062	n/a	43329	responseLargeT	correct	n/a	0.61328	no	n/a	n/a
170.3203125	n/a	43602	largeHSmallH	correct	congruent	0.64453	no	H	H
170.9648438	n/a	43767	responseLargeH	correct	n/a	0.64453	no	n/a	n/a
172.0429688	n/a	44043	largeTSmallT	correct	congruent	0.70312	no	T	T
172.7460938	n/a	44223	responseLargeT	correct	n/a	0.70312	no	n/a	n/a
173.8125	n/a	44496	largeHSmallT	correct	incongruent	0.69531	no	H	T
174.5078125	n/a	44674	responseLargeH	correct	n/a	0.69531	no	n/a	n/a
175.5859375	n/a	44950	largeHSmallT	correct	incongruent	0.73047	no	H	T
176.3164062	n/a	45137	responseLargeH	correct	n/a	0.73047	no	n/a	n/a
177.3867188	n/a	45411	largeTSmallT	correct	congruent	0.51562	no	T	T
177.9023438	n/a	45543	responseLargeT	correct	n/a	0.51562	no	n/a	n/a
178.9609375	n/a	45814	largeHSmallH	correct	congruent	0.57812	no	H	H
179.5390625	n/a	45962	responseLargeH	correct	n/a	0.57812	no	n/a	n/a
180.6015625	n/a	46234	largeHSmallH	correct	congruent	0.51953	no	H	H
181.1210938	n/a	46367	responseLargeH	correct	n/a	0.51953	no	n/a	n/a
182.1992188	n/a	46643	largeTSmallT	correct	congruent	0.66797	no	T	T
182.8671875	n/a	46814	responseLargeT	correct	n/a	0.66797	no	n/a	n/a
183.9492188	n/a	47091	largeHSmallT	correct	incongruent	0.57812	no	H	T
184.5273438	n/a	47239	responseLargeH	correct	n/a	0.57812	no	n/a	n/a
185.6015625	n/a	47514	largeHSmallT	correct	incongruent	0.51172	no	H	T
186.1132812	n/a	47645	responseLargeH	correct	n/a	0.51172	no	n/a	n/a
187.1875	n/a	47920	largeTSmallT	correct	congruent	0.60156	no	T	T
187.7890625	n/a	48074	responseLargeT	correct	n/a	0.60156	no	n/a	n/a
188.8554688	n/a	48347	largeTSmallT	correct	congruent	0.62891	no	T	T
189.484375	n/a	48508	responseLargeT	correct	n/a	0.62891	no	n/a	n/a
190.5625	n/a	48784	largeTSmallH	correct	incongruent	0.75	no	T	H
191.3125	n/a	48976	responseLargeT	correct	n/a	0.75	no	n/a	n/a
192.3867188	n/a	49251	largeHSmallH	correct	congruent	0.51172	no	H	H
192.8984375	n/a	49382	responseLargeH	correct	n/a	0.51172	no	n/a	n/a
193.9726562	n/a	49657	largeTSmallT	correct	congruent	0.64062	no	T	T
194.6132812	n/a	49821	responseLargeT	correct	n/a	0.64062	no	n/a	n/a
195.6953125	n/a	50098	largeHSmallH	correct	congruent	0.55469	no	H	H
196.25	n/a	50240	responseLargeH	correct	n/a	0.55469	no	n/a	n/a
197.3320312	n/a	50517	largeTSmallH	correct	incongruent	0.60938	no	T	H
197.9414062	n/a	50673	responseLargeT	correct	n/a	0.60938	no	n/a	n/a
199.015625	n/a	50948	largeTSmallT	correct	congruent	0.69531	no	T	T
199.7109375	n/a	51126	responseLargeT	correct	n/a	0.69531	no	n/a	n/a
200.7734375	n/a	51398	largeHSmallT	correct	incongruent	0.53125	no	H	T
201.3046875	n/a	51534	responseLargeH	correct	n/a	0.53125	no	n/a	n/a
202.3867188	n/a	51811	largeTSmallH	correct	incongruent	0.6875	no	T	H
203.0742188	n/a	51987	responseLargeT	correct	n/a	0.6875	no	n/a	n/a
204.1484375	n/a	52262	largeTSmallT	correct	congruent	0.67578	no	T	T
204.8242188	n/a	52435	responseLargeT	correct	n/a	0.67578	no	n/a	n/a
205.8945312	n/a	52709	largeTSmallH	correct	incongruent	0.59375	no	T	H
206.4882812	n/a	52861	responseLargeT	correct	n/a	0.59375	no	n/a	n/a
207.5585938	n/a	53135	largeHSmallT	correct	incongruent	0.57812	no	H	T
208.1367188	n/a	53283	responseLargeH	correct	n/a	0.57812	no	n/a	n/a
209.1992188	n/a	53555	largeTSmallH	correct	incongruent	0.55469	no	T	H
209.7539062	n/a	53697	responseLargeT	correct	n/a	0.55469	no	n/a	n/a
210.828125	n/a	53972	largeTSmallH	correct	incongruent	0.66797	no	T	H
211.4960938	n/a	54143	responseLargeT	correct	n/a	0.66797	no	n/a	n/a
212.5742188	n/a	54419	largeHSmallT	correct	incongruent	0.74609	no	H	T
213.3203125	n/a	54610	responseLargeH	correct	n/a	0.74609	no	n/a	n/a
214.3984375	n/a	54886	largeTSmallT	correct	congruent	0.51562	no	T	T
214.9140625	n/a	55018	responseLargeT	correct	n/a	0.51562	no	n/a	n/a
215.9882812	n/a	55293	largeTSmallT	correct	congruent	0.57422	no	T	T
216.5625	n/a	55440	responseLargeT	correct	n/a	0.57422	no	n/a	n/a
217.640625	n/a	55716	largeHSmallT	correct	incongruent	0.6875	no	H	T
218.328125	n/a	55892	responseLargeH	correct	n/a	0.6875	no	n/a	n/a
219.3984375	n/a	56166	largeHSmallT	correct	incongruent	1.918	yes	H	T
221.3164062	n/a	56657	responseLargeH	correct	n/a	1.918	yes	n/a	n/a
222.3867188	n/a	56931	largeTSmallT	correct	congruent	0.55859	no	T	T
222.9453125	n/a	57074	responseLargeT	correct	n/a	0.55859	no	n/a	n/a
224.0273438	n/a	57351	largeHSmallT	correct	incongruent	0.60547	no	H	T
224.6328125	n/a	57506	responseLargeH	correct	n/a	0.60547	no	n/a	n/a
225.7070312	n/a	57781	largeTSmallH	correct	incongruent	0.58984	no	T	H
226.296875	n/a	57932	responseLargeT	correct	n/a	0.58984	no	n/a	n/a
227.359375	n/a	58204	largeHSmallT	correct	incongruent	0.44531	no	H	T
227.8046875	n/a	58318	responseLargeH	correct	n/a	0.44531	no	n/a	n/a
228.8671875	n/a	58590	largeHSmallH	correct	congruent	0.51562	no	H	H
229.3828125	n/a	58722	responseLargeH	correct	n/a	0.51562	no	n/a	n/a
230.453125	n/a	58996	largeTSmallT	correct	congruent	0.77344	no	T	T
231.2265625	n/a	59194	responseLargeT	correct	n/a	0.77344	no	n/a	n/a
232.3046875	n/a	59470	largeTSmallH	correct	incongruent	0.71094	no	T	H
233.015625	n/a	59652	responseLargeT	correct	n/a	0.71094	no	n/a	n/a
234.078125	n/a	59924	largeHSmallH	correct	congruent	0.60547	no	H	H
234.6835938	n/a	60079	responseLargeH	correct	n/a	0.60547	no	n/a	n/a
235.7460938	n/a	60351	largeTSmallH	correct	incongruent	0.68359	no	T	H
236.4296875	n/a	60526	responseLargeT	correct	n/a	0.68359	no	n/a	n/a
237.4921875	n/a	60798	largeTSmallT	correct	congruent	0.625	no	T	T
238.1171875	n/a	60958	responseLargeT	correct	n/a	0.625	no	n/a	n/a
239.1875	n/a	61232	largeTSmallT	correct	congruent	0.51562	no	T	T
239.703125	n/a	61364	responseLargeT	correct	n/a	0.51562	no	n/a	n/a
240.7734375	n/a	61638	largeHSmallH	correct	congruent	0.57812	no	H	H
241.3515625	n/a	61786	responseLargeH	correct	n/a	0.57812	no	n/a	n/a
242.4257812	n/a	62061	largeTSmallT	correct	congruent	0.51953	no	T	T
242.9453125	n/a	62194	responseLargeT	correct	n/a	0.51953	no	n/a	n/a
244.0273438	n/a	62471	largeHSmallH	correct	congruent	0.54688	no	H	H
244.5742188	n/a	62611	responseLargeH	correct	n/a	0.54688	no	n/a	n/a
245.640625	n/a	62884	largeTSmallT	correct	congruent	0.54297	no	T	T
246.1835938	n/a	63023	responseLargeT	correct	n/a	0.54297	no	n/a	n/a
247.2539062	n/a	63297	largeHSmallH	correct	congruent	0.65234	no	H	H
247.90625	n/a	63464	responseLargeH	correct	n/a	0.65234	no	n/a	n/a
248.984375	n/a	63740	largeTSmallH	correct	incongruent	0.51172	no	T	H
249.4960938	n/a	63871	responseLargeT	correct	n/a	0.51172	no	n/a	n/a
250.5742188	n/a	64147	largeTSmallH	correct	incongruent	0.74609	no	T	H
251.3203125	n/a	64338	responseLargeT	correct	n/a	0.74609	no	n/a	n/a
252.3984375	n/a	64614	largeTSmallH	correct	incongruent	0.65234	no	T	H
253.0507812	n/a	64781	responseLargeT	correct	n/a	0.65234	no	n/a	n/a
254.1328125	n/a	65058	largeHSmallT	correct	incongruent	0.54688	no	H	T
254.6796875	n/a	65198	responseLargeH	correct	n/a	0.54688	no	n/a	n/a
255.7460938	n/a	65471	largeHSmallH	correct	congruent	0.86328	no	H	H
256.609375	n/a	65692	responseLargeH	correct	n/a	0.86328	no	n/a	n/a
257.6914062	n/a	65969	largeTSmallH	correct	incongruent	0.69531	no	T	H
258.3867188	n/a	66147	responseLargeT	correct	n/a	0.69531	no	n/a	n/a
259.4648438	n/a	66423	largeTSmallH	correct	incongruent	0.625	no	T	H
260.0898438	n/a	66583	responseLargeT	correct	n/a	0.625	no	n/a	n/a
261.1601562	n/a	66857	largeTSmallH	correct	incongruent	0.53125	no	T	H
261.6914062	n/a	66993	responseLargeT	correct	n/a	0.53125	no	n/a	n/a
262.7578125	n/a	67266	largeHSmallT	correct	incongruent	0.66797	no	H	T
263.4257812	n/a	67437	responseLargeH	correct	n/a	0.66797	no	n/a	n/a
264.5039062	n/a	67713	largeHSmallH	correct	congruent	0.67578	no	H	H
265.1796875	n/a	67886	responseLargeH	correct	n/a	0.67578	no	n/a	n/a
266.2539062	n/a	68161	largeTSmallT	correct	congruent	0.50391	no	T	T
266.7578125	n/a	68290	responseLargeT	correct	n/a	0.50391	no	n/a	n/a
267.8242188	n/a	68563	largeHSmallT	correct	incongruent	0.50781	no	H	T
268.3320312	n/a	68693	responseLargeH	correct	n/a	0.50781	no	n/a	n/a
269.3984375	n/a	68966	largeTSmallH	correct	incongruent	0.5625	no	T	H
269.9609375	n/a	69110	responseLargeT	correct	n/a	0.5625	no	n/a	n/a
271.0273438	n/a	69383	largeTSmallH	correct	incongruent	0.63672	no	T	H
271.6640625	n/a	69546	responseLargeT	correct	n/a	0.63672	no	n/a	n/a
272.7460938	n/a	69823	largeTSmallT	correct	congruent	0.5625	no	T	T
273.3085938	n/a	69967	responseLargeT	correct	n/a	0.5625	no	n/a	n/a
274.3710938	n/a	70239	largeHSmallH	correct	congruent	0.6875	no	H	H
275.0585938	n/a	70415	responseLargeH	correct	n/a	0.6875	no	n/a	n/a
276.1171875	n/a	70686	largeHSmallH	correct	congruent	0.61328	no	H	H
276.7304688	n/a	70843	responseLargeH	correct	n/a	0.61328	no	n/a	n/a
277.8125	n/a	71120	largeHSmallH	error	congruent	1.25	no	H	H
279.0625	n/a	71440	responseLargeT	error	n/a	1.25	no	n/a	n/a
280.1328125	n/a	71714	largeHSmallT	correct	incongruent	0.65625	no	H	T
280.7890625	n/a	71882	responseLargeH	correct	n/a	0.65625	no	n/a	n/a
281.8632812	n/a	72157	largeTSmallH	correct	incongruent	0.75391	no	T	H
282.6171875	n/a	72350	responseLargeT	correct	n/a	0.75391	no	n/a	n/a
283.6914062	n/a	72625	largeHSmallT	correct	incongruent	0.69141	no	H	T
284.3828125	n/a	72802	responseLargeH	correct	n/a	0.69141	no	n/a	n/a
285.453125	n/a	73076	largeTSmallT	correct	congruent	0.56641	no	T	T
286.0195312	n/a	73221	responseLargeT	correct	n/a	0.56641	no	n/a	n/a
287.0898438	n/a	73495	largeTSmallT	correct	congruent	0.625	no	T	T
287.7148438	n/a	73655	responseLargeT	correct	n/a	0.625	no	n/a	n/a
288.7851562	n/a	73929	largeHSmallT	correct	incongruent	0.54688	no	H	T
289.3320312	n/a	74069	responseLargeH	correct	n/a	0.54688	no	n/a	n/a
290.3984375	n/a	74342	largeTSmallT	correct	congruent	0.84766	no	T	T
291.2460938	n/a	74559	responseLargeT	correct	n/a	0.84766	no	n/a	n/a
292.3164062	n/a	74833	largeHSmallH	correct	congruent	0.5625	no	H	H
292.8789062	n/a	74977	responseLargeH	correct	n/a	0.5625	no	n/a	n/a
293.9570312	n/a	75253	largeHSmallT	correct	incongruent	0.5625	no	H	T
294.5195312	n/a	75397	responseLargeH	correct	n/a	0.5625	no	n/a	n/a
295.5976562	n/a	75673	largeHSmallH	correct	congruent	0.78516	no	H	H
296.3828125	n/a	75874	responseLargeH	correct	n/a	0.78516	no	n/a	n/a
297.453125	n/a	76148	largeTSmallT	correct	congruent	1.418	no	T	T
298.8710938	n/a	76511	responseLargeT	correct	n/a	1.418	no	n/a	n/a
299.9453125	n/a	76786	largeTSmallH	correct	incongruent	1.0039	no	T	H
300.9492188	n/a	77043	responseLargeT	correct	n/a	1.0039	no	n/a	n/a
302.0234375	n/a	77318	largeHSmallT	correct	incongruent	0.69922	no	H	T
302.7226562	n/a	77497	responseLargeH	correct	n/a	0.69922	no	n/a	n/a
303.796875	n/a	77772	largeHSmallT	correct	incongruent	0.71094	no	H	T
304.5078125	n/a	77954	responseLargeH	correct	n/a	0.71094	no	n/a	n/a
305.5859375	n/a	78230	largeTSmallT	correct	congruent	0.58594	no	T	T
306.171875	n/a	78380	responseLargeT	correct	n/a	0.58594	no	n/a	n/a
307.25	n/a	78656	largeHSmallT	correct	incongruent	0.58203	no	H	T
307.8320312	n/a	78805	responseLargeH	correct	n/a	0.58203	no	n/a	n/a
308.90625	n/a	79080	largeHSmallT	correct	incongruent	0.58203	no	H	T
309.4882812	n/a	79229	responseLargeH	correct	n/a	0.58203	no	n/a	n/a
310.5585938	n/a	79503	largeTSmallT	correct	congruent	0.47266	no	T	T
311.03125	n/a	79624	responseLargeT	correct	n/a	0.47266	no	n/a	n/a
312.1054688	n/a	79899	largeTSmallH	error	incongruent	0.51562	no	T	H
312.6210938	n/a	80031	responseLargeH	error	n/a	0.51562	no	n/a	n/a
313.6914062	n/a	80305	largeTSmallT	correct	congruent	0.66016	no	T	T
314.3515625	n/a	80474	responseLargeT	correct	n/a	0.66016	no	n/a	n/a
315.4257812	n/a	80749	largeHSmallT	correct	incongruent	0.69141	no	H	T
316.1171875	n/a	80926	responseLargeH	correct	n/a	0.69141	no	n/a	n/a
317.1835938	n/a	81199	largeHSmallH	correct	congruent	0.73438	no	H	H
317.9179688	n/a	81387	responseLargeH	correct	n/a	0.73438	no	n/a	n/a
318.9960938	n/a	81663	largeTSmallT	correct	congruent	0.53516	no	T	T
319.53125	n/a	81800	responseLargeT	correct	n/a	0.53516	no	n/a	n/a
320.5976562	n/a	82073	largeTSmallH	correct	incongruent	0.64062	no	T	H
321.2382812	n/a	82237	responseLargeT	correct	n/a	0.64062	no	n/a	n/a
322.3046875	n/a	82510	largeHSmallH	correct	congruent	0.55859	no	H	H
322.8632812	n/a	82653	responseLargeH	correct	n/a	0.55859	no	n/a	n/a
323.9453125	n/a	82930	largeHSmallT	correct	incongruent	0.58594	no	H	T
324.53125	n/a	83080	responseLargeH	correct	n/a	0.58594	no	n/a	n/a
325.609375	n/a	83356	largeTSmallH	correct	incongruent	0.58594	no	T	H
326.1953125	n/a	83506	responseLargeT	correct	n/a	0.58594	no	n/a	n/a
327.265625	n/a	83780	largeHSmallH	correct	congruent	0.57812	no	H	H
327.84375	n/a	83928	responseLargeH	correct	n/a	0.57812	no	n/a	n/a
328.9179688	n/a	84203	largeTSmallH	correct	incongruent	0.78516	no	T	H
329.703125	n/a	84404	responseLargeT	correct	n/a	0.78516	no	n/a	n/a
330.7695312	n/a	84677	largeTSmallH	correct	incongruent	0.60938	no	T	H
331.3789062	n/a	84833	responseLargeT	correct	n/a	0.60938	no	n/a	n/a
332.4492188	n/a	85107	largeTSmallT	correct	congruent	0.66406	no	T	T
333.1132812	n/a	85277	responseLargeT	correct	n/a	0.66406	no	n/a	n/a
334.1835938	n/a	85551	largeHSmallH	correct	congruent	0.70703	no	H	H
334.890625	n/a	85732	responseLargeH	correct	n/a	0.70703	no	n/a	n/a
335.96875	n/a	86008	largeTSmallH	correct	incongruent	1.0625	no	T	H
337.03125	n/a	86280	responseLargeT	correct	n/a	1.0625	no	n/a	n/a
338.1054688	n/a	86555	largeHSmallH	correct	congruent	0.74609	no	H	H
338.8515625	n/a	86746	responseLargeH	correct	n/a	0.74609	no	n/a	n/a
339.9296875	n/a	87022	largeHSmallT	correct	incongruent	0.73828	no	H	T
340.6679688	n/a	87211	responseLargeH	correct	n/a	0.73828	no	n/a	n/a
341.7421875	n/a	87486	largeTSmallH	correct	incongruent	0.69531	no	T	H
342.4375	n/a	87664	responseLargeT	correct	n/a	0.69531	no	n/a	n/a
343.5039062	n/a	87937	largeTSmallT	correct	congruent	0.63672	no	T	T
344.140625	n/a	88100	responseLargeT	correct	n/a	0.63672	no	n/a	n/a
345.2109375	n/a	88374	largeHSmallH	correct	congruent	0.52734	no	H	H
345.7382812	n/a	88509	responseLargeH	correct	n/a	0.52734	no	n/a	n/a
346.8085938	n/a	88783	largeHSmallT	correct	incongruent	0.55469	no	H	T
347.3632812	n/a	88925	responseLargeH	correct	n/a	0.55469	no	n/a	n/a
348.4375	n/a	89200	largeHSmallH	correct	congruent	0.76953	no	H	H
349.2070312	n/a	89397	responseLargeH	correct	n/a	0.76953	no	n/a	n/a
350.2773438	n/a	89671	largeHSmallT	correct	incongruent	0.56641	no	H	T
350.84375	n/a	89816	responseLargeH	correct	n/a	0.56641	no	n/a	n/a
351.9023438	n/a	90087	largeHSmallH	correct	congruent	0.63672	no	H	H
352.5390625	n/a	90250	responseLargeH	correct	n/a	0.63672	no	n/a	n/a
353.609375	n/a	90524	largeTSmallT	correct	congruent	0.57422	no	T	T
354.1835938	n/a	90671	responseLargeT	correct	n/a	0.57422	no	n/a	n/a
355.25	n/a	90944	largeHSmallT	correct	incongruent	0.69922	no	H	T
355.9492188	n/a	91123	responseLargeH	correct	n/a	0.69922	no	n/a	n/a
359.8085938	n/a	92111	largeHSmallH	correct	congruent	1.9727	yes	H	H
361.78125	n/a	92616	responseSmallH	correct	n/a	1.9727	yes	n/a	n/a
362.8476562	n/a	92889	largeHSmallH	correct	congruent	0.89844	no	H	H
363.7460938	n/a	93119	responseSmallH	correct	n/a	0.89844	no	n/a	n/a
364.8085938	n/a	93391	largeHSmallT	correct	incongruent	0.60156	no	H	T
365.4101562	n/a	93545	responseSmallT	correct	n/a	0.60156	no	n/a	n/a
366.4765625	n/a	93818	largeTSmallH	correct	incongruent	0.53516	no	T	H
367.0117188	n/a	93955	responseSmallH	correct	n/a	0.53516	no	n/a	n/a
368.0898438	n/a	94231	largeHSmallH	correct	congruent	0.71094	no	H	H
368.8007812	n/a	94413	responseSmallH	correct	n/a	0.71094	no	n/a	n/a
369.8632812	n/a	94685	largeHSmallH	correct	congruent	0.67969	no	H	H
370.5429688	n/a	94859	responseSmallH	correct	n/a	0.67969	no	n/a	n/a
371.609375	n/a	95132	largeTSmallH	correct	incongruent	0.80078	no	T	H
372.4101562	n/a	95337	responseSmallH	correct	n/a	0.80078	no	n/a	n/a
373.4882812	n/a	95613	largeHSmallH	correct	congruent	0.57422	no	H	H
374.0625	n/a	95760	responseSmallH	correct	n/a	0.57422	no	n/a	n/a
375.1445312	n/a	96037	largeTSmallH	correct	incongruent	0.63281	no	T	H
375.7773438	n/a	96199	responseSmallH	correct	n/a	0.63281	no	n/a	n/a
376.8476562	n/a	96473	largeTSmallT	correct	congruent	0.53516	no	T	T
377.3828125	n/a	96610	responseSmallT	correct	n/a	0.53516	no	n/a	n/a
378.4609375	n/a	96886	largeTSmallH	correct	incongruent	0.74219	no	T	H
379.203125	n/a	97076	responseSmallH	correct	n/a	0.74219	no	n/a	n/a
380.2773438	n/a	97351	largeTSmallH	correct	incongruent	0.63281	no	T	H
380.9101562	n/a	97513	responseSmallH	correct	n/a	0.63281	no	n/a	n/a
381.984375	n/a	97788	largeHSmallT	correct	incongruent	0.57422	no	H	T
382.5585938	n/a	97935	responseSmallT	correct	n/a	0.57422	no	n/a	n/a
383.6210938	n/a	98207	largeHSmallT	correct	incongruent	0.70703	no	H	T
384.328125	n/a	98388	responseSmallT	correct	n/a	0.70703	no	n/a	n/a
385.3945312	n/a	98661	largeHSmallT	correct	incongruent	0.63281	no	H	T
386.0273438	n/a	98823	responseSmallT	correct	n/a	0.63281	no	n/a	n/a
387.1015625	n/a	99098	largeHSmallH	correct	congruent	0.53906	no	H	H
387.640625	n/a	99236	responseSmallH	correct	n/a	0.53906	no	n/a	n/a
388.7148438	n/a	99511	largeHSmallT	correct	incongruent	0.625	no	H	T
389.3398438	n/a	99671	responseSmallT	correct	n/a	0.625	no	n/a	n/a
390.4101562	n/a	99945	largeTSmallT	correct	congruent	0.59766	no	T	T
391.0078125	n/a	100098	responseSmallT	correct	n/a	0.59766	no	n/a	n/a
392.0742188	n/a	100371	largeTSmallH	correct	incongruent	0.60938	no	T	H
392.6835938	n/a	100527	responseSmallH	correct	n/a	0.60938	no	n/a	n/a
393.7421875	n/a	100798	largeHSmallT	correct	incongruent	0.66016	no	H	T
394.4023438	n/a	100967	responseSmallT	correct	n/a	0.66016	no	n/a	n/a
395.4609375	n/a	101238	largeHSmallH	correct	congruent	0.60547	no	H	H
396.0664062	n/a	101393	responseSmallH	correct	n/a	0.60547	no	n/a	n/a
397.140625	n/a	101668	largeHSmallT	correct	incongruent	0.69922	no	H	T
397.8398438	n/a	101847	responseSmallT	correct	n/a	0.69922	no	n/a	n/a
398.9140625	n/a	102122	largeHSmallH	correct	congruent	0.55859	no	H	H
399.4726562	n/a	102265	responseSmallH	correct	n/a	0.55859	no	n/a	n/a
400.5429688	n/a	102539	largeTSmallT	correct	congruent	0.72266	no	T	T
401.265625	n/a	102724	responseSmallT	correct	n/a	0.72266	no	n/a	n/a
402.328125	n/a	102996	largeTSmallH	correct	incongruent	0.67578	no	T	H
403.0039062	n/a	103169	responseSmallH	correct	n/a	0.67578	no	n/a	n/a
404.0742188	n/a	103443	largeTSmallT	correct	congruent	0.59766	no	T	T
404.671875	n/a	103596	responseSmallT	correct	n/a	0.59766	no	n/a	n/a
405.7421875	n/a	103870	largeTSmallH	correct	incongruent	0.51953	no	T	H
406.2617188	n/a	104003	responseSmallH	correct	n/a	0.51953	no	n/a	n/a
407.34375	n/a	104280	largeTSmallT	correct	congruent	0.71484	no	T	T
408.0585938	n/a	104463	responseSmallT	correct	n/a	0.71484	no	n/a	n/a
409.1289062	n/a	104737	largeHSmallT	correct	incongruent	0.88672	no	H	T
410.015625	n/a	104964	responseSmallT	correct	n/a	0.88672	no	n/a	n/a
411.0898438	n/a	105239	largeTSmallH	correct	incongruent	0.54688	no	T	H
411.6367188	n/a	105379	responseSmallH	correct	n/a	0.54688	no	n/a	n/a
412.703125	n/a	105652	largeHSmallT	correct	incongruent	0.77734	no	H	T
413.4804688	n/a	105851	responseSmallT	correct	n/a	0.77734	no	n/a	n/a
414.5429688	n/a	106123	largeTSmallT	correct	congruent	0.69141	no	T	T
415.234375	n/a	106300	responseSmallT	correct	n/a	0.69141	no	n/a	n/a
416.3007812	n/a	106573	largeTSmallT	correct	congruent	0.62109	no	T	T
416.921875	n/a	106732	responseSmallT	correct	n/a	0.62109	no	n/a	n/a
417.9960938	n/a	107007	largeTSmallH	correct	incongruent	0.59766	no	T	H
418.59375	n/a	107160	responseSmallH	correct	n/a	0.59766	no	n/a	n/a
419.6601562	n/a	107433	largeTSmallH	correct	incongruent	0.64844	no	T	H
420.3085938	n/a	107599	responseSmallH	correct	n/a	0.64844	no	n/a	n/a
421.3828125	n/a	107874	largeTSmallH	correct	incongruent	0.77734	no	T	H
422.1601562	n/a	108073	responseSmallH	correct	n/a	0.77734	no	n/a	n/a
423.234375	n/a	108348	largeTSmallH	correct	incongruent	0.63281	no	T	H
423.8671875	n/a	108510	responseSmallH	correct	n/a	0.63281	no	n/a	n/a
424.9296875	n/a	108782	largeHSmallH	correct	congruent	0.89453	no	H	H
425.8242188	n/a	109011	responseSmallH	correct	n/a	0.89453	no	n/a	n/a
426.9023438	n/a	109287	largeTSmallT	correct	congruent	0.74609	no	T	T
427.6484375	n/a	109478	responseSmallT	correct	n/a	0.74609	no	n/a	n/a
428.7265625	n/a	109754	largeTSmallT	correct	congruent	0.5625	no	T	T
429.2890625	n/a	109898	responseSmallT	correct	n/a	0.5625	no	n/a	n/a
430.3671875	n/a	110174	largeTSmallH	correct	incongruent	0.63281	no	T	H
431	n/a	110336	responseSmallH	correct	n/a	0.63281	no	n/a	n/a
432.0742188	n/a	110611	largeHSmallT	correct	incongruent	0.76172	no	H	T
432.8359375	n/a	110806	responseSmallT	correct	n/a	0.76172	no	n/a	n/a
433.9023438	n/a	111079	largeTSmallH	correct	incongruent	0.80469	no	T	H
434.7070312	n/a	111285	responseSmallH	correct	n/a	0.80469	no	n/a	n/a
435.78125	n/a	111560	largeHSmallT	correct	incongruent	0.68359	no	H	T
436.4648438	n/a	111735	responseSmallT	correct	n/a	0.68359	no	n/a	n/a
437.5429688	n/a	112011	largeTSmallH	correct	incongruent	0.59375	no	T	H
438.1367188	n/a	112163	responseSmallH	correct	n/a	0.59375	no	n/a	n/a
439.2070312	n/a	112437	largeTSmallT	correct	congruent	0.63672	no	T	T
439.84375	n/a	112600	responseSmallT	correct	n/a	0.63672	no	n/a	n/a
440.9140625	n/a	112874	largeHSmallT	correct	incongruent	0.64844	no	H	T
441.5625	n/a	113040	responseSmallT	correct	n/a	0.64844	no	n/a	n/a
442.6210938	n/a	113311	largeHSmallT	correct	incongruent	0.6875	no	H	T
443.3085938	n/a	113487	responseSmallT	correct	n/a	0.6875	no	n/a	n/a
444.3945312	n/a	113765	largeHSmallH	correct	congruent	0.70703	no	H	H
445.1015625	n/a	113946	responseSmallH	correct	n/a	0.70703	no	n/a	n/a
446.1679688	n/a	114219	largeTSmallH	correct	incongruent	0.70312	no	T	H
446.8710938	n/a	114399	responseSmallH	correct	n/a	0.70312	no	n/a	n/a
447.9414062	n/a	114673	largeHSmallH	correct	congruent	0.6875	no	H	H
448.6289062	n/a	114849	responseSmallH	correct	n/a	0.6875	no	n/a	n/a
449.6992188	n/a	115123	largeTSmallT	correct	congruent	0.60938	no	T	T
450.3085938	n/a	115279	responseSmallT	correct	n/a	0.60938	no	n/a	n/a
451.3789062	n/a	115553	largeHSmallH	correct	congruent	0.53125	no	H	H
451.9101562	n/a	115689	responseSmallH	correct	n/a	0.53125	no	n/a	n/a
452.9804688	n/a	115963	largeHSmallT	correct	incongruent	0.73438	no	H	T
453.7148438	n/a	116151	responseSmallT	correct	n/a	0.73438	no	n/a	n/a
454.7929688	n/a	116427	largeHSmallT	correct	incongruent	0.66797	no	H	T
455.4609375	n/a	116598	responseSmallT	correct	n/a	0.66797	no	n/a	n/a
456.5390625	n/a	116874	largeTSmallT	correct	congruent	0.70312	no	T	T
457.2421875	n/a	117054	responseSmallT	correct	n/a	0.70312	no	n/a	n/a
458.3125	n/a	117328	largeTSmallH	correct	incongruent	0.67969	no	T	H
458.9921875	n/a	117502	responseSmallH	correct	n/a	0.67969	no	n/a	n/a
460.0625	n/a	117776	largeHSmallH	correct	congruent	0.58203	no	H	H
460.6445312	n/a	117925	responseSmallH	correct	n/a	0.58203	no	n/a	n/a
461.7148438	n/a	118199	largeTSmallH	correct	incongruent	0.78516	no	T	H
462.5	n/a	118400	responseSmallH	correct	n/a	0.78516	no	n/a	n/a
463.5820312	n/a	118677	largeHSmallT	correct	incongruent	0.56641	no	H	T
464.1484375	n/a	118822	responseSmallT	correct	n/a	0.56641	no	n/a	n/a
465.2070312	n/a	119093	largeTSmallH	correct	incongruent	0.65234	no	T	H
465.859375	n/a	119260	responseSmallH	correct	n/a	0.65234	no	n/a	n/a
466.9257812	n/a	119533	largeHSmallT	correct	incongruent	0.67188	no	H	T
467.5976562	n/a	119705	responseSmallT	correct	n/a	0.67188	no	n/a	n/a
468.6601562	n/a	119977	largeHSmallT	correct	incongruent	0.60547	no	H	T
469.265625	n/a	120132	responseSmallT	correct	n/a	0.60547	no	n/a	n/a
470.328125	n/a	120404	largeTSmallH	correct	incongruent	0.64062	no	T	H
470.96875	n/a	120568	responseSmallH	correct	n/a	0.64062	no	n/a	n/a
472.046875	n/a	120844	largeHSmallH	correct	congruent	0.49219	no	H	H
472.5390625	n/a	120970	responseSmallH	correct	n/a	0.49219	no	n/a	n/a
473.6054688	n/a	121243	largeHSmallH	correct	congruent	0.64844	no	H	H
474.2539062	n/a	121409	responseSmallH	correct	n/a	0.64844	no	n/a	n/a
475.328125	n/a	121684	largeHSmallT	correct	incongruent	0.54688	no	H	T
475.875	n/a	121824	responseSmallT	correct	n/a	0.54688	no	n/a	n/a
476.9414062	n/a	122097	largeTSmallT	correct	congruent	0.53516	no	T	T
477.4765625	n/a	122234	responseSmallT	correct	n/a	0.53516	no	n/a	n/a
478.5546875	n/a	122510	largeTSmallH	correct	incongruent	0.66016	no	T	H
479.2148438	n/a	122679	responseSmallH	correct	n/a	0.66016	no	n/a	n/a
480.2851562	n/a	122953	largeTSmallT	correct	congruent	0.82812	no	T	T
481.1132812	n/a	123165	responseSmallT	correct	n/a	0.82812	no	n/a	n/a
482.1796875	n/a	123438	largeHSmallH	correct	congruent	0.73438	no	H	H
482.9140625	n/a	123626	responseSmallH	correct	n/a	0.73438	no	n/a	n/a
483.9804688	n/a	123899	largeHSmallT	correct	incongruent	0.78906	no	H	T
484.7695312	n/a	124101	responseSmallT	correct	n/a	0.78906	no	n/a	n/a
485.8320312	n/a	124373	largeTSmallT	correct	congruent	0.70312	no	T	T
486.5351562	n/a	124553	responseSmallT	correct	n/a	0.70312	no	n/a	n/a
487.6054688	n/a	124827	largeTSmallT	correct	congruent	0.62109	no	T	T
488.2265625	n/a	124986	responseSmallT	correct	n/a	0.62109	no	n/a	n/a
489.3007812	n/a	125261	largeTSmallT	correct	congruent	0.57031	no	T	T
489.8710938	n/a	125407	responseSmallT	correct	n/a	0.57031	no	n/a	n/a
490.9414062	n/a	125681	largeHSmallT	correct	incongruent	0.60938	no	H	T
491.5507812	n/a	125837	responseSmallT	correct	n/a	0.60938	no	n/a	n/a
492.6210938	n/a	126111	largeHSmallH	correct	congruent	0.61328	no	H	H
493.234375	n/a	126268	responseSmallH	correct	n/a	0.61328	no	n/a	n/a
494.3125	n/a	126544	largeHSmallH	correct	congruent	0.67578	no	H	H
494.9882812	n/a	126717	responseSmallH	correct	n/a	0.67578	no	n/a	n/a
496.0585938	n/a	126991	largeHSmallT	correct	incongruent	0.57812	no	H	T
496.6367188	n/a	127139	responseSmallT	correct	n/a	0.57812	no	n/a	n/a
497.7148438	n/a	127415	largeTSmallH	correct	incongruent	0.76562	no	T	H
498.4804688	n/a	127611	responseSmallH	correct	n/a	0.76562	no	n/a	n/a
499.5546875	n/a	127886	largeHSmallH	correct	congruent	0.94141	no	H	H
500.4960938	n/a	128127	responseSmallH	correct	n/a	0.94141	no	n/a	n/a
501.5664062	n/a	128401	largeHSmallH	correct	congruent	0.98438	no	H	H
502.5507812	n/a	128653	responseSmallH	correct	n/a	0.98438	no	n/a	n/a
503.6210938	n/a	128927	largeHSmallT	correct	incongruent	0.53906	no	H	T
504.1601562	n/a	129065	responseSmallT	correct	n/a	0.53906	no	n/a	n/a
505.234375	n/a	129340	largeHSmallT	correct	incongruent	0.51562	no	H	T
505.75	n/a	129472	responseSmallT	correct	n/a	0.51562	no	n/a	n/a
506.8203125	n/a	129746	largeTSmallT	correct	congruent	0.57031	no	T	T
507.390625	n/a	129892	responseSmallT	correct	n/a	0.57031	no	n/a	n/a
508.4609375	n/a	130166	largeHSmallH	correct	congruent	0.47656	no	H	H
508.9375	n/a	130288	responseSmallH	correct	n/a	0.47656	no	n/a	n/a
510.0039062	n/a	130561	largeHSmallH	correct	congruent	0.63281	no	H	H
510.6367188	n/a	130723	responseSmallH	correct	n/a	0.63281	no	n/a	n/a
511.7109375	n/a	130998	largeHSmallH	correct	congruent	0.54688	no	H	H
512.2578125	n/a	131138	responseSmallH	correct	n/a	0.54688	no	n/a	n/a
513.3242188	n/a	131411	largeTSmallT	correct	congruent	0.59766	no	T	T
513.921875	n/a	131564	responseSmallT	correct	n/a	0.59766	no	n/a	n/a
514.9921875	n/a	131838	largeHSmallH	correct	congruent	0.58984	no	H	H
515.5820312	n/a	131989	responseSmallH	correct	n/a	0.58984	no	n/a	n/a
516.6445312	n/a	132261	largeHSmallT	correct	incongruent	0.53906	no	H	T
517.1835938	n/a	132399	responseSmallT	correct	n/a	0.53906	no	n/a	n/a
518.2578125	n/a	132674	largeTSmallT	correct	congruent	0.73438	no	T	T
518.9921875	n/a	132862	responseSmallT	correct	n/a	0.73438	no	n/a	n/a
520.0585938	n/a	133135	largeHSmallT	correct	incongruent	0.57422	no	H	T
520.6328125	n/a	133282	responseSmallT	correct	n/a	0.57422	no	n/a	n/a
521.6992188	n/a	133555	largeTSmallT	correct	congruent	0.50781	no	T	T
522.2070312	n/a	133685	responseSmallT	correct	n/a	0.50781	no	n/a	n/a
523.2734375	n/a	133958	largeTSmallT	correct	congruent	0.57812	no	T	T
523.8515625	n/a	134106	responseSmallT	correct	n/a	0.57812	no	n/a	n/a
524.9257812	n/a	134381	largeTSmallH	correct	incongruent	0.48828	no	T	H
525.4140625	n/a	134506	responseSmallH	correct	n/a	0.48828	no	n/a	n/a
526.484375	n/a	134780	largeHSmallH	correct	congruent	0.84766	no	H	H
527.3320312	n/a	134997	responseSmallH	correct	n/a	0.84766	no	n/a	n/a
528.40625	n/a	135272	largeHSmallT	correct	incongruent	0.53125	no	H	T
528.9375	n/a	135408	responseSmallT	correct	n/a	0.53125	no	n/a	n/a
530.0039062	n/a	135681	largeTSmallH	correct	incongruent	0.51562	no	T	H
530.5195312	n/a	135813	responseSmallH	correct	n/a	0.51562	no	n/a	n/a
531.59375	n/a	136088	largeTSmallH	correct	incongruent	0.74609	no	T	H
532.3398438	n/a	136279	responseSmallH	correct	n/a	0.74609	no	n/a	n/a
533.4179688	n/a	136555	largeTSmallT	correct	congruent	0.5625	no	T	T
533.9804688	n/a	136699	responseSmallT	correct	n/a	0.5625	no	n/a	n/a
535.0585938	n/a	136975	largeTSmallH	correct	incongruent	0.59375	no	T	H
535.6523438	n/a	137127	responseSmallH	correct	n/a	0.59375	no	n/a	n/a
536.7265625	n/a	137402	largeTSmallT	correct	congruent	0.70312	no	T	T
537.4296875	n/a	137582	responseSmallT	correct	n/a	0.70312	no	n/a	n/a
538.5	n/a	137856	largeTSmallH	correct	incongruent	0.51562	no	T	H
539.015625	n/a	137988	responseSmallH	correct	n/a	0.51562	no	n/a	n/a
540.0859375	n/a	138262	largeHSmallT	correct	incongruent	0.60156	no	H	T
540.6875	n/a	138416	responseSmallT	correct	n/a	0.60156	no	n/a	n/a
541.765625	n/a	138692	largeHSmallT	correct	incongruent	0.66016	no	H	T
542.4257812	n/a	138861	responseSmallT	correct	n/a	0.66016	no	n/a	n/a
543.5	n/a	139136	largeHSmallT	correct	incongruent	0.67578	no	H	T
544.1757812	n/a	139309	responseSmallT	correct	n/a	0.67578	no	n/a	n/a
545.2460938	n/a	139583	largeHSmallH	correct	congruent	0.52344	no	H	H
545.7695312	n/a	139717	responseSmallH	correct	n/a	0.52344	no	n/a	n/a
546.84375	n/a	139992	largeHSmallT	correct	incongruent	0.59766	no	H	T
547.4414062	n/a	140145	responseSmallT	correct	n/a	0.59766	no	n/a	n/a
548.5117188	n/a	140419	largeTSmallH	correct	incongruent	0.58594	no	T	H
549.0976562	n/a	140569	responseSmallH	correct	n/a	0.58594	no	n/a	n/a
550.1640625	n/a	140842	largeHSmallH	correct	congruent	0.60547	no	H	H
550.7695312	n/a	140997	responseSmallH	correct	n/a	0.60547	no	n/a	n/a
551.84375	n/a	141272	largeHSmallH	correct	congruent	0.61719	no	H	H
552.4609375	n/a	141430	responseSmallH	correct	n/a	0.61719	no	n/a	n/a
553.5234375	n/a	141702	largeHSmallT	correct	incongruent	0.57422	no	H	T
554.0976562	n/a	141849	responseSmallT	correct	n/a	0.57422	no	n/a	n/a
555.1640625	n/a	142122	largeHSmallH	correct	congruent	0.75391	no	H	H
555.9179688	n/a	142315	responseSmallH	correct	n/a	0.75391	no	n/a	n/a
556.9921875	n/a	142590	largeHSmallH	correct	congruent	0.5	no	H	H
557.4921875	n/a	142718	responseSmallH	correct	n/a	0.5	no	n/a	n/a
558.5664062	n/a	142993	largeTSmallT	correct	congruent	0.58594	no	T	T
559.1523438	n/a	143143	responseSmallT	correct	n/a	0.58594	no	n/a	n/a
560.21875	n/a	143416	largeTSmallH	correct	incongruent	0.61328	no	T	H
560.8320312	n/a	143573	responseSmallH	correct	n/a	0.61328	no	n/a	n/a
561.8984375	n/a	143846	largeHSmallT	correct	incongruent	0.5	no	H	T
562.3984375	n/a	143974	responseSmallT	correct	n/a	0.5	no	n/a	n/a
563.4570312	n/a	144245	largeHSmallH	correct	congruent	0.65234	no	H	H
564.109375	n/a	144412	responseSmallH	correct	n/a	0.65234	no	n/a	n/a
565.1796875	n/a	144686	largeHSmallT	correct	incongruent	0.51953	no	H	T
565.6992188	n/a	144819	responseSmallT	correct	n/a	0.51953	no	n/a	n/a
566.765625	n/a	145092	largeTSmallT	correct	congruent	0.625	no	T	T
567.390625	n/a	145252	responseSmallT	correct	n/a	0.625	no	n/a	n/a
568.4726562	n/a	145529	largeHSmallH	correct	congruent	0.51953	no	H	H
568.9921875	n/a	145662	responseSmallH	correct	n/a	0.51953	no	n/a	n/a
570.0585938	n/a	145935	largeTSmallH	correct	incongruent	0.83203	no	T	H
570.890625	n/a	146148	responseSmallH	correct	n/a	0.83203	no	n/a	n/a
571.9648438	n/a	146423	largeHSmallT	correct	incongruent	0.61328	no	H	T
572.578125	n/a	146580	responseSmallT	correct	n/a	0.61328	no	n/a	n/a
573.6445312	n/a	146853	largeTSmallT	error	congruent	0.5	no	T	T
574.1445312	n/a	146981	responseSmallH	error	n/a	0.5	no	n/a	n/a
575.203125	n/a	147252	largeTSmallH	correct	incongruent	0.80859	no	T	H
576.0117188	n/a	147459	responseSmallH	correct	n/a	0.80859	no	n/a	n/a
577.0859375	n/a	147734	largeTSmallT	correct	congruent	0.46875	no	T	T
577.5546875	n/a	147854	responseSmallT	correct	n/a	0.46875	no	n/a	n/a
578.6289062	n/a	148129	largeHSmallT	correct	incongruent	0.83594	no	H	T
579.4648438	n/a	148343	responseSmallT	correct	n/a	0.83594	no	n/a	n/a
580.5507812	n/a	148621	largeHSmallT	correct	incongruent	0.69141	no	H	T
581.2421875	n/a	148798	responseSmallT	correct	n/a	0.69141	no	n/a	n/a
582.3125	n/a	149072	largeHSmallT	correct	incongruent	0.55078	no	H	T
582.8632812	n/a	149213	responseSmallT	correct	n/a	0.55078	no	n/a	n/a
583.9257812	n/a	149485	largeTSmallT	correct	congruent	0.53516	no	T	T
584.4609375	n/a	149622	responseSmallT	correct	n/a	0.53516	no	n/a	n/a
585.5390625	n/a	149898	largeHSmallT	correct	incongruent	0.63281	no	H	T
586.171875	n/a	150060	responseSmallT	correct	n/a	0.63281	no	n/a	n/a
587.2578125	n/a	150338	largeHSmallH	correct	congruent	0.56641	no	H	H
587.8242188	n/a	150483	responseSmallH	correct	n/a	0.56641	no	n/a	n/a
588.8984375	n/a	150758	largeHSmallH	correct	congruent	0.66797	no	H	H
589.5664062	n/a	150929	responseSmallH	correct	n/a	0.66797	no	n/a	n/a
590.6289062	n/a	151201	largeTSmallT	correct	congruent	0.50781	no	T	T
591.1367188	n/a	151331	responseSmallT	correct	n/a	0.50781	no	n/a	n/a
592.21875	n/a	151608	largeTSmallH	correct	incongruent	0.62891	no	T	H
592.8476562	n/a	151769	responseSmallH	correct	n/a	0.62891	no	n/a	n/a
593.9101562	n/a	152041	largeTSmallT	correct	congruent	0.67188	no	T	T
594.5820312	n/a	152213	responseSmallT	correct	n/a	0.67188	no	n/a	n/a
595.65625	n/a	152488	largeHSmallT	error	incongruent	0.60547	no	H	T
596.2617188	n/a	152643	responseSmallH	error	n/a	0.60547	no	n/a	n/a
597.3359375	n/a	152918	largeHSmallH	correct	congruent	0.80469	no	H	H
598.140625	n/a	153124	responseSmallH	correct	n/a	0.80469	no	n/a	n/a
599.21875	n/a	153400	largeTSmallH	correct	incongruent	0.66797	no	T	H
599.8867188	n/a	153571	responseSmallH	correct	n/a	0.66797	no	n/a	n/a
600.9648438	n/a	153847	largeTSmallT	correct	congruent	0.54297	no	T	T
601.5078125	n/a	153986	responseSmallT	correct	n/a	0.54297	no	n/a	n/a
602.5898438	n/a	154263	largeHSmallH	correct	congruent	0.60156	no	H	H
603.1914062	n/a	154417	responseSmallH	correct	n/a	0.60156	no	n/a	n/a
604.2578125	n/a	154690	largeHSmallH	correct	congruent	0.83594	no	H	H
605.09375	n/a	154904	responseSmallH	correct	n/a	0.83594	no	n/a	n/a
606.1640625	n/a	155178	largeTSmallH	correct	incongruent	0.76172	no	T	H
606.9257812	n/a	155373	responseSmallH	correct	n/a	0.76172	no	n/a	n/a
608.0039062	n/a	155649	largeHSmallH	correct	congruent	0.62109	no	H	H
608.625	n/a	155808	responseSmallH	correct	n/a	0.62109	no	n/a	n/a
609.6953125	n/a	156082	largeHSmallH	correct	congruent	0.57812	no	H	H
610.2734375	n/a	156230	responseSmallH	correct	n/a	0.57812	no	n/a	n/a
611.3359375	n/a	156502	largeHSmallH	correct	congruent	0.52734	no	H	H
611.8632812	n/a	156637	responseSmallH	correct	n/a	0.52734	no	n/a	n/a
612.921875	n/a	156908	largeTSmallT	correct	congruent	0.55859	no	T	T
613.4804688	n/a	157051	responseSmallT	correct	n/a	0.55859	no	n/a	n/a
614.5507812	n/a	157325	largeTSmallH	correct	incongruent	0.78125	no	T	H
615.3320312	n/a	157525	responseSmallH	correct	n/a	0.78125	no	n/a	n/a
616.4023438	n/a	157799	largeTSmallT	correct	congruent	0.58203	no	T	T
616.984375	n/a	157948	responseSmallT	correct	n/a	0.58203	no	n/a	n/a
618.0429688	n/a	158219	largeHSmallT	correct	incongruent	0.68359	no	H	T
618.7265625	n/a	158394	responseSmallT	correct	n/a	0.68359	no	n/a	n/a
619.7890625	n/a	158666	largeTSmallT	correct	congruent	0.46094	no	T	T
620.25	n/a	158784	responseSmallT	correct	n/a	0.46094	no	n/a	n/a
621.3242188	n/a	159059	largeTSmallT	correct	congruent	0.60547	no	T	T
621.9296875	n/a	159214	responseSmallT	correct	n/a	0.60547	no	n/a	n/a
623.0039062	n/a	159489	largeTSmallT	correct	congruent	0.63281	no	T	T
623.6367188	n/a	159651	responseSmallT	correct	n/a	0.63281	no	n/a	n/a
624.7109375	n/a	159926	largeHSmallH	correct	congruent	0.625	no	H	H
625.3359375	n/a	160086	responseSmallH	correct	n/a	0.625	no	n/a	n/a
626.4023438	n/a	160359	largeTSmallT	correct	congruent	0.53516	no	T	T
626.9375	n/a	160496	responseSmallT	correct	n/a	0.53516	no	n/a	n/a
628.0039062	n/a	160769	largeHSmallH	correct	congruent	0.5625	no	H	H
628.5664062	n/a	160913	responseSmallH	correct	n/a	0.5625	no	n/a	n/a
629.6445312	n/a	161189	largeHSmallH	correct	congruent	0.50391	no	H	H
630.1484375	n/a	161318	responseSmallH	correct	n/a	0.50391	no	n/a	n/a
631.2148438	n/a	161591	largeTSmallH	correct	incongruent	0.50781	no	T	H
631.7226562	n/a	161721	responseSmallH	correct	n/a	0.50781	no	n/a	n/a
632.7890625	n/a	161994	largeHSmallH	correct	congruent	0.49609	no	H	H
633.2851562	n/a	162121	responseSmallH	correct	n/a	0.49609	no	n/a	n/a
634.3476562	n/a	162393	largeTSmallT	correct	congruent	0.49609	no	T	T
634.84375	n/a	162520	responseSmallT	correct	n/a	0.49609	no	n/a	n/a
635.9101562	n/a	162793	largeTSmallH	correct	incongruent	0.63672	no	T	H
636.546875	n/a	162956	responseSmallH	correct	n/a	0.63672	no	n/a	n/a
637.6289062	n/a	163233	largeHSmallT	correct	incongruent	0.60156	no	H	T
638.2304688	n/a	163387	responseSmallT	correct	n/a	0.60156	no	n/a	n/a
639.296875	n/a	163660	largeHSmallT	correct	incongruent	0.50781	no	H	T
639.8046875	n/a	163790	responseSmallT	correct	n/a	0.50781	no	n/a	n/a
640.8710938	n/a	164063	largeTSmallT	correct	congruent	0.56641	no	T	T
641.4375	n/a	164208	responseSmallT	correct	n/a	0.56641	no	n/a	n/a
642.5078125	n/a	164482	largeTSmallH	correct	incongruent	0.51562	no	T	H
643.0234375	n/a	164614	responseSmallH	correct	n/a	0.51562	no	n/a	n/a
644.0976562	n/a	164889	largeTSmallH	correct	incongruent	0.5	no	T	H
644.5976562	n/a	165017	responseSmallH	correct	n/a	0.5	no	n/a	n/a
645.6835938	n/a	165295	largeHSmallT	correct	incongruent	0.54688	no	H	T
646.2304688	n/a	165435	responseSmallT	correct	n/a	0.54688	no	n/a	n/a
647.296875	n/a	165708	largeHSmallT	correct	incongruent	0.51172	no	H	T
647.8085938	n/a	165839	responseSmallT	correct	n/a	0.51172	no	n/a	n/a
648.8671875	n/a	166110	largeTSmallT	correct	congruent	0.51953	no	T	T
649.3867188	n/a	166243	responseSmallT	correct	n/a	0.51953	no	n/a	n/a
650.46875	n/a	166520	largeHSmallT	correct	incongruent	0.58203	no	H	T
651.0507812	n/a	166669	responseSmallT	correct	n/a	0.58203	no	n/a	n/a
652.1210938	n/a	166943	largeTSmallH	correct	incongruent	0.71484	no	T	H
652.8359375	n/a	167126	responseSmallH	correct	n/a	0.71484	no	n/a	n/a
653.9101562	n/a	167401	largeHSmallH	correct	congruent	0.53906	no	H	H
654.4492188	n/a	167539	responseSmallH	correct	n/a	0.53906	no	n/a	n/a
655.5234375	n/a	167814	largeTSmallH	correct	incongruent	0.52734	no	T	H
656.0507812	n/a	167949	responseSmallH	correct	n/a	0.52734	no	n/a	n/a
657.1210938	n/a	168223	largeTSmallT	correct	congruent	0.63672	no	T	T
657.7578125	n/a	168386	responseSmallT	correct	n/a	0.63672	no	n/a	n/a
658.828125	n/a	168660	largeTSmallH	correct	incongruent	0.62109	no	T	H
659.4492188	n/a	168819	responseSmallH	correct	n/a	0.62109	no	n/a	n/a
660.5234375	n/a	169094	largeTSmallT	correct	congruent	0.62109	no	T	T
661.1445312	n/a	169253	responseSmallT	correct	n/a	0.62109	no	n/a	n/a
662.2148438	n/a	169527	largeHSmallH	correct	congruent	1.0234	no	H	H
663.2382812	n/a	169789	responseSmallH	correct	n/a	1.0234	no	n/a	n/a
664.3203125	n/a	170066	largeTSmallH	correct	incongruent	0.62109	no	T	H
664.9414062	n/a	170225	responseSmallH	correct	n/a	0.62109	no	n/a	n/a
666.015625	n/a	170500	largeTSmallT	correct	congruent	0.53906	no	T	T
666.5546875	n/a	170638	responseSmallT	correct	n/a	0.53906	no	n/a	n/a
667.6289062	n/a	170913	largeTSmallH	correct	incongruent	0.82031	no	T	H
668.4492188	n/a	171123	responseSmallH	correct	n/a	0.82031	no	n/a	n/a
669.5234375	n/a	171398	largeTSmallH	correct	incongruent	0.67969	no	T	H
670.203125	n/a	171572	responseSmallH	correct	n/a	0.67969	no	n/a	n/a
671.2695312	n/a	171845	largeHSmallT	correct	incongruent	0.76953	no	H	T
672.0390625	n/a	172042	responseSmallT	correct	n/a	0.76953	no	n/a	n/a
673.1210938	n/a	172319	largeHSmallT	correct	incongruent	0.56641	no	H	T
673.6875	n/a	172464	responseSmallT	correct	n/a	0.56641	no	n/a	n/a
674.75	n/a	172736	largeTSmallT	correct	congruent	0.80859	no	T	T
675.5585938	n/a	172943	responseSmallT	correct	n/a	0.80859	no	n/a	n/a
676.6289062	n/a	173217	largeHSmallH	correct	congruent	0.75	no	H	H
677.3789062	n/a	173409	responseSmallH	correct	n/a	0.75	no	n/a	n/a
678.453125	n/a	173684	largeTSmallT	correct	congruent	1.0078	no	T	T
679.4609375	n/a	173942	responseSmallT	correct	n/a	1.0078	no	n/a	n/a
680.546875	n/a	174220	largeHSmallH	correct	congruent	0.64062	no	H	H
681.1875	n/a	174384	responseSmallH	correct	n/a	0.64062	no	n/a	n/a
682.2539062	n/a	174657	largeTSmallT	correct	congruent	0.91016	no	T	T
683.1640625	n/a	174890	responseSmallT	correct	n/a	0.91016	no	n/a	n/a
684.2421875	n/a	175166	largeTSmallT	correct	congruent	0.67188	no	T	T
684.9140625	n/a	175338	responseSmallT	correct	n/a	0.67188	no	n/a	n/a
685.9882812	n/a	175613	largeHSmallT	correct	incongruent	0.71875	no	H	T
686.7070312	n/a	175797	responseSmallT	correct	n/a	0.71875	no	n/a	n/a
687.7734375	n/a	176070	largeHSmallH	correct	congruent	0.44531	no	H	H
688.21875	n/a	176184	responseSmallH	correct	n/a	0.44531	no	n/a	n/a
689.2929688	n/a	176459	largeTSmallH	correct	incongruent	0.55469	no	T	H
689.8476562	n/a	176601	responseSmallH	correct	n/a	0.55469	no	n/a	n/a
690.921875	n/a	176876	largeTSmallT	correct	congruent	0.54688	no	T	T
691.46875	n/a	177016	responseSmallT	correct	n/a	0.54688	no	n/a	n/a
692.5351562	n/a	177289	largeTSmallH	correct	incongruent	0.58594	no	T	H
693.1210938	n/a	177439	responseSmallH	correct	n/a	0.58594	no	n/a	n/a
694.1875	n/a	177712	largeHSmallH	correct	congruent	0.51562	no	H	H
694.703125	n/a	177844	responseSmallH	correct	n/a	0.51562	no	n/a	n/a
695.7617188	n/a	178115	largeTSmallH	correct	incongruent	0.50781	no	T	H
696.2695312	n/a	178245	responseSmallH	correct	n/a	0.50781	no	n/a	n/a
697.3476562	n/a	178521	largeTSmallT	correct	congruent	0.48047	no	T	T
697.828125	n/a	178644	responseSmallT	correct	n/a	0.48047	no	n/a	n/a
698.8945312	n/a	178917	largeHSmallT	correct	incongruent	0.51562	no	H	T
699.4101562	n/a	179049	responseSmallT	correct	n/a	0.51562	no	n/a	n/a
700.4804688	n/a	179323	largeTSmallH	correct	incongruent	0.66797	no	T	H
701.1484375	n/a	179494	responseSmallH	correct	n/a	0.66797	no	n/a	n/a
704.3203125	n/a	180306	largeHSmallH	correct	congruent	1.3203	no	H	H
705.640625	n/a	180644	responseLargeH	correct	n/a	1.3203	no	n/a	n/a
706.7226562	n/a	180921	largeHSmallH	correct	congruent	0.56641	no	H	H
707.2890625	n/a	181066	responseLargeH	correct	n/a	0.56641	no	n/a	n/a
708.359375	n/a	181340	largeTSmallT	correct	congruent	0.64453	no	T	T
709.0039062	n/a	181505	responseLargeT	correct	n/a	0.64453	no	n/a	n/a
710.0664062	n/a	181777	largeHSmallH	correct	congruent	0.69141	no	H	H
710.7578125	n/a	181954	responseLargeH	correct	n/a	0.69141	no	n/a	n/a
711.828125	n/a	182228	largeHSmallT	correct	incongruent	0.62109	no	H	T
712.4492188	n/a	182387	responseLargeH	correct	n/a	0.62109	no	n/a	n/a
713.5195312	n/a	182661	largeHSmallH	correct	congruent	0.64062	no	H	H
714.1601562	n/a	182825	responseLargeH	correct	n/a	0.64062	no	n/a	n/a
715.2421875	n/a	183102	largeTSmallT	correct	congruent	0.49609	no	T	T
715.7382812	n/a	183229	responseLargeT	correct	n/a	0.49609	no	n/a	n/a
716.8125	n/a	183504	largeHSmallH	correct	congruent	0.43359	no	H	H
717.2460938	n/a	183615	responseLargeH	correct	n/a	0.43359	no	n/a	n/a
718.3203125	n/a	183890	largeTSmallT	correct	congruent	0.59375	no	T	T
718.9140625	n/a	184042	responseLargeT	correct	n/a	0.59375	no	n/a	n/a
719.9726562	n/a	184313	largeHSmallT	correct	incongruent	0.53516	no	H	T
720.5078125	n/a	184450	responseLargeH	correct	n/a	0.53516	no	n/a	n/a
721.5859375	n/a	184726	largeTSmallT	correct	congruent	0.46875	no	T	T
722.0546875	n/a	184846	responseLargeT	correct	n/a	0.46875	no	n/a	n/a
723.1328125	n/a	185122	largeTSmallT	correct	congruent	0.60156	no	T	T
723.734375	n/a	185276	responseLargeT	correct	n/a	0.60156	no	n/a	n/a
724.8125	n/a	185552	largeTSmallT	correct	congruent	0.55469	no	T	T
725.3671875	n/a	185694	responseLargeT	correct	n/a	0.55469	no	n/a	n/a
726.4414062	n/a	185969	largeHSmallH	correct	congruent	0.48047	no	H	H
726.921875	n/a	186092	responseLargeH	correct	n/a	0.48047	no	n/a	n/a
728	n/a	186368	largeHSmallH	correct	congruent	0.51172	no	H	H
728.5117188	n/a	186499	responseLargeH	correct	n/a	0.51172	no	n/a	n/a
729.5859375	n/a	186774	largeHSmallH	correct	congruent	0.57422	no	H	H
730.1601562	n/a	186921	responseLargeH	correct	n/a	0.57422	no	n/a	n/a
731.2265625	n/a	187194	largeHSmallT	correct	incongruent	0.59375	no	H	T
731.8203125	n/a	187346	responseLargeH	correct	n/a	0.59375	no	n/a	n/a
732.8945312	n/a	187621	largeTSmallH	correct	incongruent	0.69531	no	T	H
733.5898438	n/a	187799	responseLargeT	correct	n/a	0.69531	no	n/a	n/a
734.6523438	n/a	188071	largeHSmallH	correct	congruent	0.59375	no	H	H
735.2460938	n/a	188223	responseLargeH	correct	n/a	0.59375	no	n/a	n/a
736.3046875	n/a	188494	largeTSmallH	correct	incongruent	0.61719	no	T	H
736.921875	n/a	188652	responseLargeT	correct	n/a	0.61719	no	n/a	n/a
738	n/a	188928	largeHSmallH	correct	congruent	0.51562	no	H	H
738.515625	n/a	189060	responseLargeH	correct	n/a	0.51562	no	n/a	n/a
739.5859375	n/a	189334	largeTSmallH	correct	incongruent	0.63281	no	T	H
740.21875	n/a	189496	responseLargeT	correct	n/a	0.63281	no	n/a	n/a
741.2929688	n/a	189771	largeHSmallH	correct	congruent	0.46484	no	H	H
741.7578125	n/a	189890	responseLargeH	correct	n/a	0.46484	no	n/a	n/a
742.828125	n/a	190164	largeHSmallT	correct	incongruent	0.58203	no	H	T
743.4101562	n/a	190313	responseLargeH	correct	n/a	0.58203	no	n/a	n/a
744.4804688	n/a	190587	largeHSmallT	correct	incongruent	0.60938	no	H	T
745.0898438	n/a	190743	responseLargeH	correct	n/a	0.60938	no	n/a	n/a
746.1601562	n/a	191017	largeHSmallH	correct	congruent	0.55469	no	H	H
746.7148438	n/a	191159	responseLargeH	correct	n/a	0.55469	no	n/a	n/a
747.7851562	n/a	191433	largeHSmallH	correct	congruent	0.55469	no	H	H
748.3398438	n/a	191575	responseLargeH	correct	n/a	0.55469	no	n/a	n/a
749.4140625	n/a	191850	largeHSmallT	correct	incongruent	0.50781	no	H	T
749.921875	n/a	191980	responseLargeH	correct	n/a	0.50781	no	n/a	n/a
750.9882812	n/a	192253	largeTSmallH	correct	incongruent	0.73828	no	T	H
751.7265625	n/a	192442	responseLargeT	correct	n/a	0.73828	no	n/a	n/a
752.8007812	n/a	192717	largeTSmallH	correct	incongruent	0.52344	no	T	H
753.3242188	n/a	192851	responseLargeT	correct	n/a	0.52344	no	n/a	n/a
754.3867188	n/a	193123	largeHSmallT	correct	incongruent	0.55859	no	H	T
754.9453125	n/a	193266	responseLargeH	correct	n/a	0.55859	no	n/a	n/a
756.0117188	n/a	193539	largeHSmallH	correct	congruent	0.58984	no	H	H
756.6015625	n/a	193690	responseLargeH	correct	n/a	0.58984	no	n/a	n/a
757.6679688	n/a	193963	largeHSmallT	correct	incongruent	0.5625	no	H	T
758.2304688	n/a	194107	responseLargeH	correct	n/a	0.5625	no	n/a	n/a
759.3046875	n/a	194382	largeTSmallT	correct	congruent	0.75	no	T	T
760.0546875	n/a	194574	responseLargeT	correct	n/a	0.75	no	n/a	n/a
761.1328125	n/a	194850	largeTSmallH	correct	incongruent	0.71875	no	T	H
761.8515625	n/a	195034	responseLargeT	correct	n/a	0.71875	no	n/a	n/a
762.9179688	n/a	195307	largeHSmallT	correct	incongruent	0.53125	no	H	T
763.4492188	n/a	195443	responseLargeH	correct	n/a	0.53125	no	n/a	n/a
764.5195312	n/a	195717	largeTSmallT	correct	congruent	0.53516	no	T	T
765.0546875	n/a	195854	responseLargeT	correct	n/a	0.53516	no	n/a	n/a
766.1210938	n/a	196127	largeTSmallT	correct	congruent	0.51172	no	T	T
766.6328125	n/a	196258	responseLargeT	correct	n/a	0.51172	no	n/a	n/a
767.6914062	n/a	196529	largeHSmallT	correct	incongruent	0.52344	no	H	T
768.2148438	n/a	196663	responseLargeH	correct	n/a	0.52344	no	n/a	n/a
769.2929688	n/a	196939	largeTSmallH	correct	incongruent	0.64453	no	T	H
769.9375	n/a	197104	responseLargeT	correct	n/a	0.64453	no	n/a	n/a
771.0117188	n/a	197379	largeHSmallH	correct	congruent	0.55859	no	H	H
771.5703125	n/a	197522	responseLargeH	correct	n/a	0.55859	no	n/a	n/a
772.640625	n/a	197796	largeHSmallT	error	incongruent	0.55859	no	H	T
773.1992188	n/a	197939	responseLargeT	error	n/a	0.55859	no	n/a	n/a
774.265625	n/a	198212	largeTSmallH	correct	incongruent	0.69141	no	T	H
774.9570312	n/a	198389	responseLargeT	correct	n/a	0.69141	no	n/a	n/a
776.0273438	n/a	198663	largeTSmallT	correct	congruent	0.66016	no	T	T
776.6875	n/a	198832	responseLargeT	correct	n/a	0.66016	no	n/a	n/a
777.7578125	n/a	199106	largeHSmallH	correct	congruent	0.8125	no	H	H
778.5703125	n/a	199314	responseLargeH	correct	n/a	0.8125	no	n/a	n/a
779.6523438	n/a	199591	largeTSmallT	correct	congruent	0.65625	no	T	T
780.3085938	n/a	199759	responseLargeT	correct	n/a	0.65625	no	n/a	n/a
781.3867188	n/a	200035	largeTSmallT	correct	congruent	0.59766	no	T	T
781.984375	n/a	200188	responseLargeT	correct	n/a	0.59766	no	n/a	n/a
783.0507812	n/a	200461	largeHSmallH	correct	congruent	0.46875	no	H	H
783.5195312	n/a	200581	responseLargeH	correct	n/a	0.46875	no	n/a	n/a
784.5976562	n/a	200857	largeHSmallH	correct	congruent	0.55469	no	H	H
785.1523438	n/a	200999	responseLargeH	correct	n/a	0.55469	no	n/a	n/a
786.2265625	n/a	201274	largeHSmallH	correct	congruent	0.55859	no	H	H
786.7851562	n/a	201417	responseLargeH	correct	n/a	0.55859	no	n/a	n/a
787.8515625	n/a	201690	largeHSmallH	correct	congruent	0.72656	no	H	H
788.578125	n/a	201876	responseLargeH	correct	n/a	0.72656	no	n/a	n/a
789.6523438	n/a	202151	largeTSmallT	correct	congruent	0.53906	no	T	T
790.1914062	n/a	202289	responseLargeT	correct	n/a	0.53906	no	n/a	n/a
791.2539062	n/a	202561	largeTSmallH	correct	incongruent	0.71094	no	T	H
791.9648438	n/a	202743	responseLargeT	correct	n/a	0.71094	no	n/a	n/a
793.0390625	n/a	203018	largeHSmallH	correct	congruent	0.61328	no	H	H
793.6523438	n/a	203175	responseLargeH	correct	n/a	0.61328	no	n/a	n/a
794.71875	n/a	203448	largeHSmallT	correct	incongruent	0.52734	no	H	T
795.2460938	n/a	203583	responseLargeH	correct	n/a	0.52734	no	n/a	n/a
796.3203125	n/a	203858	largeTSmallH	correct	incongruent	1.0195	no	T	H
797.3398438	n/a	204119	responseLargeT	correct	n/a	1.0195	no	n/a	n/a
798.4101562	n/a	204393	largeTSmallT	correct	congruent	0.53906	no	T	T
798.9492188	n/a	204531	responseLargeT	correct	n/a	0.53906	no	n/a	n/a
800.0234375	n/a	204806	largeTSmallT	correct	congruent	0.49219	no	T	T
800.515625	n/a	204932	responseLargeT	correct	n/a	0.49219	no	n/a	n/a
801.5859375	n/a	205206	largeTSmallT	correct	congruent	0.64844	no	T	T
802.234375	n/a	205372	responseLargeT	correct	n/a	0.64844	no	n/a	n/a
803.3164062	n/a	205649	largeHSmallT	correct	incongruent	0.59766	no	H	T
803.9140625	n/a	205802	responseLargeH	correct	n/a	0.59766	no	n/a	n/a
804.984375	n/a	206076	largeHSmallH	correct	congruent	0.63672	no	H	H
805.6210938	n/a	206239	responseLargeH	correct	n/a	0.63672	no	n/a	n/a
806.6914062	n/a	206513	largeTSmallT	correct	congruent	0.52734	no	T	T
807.21875	n/a	206648	responseLargeT	correct	n/a	0.52734	no	n/a	n/a
808.2929688	n/a	206923	largeHSmallT	correct	incongruent	0.78906	no	H	T
809.0820312	n/a	207125	responseLargeH	correct	n/a	0.78906	no	n/a	n/a
810.1445312	n/a	207397	largeTSmallT	correct	congruent	0.71094	no	T	T
810.8554688	n/a	207579	responseLargeT	correct	n/a	0.71094	no	n/a	n/a
811.9179688	n/a	207851	largeTSmallH	correct	incongruent	0.73828	no	T	H
812.65625	n/a	208040	responseLargeT	correct	n/a	0.73828	no	n/a	n/a
813.7304688	n/a	208315	largeTSmallH	correct	incongruent	0.66406	no	T	H
814.3945312	n/a	208485	responseLargeT	correct	n/a	0.66406	no	n/a	n/a
815.4648438	n/a	208759	largeHSmallH	correct	congruent	0.54688	no	H	H
816.0117188	n/a	208899	responseLargeH	correct	n/a	0.54688	no	n/a	n/a
817.0898438	n/a	209175	largeTSmallH	correct	incongruent	0.57812	no	T	H
817.6679688	n/a	209323	responseLargeT	correct	n/a	0.57812	no	n/a	n/a
818.7460938	n/a	209599	largeHSmallT	correct	incongruent	0.58984	no	H	T
819.3359375	n/a	209750	responseLargeH	correct	n/a	0.58984	no	n/a	n/a
820.4101562	n/a	210025	largeHSmallT	correct	incongruent	0.60938	no	H	T
821.0195312	n/a	210181	responseLargeH	correct	n/a	0.60938	no	n/a	n/a
822.0898438	n/a	210455	largeTSmallH	correct	incongruent	0.5625	no	T	H
822.6523438	n/a	210599	responseLargeT	correct	n/a	0.5625	no	n/a	n/a
823.71875	n/a	210872	largeHSmallT	correct	incongruent	0.73438	no	H	T
824.453125	n/a	211060	responseLargeH	correct	n/a	0.73438	no	n/a	n/a
825.53125	n/a	211336	largeHSmallH	correct	congruent	0.58203	no	H	H
826.1132812	n/a	211485	responseLargeH	correct	n/a	0.58203	no	n/a	n/a
827.1835938	n/a	211759	largeTSmallT	correct	congruent	0.75391	no	T	T
827.9375	n/a	211952	responseLargeT	correct	n/a	0.75391	no	n/a	n/a
829.0117188	n/a	212227	largeTSmallH	correct	incongruent	0.52734	no	T	H
829.5390625	n/a	212362	responseLargeT	correct	n/a	0.52734	no	n/a	n/a
830.609375	n/a	212636	largeHSmallH	correct	congruent	0.61328	no	H	H
831.2226562	n/a	212793	responseLargeH	correct	n/a	0.61328	no	n/a	n/a
832.2929688	n/a	213067	largeHSmallT	correct	incongruent	0.65234	no	H	T
832.9453125	n/a	213234	responseLargeH	correct	n/a	0.65234	no	n/a	n/a
834.0117188	n/a	213507	largeTSmallH	correct	incongruent	0.63281	no	T	H
834.6445312	n/a	213669	responseLargeT	correct	n/a	0.63281	no	n/a	n/a
835.71875	n/a	213944	largeHSmallT	correct	incongruent	0.65625	no	H	T
836.375	n/a	214112	responseLargeH	correct	n/a	0.65625	no	n/a	n/a
837.4492188	n/a	214387	largeHSmallH	correct	congruent	0.49219	no	H	H
837.9414062	n/a	214513	responseLargeH	correct	n/a	0.49219	no	n/a	n/a
839.0117188	n/a	214787	largeHSmallH	correct	congruent	0.57422	no	H	H
839.5859375	n/a	214934	responseLargeH	correct	n/a	0.57422	no	n/a	n/a
840.6640625	n/a	215210	largeTSmallT	correct	congruent	0.66016	no	T	T
841.3242188	n/a	215379	responseLargeT	correct	n/a	0.66016	no	n/a	n/a
842.3984375	n/a	215654	largeTSmallT	correct	congruent	0.66797	no	T	T
843.0664062	n/a	215825	responseLargeT	correct	n/a	0.66797	no	n/a	n/a
844.1445312	n/a	216101	largeHSmallH	correct	congruent	0.53906	no	H	H
844.6835938	n/a	216239	responseLargeH	correct	n/a	0.53906	no	n/a	n/a
845.7578125	n/a	216514	largeTSmallH	correct	incongruent	0.62109	no	T	H
846.3789062	n/a	216673	responseLargeT	correct	n/a	0.62109	no	n/a	n/a
847.4492188	n/a	216947	largeHSmallT	correct	incongruent	0.57422	no	H	T
848.0234375	n/a	217094	responseLargeH	correct	n/a	0.57422	no	n/a	n/a
849.1054688	n/a	217371	largeTSmallH	correct	incongruent	0.5625	no	T	H
849.6679688	n/a	217515	responseLargeT	correct	n/a	0.5625	no	n/a	n/a
850.7421875	n/a	217790	largeHSmallT	correct	incongruent	0.66016	no	H	T
851.4023438	n/a	217959	responseLargeH	correct	n/a	0.66016	no	n/a	n/a
852.4648438	n/a	218231	largeHSmallT	correct	incongruent	0.61719	no	H	T
853.0820312	n/a	218389	responseLargeH	correct	n/a	0.61719	no	n/a	n/a
854.15625	n/a	218664	largeTSmallT	correct	congruent	0.52344	no	T	T
854.6796875	n/a	218798	responseLargeT	correct	n/a	0.52344	no	n/a	n/a
855.7421875	n/a	219070	largeTSmallH	correct	incongruent	0.80078	no	T	H
856.5429688	n/a	219275	responseLargeT	correct	n/a	0.80078	no	n/a	n/a
857.625	n/a	219552	largeTSmallH	correct	incongruent	0.64844	no	T	H
858.2734375	n/a	219718	responseLargeT	correct	n/a	0.64844	no	n/a	n/a
859.34375	n/a	219992	largeHSmallT	correct	incongruent	0.80078	no	H	T
860.1445312	n/a	220197	responseLargeH	correct	n/a	0.80078	no	n/a	n/a
861.2226562	n/a	220473	largeHSmallH	correct	congruent	0.55078	no	H	H
861.7734375	n/a	220614	responseLargeH	correct	n/a	0.55078	no	n/a	n/a
862.8515625	n/a	220890	largeHSmallT	correct	incongruent	0.77734	no	H	T
863.6289062	n/a	221089	responseLargeH	correct	n/a	0.77734	no	n/a	n/a
864.703125	n/a	221364	largeHSmallT	correct	incongruent	0.71094	no	H	T
865.4140625	n/a	221546	responseLargeH	correct	n/a	0.71094	no	n/a	n/a
866.4882812	n/a	221821	largeTSmallH	correct	incongruent	0.55078	no	T	H
867.0390625	n/a	221962	responseLargeT	correct	n/a	0.55078	no	n/a	n/a
868.1171875	n/a	222238	largeHSmallT	correct	incongruent	0.77344	no	H	T
868.890625	n/a	222436	responseLargeH	correct	n/a	0.77344	no	n/a	n/a
869.9570312	n/a	222709	largeTSmallH	correct	incongruent	0.61719	no	T	H
870.5742188	n/a	222867	responseLargeT	correct	n/a	0.61719	no	n/a	n/a
871.6367188	n/a	223139	largeHSmallT	correct	incongruent	0.55469	no	H	T
872.1914062	n/a	223281	responseLargeH	correct	n/a	0.55469	no	n/a	n/a
873.2617188	n/a	223555	largeHSmallH	correct	congruent	0.65234	no	H	H
873.9140625	n/a	223722	responseLargeH	correct	n/a	0.65234	no	n/a	n/a
874.984375	n/a	223996	largeHSmallT	correct	incongruent	0.6875	no	H	T
875.671875	n/a	224172	responseLargeH	correct	n/a	0.6875	no	n/a	n/a
876.7421875	n/a	224446	largeHSmallT	correct	incongruent	0.56641	no	H	T
877.3085938	n/a	224591	responseLargeH	correct	n/a	0.56641	no	n/a	n/a
878.3828125	n/a	224866	largeTSmallH	correct	incongruent	0.60938	no	T	H
878.9921875	n/a	225022	responseLargeT	correct	n/a	0.60938	no	n/a	n/a
880.0625	n/a	225296	largeHSmallT	correct	incongruent	0.52344	no	H	T
880.5859375	n/a	225430	responseLargeH	correct	n/a	0.52344	no	n/a	n/a
881.6640625	n/a	225706	largeTSmallT	correct	congruent	0.53516	no	T	T
882.1992188	n/a	225843	responseLargeT	correct	n/a	0.53516	no	n/a	n/a
883.2773438	n/a	226119	largeTSmallT	correct	congruent	0.6875	no	T	T
883.9648438	n/a	226295	responseLargeT	correct	n/a	0.6875	no	n/a	n/a
885.0351562	n/a	226569	largeHSmallT	correct	incongruent	0.70703	no	H	T
885.7421875	n/a	226750	responseLargeH	correct	n/a	0.70703	no	n/a	n/a
886.8242188	n/a	227027	largeHSmallH	correct	congruent	0.59375	no	H	H
887.4179688	n/a	227179	responseLargeH	correct	n/a	0.59375	no	n/a	n/a
888.4882812	n/a	227453	largeHSmallT	correct	incongruent	0.52344	no	H	T
889.0117188	n/a	227587	responseLargeH	correct	n/a	0.52344	no	n/a	n/a
890.0742188	n/a	227859	largeTSmallH	correct	incongruent	0.69922	no	T	H
890.7734375	n/a	228038	responseLargeT	correct	n/a	0.69922	no	n/a	n/a
891.8359375	n/a	228310	largeTSmallH	correct	incongruent	0.77734	no	T	H
892.6132812	n/a	228509	responseLargeT	correct	n/a	0.77734	no	n/a	n/a
893.6875	n/a	228784	largeHSmallH	correct	congruent	0.71094	no	H	H
894.3984375	n/a	228966	responseLargeH	correct	n/a	0.71094	no	n/a	n/a
895.4609375	n/a	229238	largeHSmallT	correct	incongruent	0.73047	no	H	T
896.1914062	n/a	229425	responseLargeH	correct	n/a	0.73047	no	n/a	n/a
897.25	n/a	229696	largeTSmallH	correct	incongruent	0.66406	no	T	H
897.9140625	n/a	229866	responseLargeT	correct	n/a	0.66406	no	n/a	n/a
898.984375	n/a	230140	largeHSmallH	correct	congruent	0.625	no	H	H
899.609375	n/a	230300	responseLargeH	correct	n/a	0.625	no	n/a	n/a
900.6875	n/a	230576	largeHSmallH	correct	congruent	0.5625	no	H	H
901.25	n/a	230720	responseLargeH	correct	n/a	0.5625	no	n/a	n/a
902.328125	n/a	230996	largeHSmallT	correct	incongruent	0.60156	no	H	T
902.9296875	n/a	231150	responseLargeH	correct	n/a	0.60156	no	n/a	n/a
903.9960938	n/a	231423	largeTSmallH	correct	incongruent	0.58203	no	T	H
904.578125	n/a	231572	responseLargeT	correct	n/a	0.58203	no	n/a	n/a
905.6484375	n/a	231846	largeTSmallT	correct	congruent	0.63281	no	T	T
906.28125	n/a	232008	responseLargeT	correct	n/a	0.63281	no	n/a	n/a
907.3554688	n/a	232283	largeTSmallH	correct	incongruent	0.84766	no	T	H
908.203125	n/a	232500	responseLargeT	correct	n/a	0.84766	no	n/a	n/a
909.2617188	n/a	232771	largeTSmallH	correct	incongruent	0.66797	no	T	H
909.9296875	n/a	232942	responseLargeT	correct	n/a	0.66797	no	n/a	n/a
910.9960938	n/a	233215	largeTSmallT	correct	congruent	0.55859	no	T	T
911.5546875	n/a	233358	responseLargeT	correct	n/a	0.55859	no	n/a	n/a
912.6210938	n/a	233631	largeTSmallT	correct	congruent	0.46875	no	T	T
913.0898438	n/a	233751	responseLargeT	correct	n/a	0.46875	no	n/a	n/a
914.1679688	n/a	234027	largeHSmallH	correct	congruent	0.54688	no	H	H
914.7148438	n/a	234167	responseLargeH	correct	n/a	0.54688	no	n/a	n/a
915.796875	n/a	234444	largeTSmallH	correct	incongruent	0.61719	no	T	H
916.4140625	n/a	234602	responseLargeT	correct	n/a	0.61719	no	n/a	n/a
917.4882812	n/a	234877	largeHSmallT	correct	incongruent	0.76172	no	H	T
918.25	n/a	235072	responseLargeH	correct	n/a	0.76172	no	n/a	n/a
919.3164062	n/a	235345	largeTSmallH	correct	incongruent	0.6875	no	T	H
920.0039062	n/a	235521	responseLargeT	correct	n/a	0.6875	no	n/a	n/a
921.0742188	n/a	235795	largeTSmallT	correct	congruent	0.66797	no	T	T
921.7421875	n/a	235966	responseLargeT	correct	n/a	0.66797	no	n/a	n/a
922.8085938	n/a	236239	largeTSmallT	correct	congruent	0.58203	no	T	T
923.390625	n/a	236388	responseLargeT	correct	n/a	0.58203	no	n/a	n/a
924.4609375	n/a	236662	largeHSmallT	correct	incongruent	0.64062	no	H	T
925.1015625	n/a	236826	responseLargeH	correct	n/a	0.64062	no	n/a	n/a
926.1679688	n/a	237099	largeTSmallT	correct	congruent	0.61328	no	T	T
926.78125	n/a	237256	responseLargeT	correct	n/a	0.61328	no	n/a	n/a
927.8476562	n/a	237529	largeHSmallT	correct	incongruent	0.73828	no	H	T
928.5859375	n/a	237718	responseLargeH	correct	n/a	0.73828	no	n/a	n/a
929.6601562	n/a	237993	largeHSmallT	correct	incongruent	0.69141	no	H	T
930.3515625	n/a	238170	responseLargeH	correct	n/a	0.69141	no	n/a	n/a
931.421875	n/a	238444	largeTSmallT	correct	congruent	0.45703	no	T	T
931.8789062	n/a	238561	responseLargeT	correct	n/a	0.45703	no	n/a	n/a
932.953125	n/a	238836	largeTSmallH	correct	incongruent	0.62891	no	T	H
933.5820312	n/a	238997	responseLargeT	correct	n/a	0.62891	no	n/a	n/a
934.6484375	n/a	239270	largeTSmallT	correct	congruent	0.62891	no	T	T
935.2773438	n/a	239431	responseLargeT	correct	n/a	0.62891	no	n/a	n/a
936.3554688	n/a	239707	largeTSmallT	correct	congruent	0.48828	no	T	T
936.84375	n/a	239832	responseLargeT	correct	n/a	0.48828	no	n/a	n/a
937.9140625	n/a	240106	largeTSmallT	correct	congruent	0.53516	no	T	T
938.4492188	n/a	240243	responseLargeT	correct	n/a	0.53516	no	n/a	n/a
939.515625	n/a	240516	largeTSmallH	correct	incongruent	0.51562	no	T	H
940.03125	n/a	240648	responseLargeT	correct	n/a	0.51562	no	n/a	n/a
941.1132812	n/a	240925	largeHSmallT	correct	incongruent	0.64062	no	H	T
941.7539062	n/a	241089	responseLargeH	correct	n/a	0.64062	no	n/a	n/a
942.8203125	n/a	241362	largeHSmallT	correct	incongruent	0.90625	no	H	T
943.7265625	n/a	241594	responseLargeH	correct	n/a	0.90625	no	n/a	n/a
944.7929688	n/a	241867	largeTSmallH	correct	incongruent	0.59766	no	T	H
945.390625	n/a	242020	responseLargeT	correct	n/a	0.59766	no	n/a	n/a
946.4609375	n/a	242294	largeHSmallT	correct	incongruent	0.66406	no	H	T
947.125	n/a	242464	responseLargeH	correct	n/a	0.66406	no	n/a	n/a
948.1953125	n/a	242738	largeTSmallH	correct	incongruent	0.66016	no	T	H
948.8554688	n/a	242907	responseLargeT	correct	n/a	0.66016	no	n/a	n/a
949.9257812	n/a	243181	largeTSmallT	correct	congruent	0.58203	no	T	T
950.5078125	n/a	243330	responseLargeT	correct	n/a	0.58203	no	n/a	n/a
951.5820312	n/a	243605	largeHSmallT	correct	incongruent	0.75	no	H	T
952.3320312	n/a	243797	responseLargeH	correct	n/a	0.75	no	n/a	n/a
953.40625	n/a	244072	largeTSmallH	correct	incongruent	0.82031	no	T	H
954.2265625	n/a	244282	responseLargeT	correct	n/a	0.82031	no	n/a	n/a
955.3007812	n/a	244557	largeTSmallH	correct	incongruent	0.58984	no	T	H
955.890625	n/a	244708	responseLargeT	correct	n/a	0.58984	no	n/a	n/a
956.953125	n/a	244980	largeHSmallH	correct	congruent	0.62109	no	H	H
957.5742188	n/a	245139	responseLargeH	correct	n/a	0.62109	no	n/a	n/a
958.6484375	n/a	245414	largeTSmallH	correct	incongruent	0.56641	no	T	H
959.2148438	n/a	245559	responseLargeT	correct	n/a	0.56641	no	n/a	n/a
960.2734375	n/a	245830	largeHSmallH	correct	congruent	0.75	no	H	H
961.0234375	n/a	246022	responseLargeH	correct	n/a	0.75	no	n/a	n/a
962.0859375	n/a	246294	largeTSmallT	correct	congruent	0.71484	no	T	T
962.8007812	n/a	246477	responseLargeT	correct	n/a	0.71484	no	n/a	n/a
963.875	n/a	246752	largeHSmallT	correct	incongruent	0.67969	no	H	T
964.5546875	n/a	246926	responseLargeH	correct	n/a	0.67969	no	n/a	n/a
965.6328125	n/a	247202	largeHSmallH	correct	congruent	0.60938	no	H	H
966.2421875	n/a	247358	responseLargeH	correct	n/a	0.60938	no	n/a	n/a
967.3125	n/a	247632	largeTSmallH	correct	incongruent	0.60156	no	T	H
967.9140625	n/a	247786	responseLargeT	correct	n/a	0.60156	no	n/a	n/a
968.9804688	n/a	248059	largeTSmallT	correct	congruent	0.57031	no	T	T
969.5507812	n/a	248205	responseLargeT	correct	n/a	0.57031	no	n/a	n/a
970.6210938	n/a	248479	largeTSmallT	correct	congruent	0.55078	no	T	T
971.171875	n/a	248620	responseLargeT	correct	n/a	0.55078	no	n/a	n/a
972.2460938	n/a	248895	largeHSmallT	correct	incongruent	0.65625	no	H	T
972.9023438	n/a	249063	responseLargeH	correct	n/a	0.65625	no	n/a	n/a
973.9804688	n/a	249339	largeTSmallT	correct	congruent	0.72656	no	T	T
974.7070312	n/a	249525	responseLargeT	correct	n/a	0.72656	no	n/a	n/a
975.765625	n/a	249796	largeTSmallH	correct	incongruent	0.61328	no	T	H
976.3789062	n/a	249953	responseLargeT	correct	n/a	0.61328	no	n/a	n/a
977.4609375	n/a	250230	largeHSmallT	correct	incongruent	0.73047	no	H	T
978.1914062	n/a	250417	responseLargeH	correct	n/a	0.73047	no	n/a	n/a
979.2617188	n/a	250691	largeTSmallH	correct	incongruent	0.60156	no	T	H
979.8632812	n/a	250845	responseLargeT	correct	n/a	0.60156	no	n/a	n/a
980.9414062	n/a	251121	largeHSmallH	correct	congruent	0.82031	no	H	H
981.7617188	n/a	251331	responseLargeH	correct	n/a	0.82031	no	n/a	n/a
982.8320312	n/a	251605	largeTSmallT	correct	congruent	0.67188	no	T	T
983.5039062	n/a	251777	responseLargeT	correct	n/a	0.67188	no	n/a	n/a
984.5664062	n/a	252049	largeTSmallH	correct	incongruent	0.71094	no	T	H
985.2773438	n/a	252231	responseLargeT	correct	n/a	0.71094	no	n/a	n/a
986.3515625	n/a	252506	largeTSmallT	correct	congruent	0.61328	no	T	T
986.9648438	n/a	252663	responseLargeT	correct	n/a	0.61328	no	n/a	n/a
988.0351562	n/a	252937	largeTSmallH	correct	incongruent	0.55859	no	T	H
988.59375	n/a	253080	responseLargeT	correct	n/a	0.55859	no	n/a	n/a
989.671875	n/a	253356	largeTSmallT	correct	congruent	0.55078	no	T	T
990.2226562	n/a	253497	responseLargeT	correct	n/a	0.55078	no	n/a	n/a
991.2851562	n/a	253769	largeTSmallT	correct	congruent	0.5	no	T	T
991.7851562	n/a	253897	responseLargeT	correct	n/a	0.5	no	n/a	n/a
992.859375	n/a	254172	largeHSmallT	correct	incongruent	0.62109	no	H	T
993.4804688	n/a	254331	responseLargeH	correct	n/a	0.62109	no	n/a	n/a
994.5546875	n/a	254606	largeTSmallT	correct	congruent	0.61328	no	T	T
995.1679688	n/a	254763	responseLargeT	correct	n/a	0.61328	no	n/a	n/a
996.234375	n/a	255036	largeHSmallH	correct	congruent	0.67969	no	H	H
996.9140625	n/a	255210	responseLargeH	correct	n/a	0.67969	no	n/a	n/a
997.9921875	n/a	255486	largeHSmallH	correct	congruent	0.54297	no	H	H
998.5351562	n/a	255625	responseLargeH	correct	n/a	0.54297	no	n/a	n/a
999.6054688	n/a	255899	largeHSmallH	correct	congruent	0.49219	no	H	H
1000.097656	n/a	256025	responseLargeH	correct	n/a	0.49219	no	n/a	n/a
1001.167969	n/a	256299	largeTSmallH	correct	incongruent	0.64453	no	T	H
1001.8125	n/a	256464	responseLargeT	correct	n/a	0.64453	no	n/a	n/a
1002.886719	n/a	256739	largeHSmallH	correct	congruent	0.69531	no	H	H
1003.582031	n/a	256917	responseLargeH	correct	n/a	0.69531	no	n/a	n/a
1004.644531	n/a	257189	largeTSmallH	correct	incongruent	0.64062	no	T	H
1005.285156	n/a	257353	responseLargeT	correct	n/a	0.64062	no	n/a	n/a
1006.351562	n/a	257626	largeHSmallH	correct	congruent	0.53125	no	H	H
1006.882812	n/a	257762	responseLargeH	correct	n/a	0.53125	no	n/a	n/a
1007.953125	n/a	258036	largeHSmallT	correct	incongruent	0.55078	no	H	T
1008.503906	n/a	258177	responseLargeH	correct	n/a	0.55078	no	n/a	n/a
1009.578125	n/a	258452	largeHSmallT	correct	incongruent	0.53516	no	H	T
1010.113281	n/a	258589	responseLargeH	correct	n/a	0.53516	no	n/a	n/a
1011.179688	n/a	258862	largeHSmallH	correct	congruent	0.54688	no	H	H
1011.726562	n/a	259002	responseLargeH	correct	n/a	0.54688	no	n/a	n/a
1012.792969	n/a	259275	largeTSmallT	correct	congruent	0.54688	no	T	T
1013.339844	n/a	259415	responseLargeT	correct	n/a	0.54688	no	n/a	n/a
1014.40625	n/a	259688	largeHSmallH	correct	congruent	0.49609	no	H	H
1014.902344	n/a	259815	responseLargeH	correct	n/a	0.49609	no	n/a	n/a
1015.980469	n/a	260091	largeHSmallH	correct	congruent	0.49219	no	H	H
1016.472656	n/a	260217	responseLargeH	correct	n/a	0.49219	no	n/a	n/a
1017.550781	n/a	260493	largeHSmallH	correct	congruent	0.62109	no	H	H
1018.171875	n/a	260652	responseLargeH	correct	n/a	0.62109	no	n/a	n/a
1019.246094	n/a	260927	largeHSmallH	correct	congruent	0.5625	no	H	H
1019.808594	n/a	261071	responseLargeH	correct	n/a	0.5625	no	n/a	n/a
1020.886719	n/a	261347	largeHSmallT	correct	incongruent	0.54297	no	H	T
1021.429688	n/a	261486	responseLargeH	correct	n/a	0.54297	no	n/a	n/a
1022.5	n/a	261760	largeHSmallH	correct	congruent	0.46484	no	H	H
1022.964844	n/a	261879	responseLargeH	correct	n/a	0.46484	no	n/a	n/a
1024.03125	n/a	262152	largeHSmallT	correct	incongruent	0.53906	no	H	T
1024.570312	n/a	262290	responseLargeH	correct	n/a	0.53906	no	n/a	n/a
1025.644531	n/a	262565	largeTSmallT	correct	congruent	0.53906	no	T	T
1026.183594	n/a	262703	responseLargeT	correct	n/a	0.53906	no	n/a	n/a
1027.246094	n/a	262975	largeTSmallT	correct	congruent	0.53906	no	T	T
1027.785156	n/a	263113	responseLargeT	correct	n/a	0.53906	no	n/a	n/a
1028.859375	n/a	263388	largeTSmallH	correct	incongruent	0.55859	no	T	H
1029.417969	n/a	263531	responseLargeT	correct	n/a	0.55859	no	n/a	n/a
1030.484375	n/a	263804	largeTSmallH	correct	incongruent	0.48047	no	T	H
1030.964844	n/a	263927	responseLargeT	correct	n/a	0.48047	no	n/a	n/a
1032.046875	n/a	264204	largeTSmallT	correct	congruent	0.58594	no	T	T
1032.632812	n/a	264354	responseLargeT	correct	n/a	0.58594	no	n/a	n/a
1033.710938	n/a	264630	largeTSmallH	correct	incongruent	0.56641	no	T	H
1034.277344	n/a	264775	responseLargeT	correct	n/a	0.56641	no	n/a	n/a
1035.351562	n/a	265050	largeTSmallT	correct	congruent	0.46875	no	T	T
1035.820312	n/a	265170	responseLargeT	correct	n/a	0.46875	no	n/a	n/a
1036.898438	n/a	265446	largeTSmallH	correct	incongruent	0.49609	no	T	H
1037.394531	n/a	265573	responseLargeT	correct	n/a	0.49609	no	n/a	n/a
1038.472656	n/a	265849	largeTSmallH	correct	incongruent	0.59766	no	T	H
1039.070312	n/a	266002	responseLargeT	correct	n/a	0.59766	no	n/a	n/a
1040.136719	n/a	266275	largeTSmallT	correct	congruent	0.48438	no	T	T
1040.621094	n/a	266399	responseLargeT	correct	n/a	0.48438	no	n/a	n/a
1044.40625	n/a	267368	largeTSmallH	correct	incongruent	1.3828	no	T	H
1045.789062	n/a	267722	responseSmallH	correct	n/a	1.3828	no	n/a	n/a
1046.859375	n/a	267996	largeHSmallT	correct	incongruent	1.0039	no	H	T
1047.863281	n/a	268253	responseSmallT	correct	n/a	1.0039	no	n/a	n/a
1048.9375	n/a	268528	largeTSmallH	correct	incongruent	0.57812	no	T	H
1049.515625	n/a	268676	responseSmallH	correct	n/a	0.57812	no	n/a	n/a
1050.59375	n/a	268952	largeHSmallH	correct	congruent	0.81641	no	H	H
1051.410156	n/a	269161	responseSmallH	correct	n/a	0.81641	no	n/a	n/a
1052.472656	n/a	269433	largeTSmallT	correct	congruent	0.48438	no	T	T
1052.957031	n/a	269557	responseSmallT	correct	n/a	0.48438	no	n/a	n/a
1054.019531	n/a	269829	largeHSmallH	correct	congruent	0.60938	no	H	H
1054.628906	n/a	269985	responseSmallH	correct	n/a	0.60938	no	n/a	n/a
1055.710938	n/a	270262	largeTSmallH	correct	incongruent	0.5625	no	T	H
1056.273438	n/a	270406	responseSmallH	correct	n/a	0.5625	no	n/a	n/a
1057.351562	n/a	270682	largeTSmallH	correct	incongruent	0.625	no	T	H
1057.976562	n/a	270842	responseSmallH	correct	n/a	0.625	no	n/a	n/a
1059.042969	n/a	271115	largeHSmallH	correct	congruent	0.67969	no	H	H
1059.722656	n/a	271289	responseSmallH	correct	n/a	0.67969	no	n/a	n/a
1060.792969	n/a	271563	largeHSmallT	correct	incongruent	0.58594	no	H	T
1061.378906	n/a	271713	responseSmallT	correct	n/a	0.58594	no	n/a	n/a
1062.445312	n/a	271986	largeHSmallH	correct	congruent	0.65625	no	H	H
1063.101562	n/a	272154	responseSmallH	correct	n/a	0.65625	no	n/a	n/a
1064.179688	n/a	272430	largeHSmallT	correct	incongruent	0.56641	no	H	T
1064.746094	n/a	272575	responseSmallT	correct	n/a	0.56641	no	n/a	n/a
1065.816406	n/a	272849	largeHSmallH	correct	congruent	0.46875	no	H	H
1066.285156	n/a	272969	responseSmallH	correct	n/a	0.46875	no	n/a	n/a
1067.363281	n/a	273245	largeTSmallT	correct	congruent	0.43359	no	T	T
1067.796875	n/a	273356	responseSmallT	correct	n/a	0.43359	no	n/a	n/a
1068.871094	n/a	273631	largeHSmallH	correct	congruent	0.47266	no	H	H
1069.34375	n/a	273752	responseSmallH	correct	n/a	0.47266	no	n/a	n/a
1070.417969	n/a	274027	largeTSmallT	correct	congruent	0.46484	no	T	T
1070.882812	n/a	274146	responseSmallT	correct	n/a	0.46484	no	n/a	n/a
1071.964844	n/a	274423	largeTSmallH	correct	incongruent	0.63281	no	T	H
1072.597656	n/a	274585	responseSmallH	correct	n/a	0.63281	no	n/a	n/a
1073.671875	n/a	274860	largeHSmallT	correct	incongruent	0.62109	no	H	T
1074.292969	n/a	275019	responseSmallT	correct	n/a	0.62109	no	n/a	n/a
1075.363281	n/a	275293	largeHSmallH	correct	congruent	0.47656	no	H	H
1075.839844	n/a	275415	responseSmallH	correct	n/a	0.47656	no	n/a	n/a
1076.910156	n/a	275689	largeTSmallT	correct	congruent	0.54297	no	T	T
1077.453125	n/a	275828	responseSmallT	correct	n/a	0.54297	no	n/a	n/a
1078.523438	n/a	276102	largeTSmallT	correct	congruent	0.60938	no	T	T
1079.132812	n/a	276258	responseSmallT	correct	n/a	0.60938	no	n/a	n/a
1080.203125	n/a	276532	largeTSmallT	correct	congruent	0.70703	no	T	T
1080.910156	n/a	276713	responseSmallT	correct	n/a	0.70703	no	n/a	n/a
1081.976562	n/a	276986	largeHSmallH	correct	congruent	0.5625	no	H	H
1082.539062	n/a	277130	responseSmallH	correct	n/a	0.5625	no	n/a	n/a
1083.617188	n/a	277406	largeTSmallT	correct	congruent	0.51953	no	T	T
1084.136719	n/a	277539	responseSmallT	correct	n/a	0.51953	no	n/a	n/a
1085.203125	n/a	277812	largeTSmallH	correct	incongruent	0.57812	no	T	H
1085.78125	n/a	277960	responseSmallH	correct	n/a	0.57812	no	n/a	n/a
1086.859375	n/a	278236	largeTSmallT	correct	congruent	0.55078	no	T	T
1087.410156	n/a	278377	responseSmallT	correct	n/a	0.55078	no	n/a	n/a
1088.484375	n/a	278652	largeHSmallT	correct	incongruent	0.73438	no	H	T
1089.21875	n/a	278840	responseSmallT	correct	n/a	0.73438	no	n/a	n/a
1090.296875	n/a	279116	largeTSmallH	correct	incongruent	0.76953	no	T	H
1091.066406	n/a	279313	responseSmallH	correct	n/a	0.76953	no	n/a	n/a
1092.136719	n/a	279587	largeHSmallH	correct	congruent	0.64062	no	H	H
1092.777344	n/a	279751	responseSmallH	correct	n/a	0.64062	no	n/a	n/a
1093.84375	n/a	280024	largeTSmallT	correct	congruent	0.61328	no	T	T
1094.457031	n/a	280181	responseSmallT	correct	n/a	0.61328	no	n/a	n/a
1095.539062	n/a	280458	largeTSmallT	correct	congruent	0.55469	no	T	T
1096.09375	n/a	280600	responseSmallT	correct	n/a	0.55469	no	n/a	n/a
1097.175781	n/a	280877	largeTSmallT	correct	congruent	0.59766	no	T	T
1097.773438	n/a	281030	responseSmallT	correct	n/a	0.59766	no	n/a	n/a
1098.84375	n/a	281304	largeHSmallT	correct	incongruent	0.80469	no	H	T
1099.648438	n/a	281510	responseSmallT	correct	n/a	0.80469	no	n/a	n/a
1100.710938	n/a	281782	largeTSmallT	correct	congruent	0.57422	no	T	T
1101.285156	n/a	281929	responseSmallT	correct	n/a	0.57422	no	n/a	n/a
1102.351562	n/a	282202	largeHSmallH	correct	congruent	0.79688	no	H	H
1103.148438	n/a	282406	responseSmallH	correct	n/a	0.79688	no	n/a	n/a
1104.21875	n/a	282680	largeTSmallH	correct	incongruent	0.58594	no	T	H
1104.804688	n/a	282830	responseSmallH	correct	n/a	0.58594	no	n/a	n/a
1105.871094	n/a	283103	largeHSmallH	correct	congruent	0.60938	no	H	H
1106.480469	n/a	283259	responseSmallH	correct	n/a	0.60938	no	n/a	n/a
1107.550781	n/a	283533	largeHSmallH	correct	congruent	0.63281	no	H	H
1108.183594	n/a	283695	responseSmallH	correct	n/a	0.63281	no	n/a	n/a
1109.257812	n/a	283970	largeHSmallT	correct	incongruent	0.75391	no	H	T
1110.011719	n/a	284163	responseSmallT	correct	n/a	0.75391	no	n/a	n/a
1111.082031	n/a	284437	largeHSmallT	correct	incongruent	0.58594	no	H	T
1111.667969	n/a	284587	responseSmallT	correct	n/a	0.58594	no	n/a	n/a
1112.738281	n/a	284861	largeTSmallT	correct	congruent	0.48047	no	T	T
1113.21875	n/a	284984	responseSmallT	correct	n/a	0.48047	no	n/a	n/a
1114.285156	n/a	285257	largeTSmallT	correct	congruent	0.61328	no	T	T
1114.898438	n/a	285414	responseSmallT	correct	n/a	0.61328	no	n/a	n/a
1115.964844	n/a	285687	largeHSmallH	correct	congruent	0.53125	no	H	H
1116.496094	n/a	285823	responseSmallH	correct	n/a	0.53125	no	n/a	n/a
1117.578125	n/a	286100	largeHSmallT	correct	incongruent	0.65625	no	H	T
1118.234375	n/a	286268	responseSmallT	correct	n/a	0.65625	no	n/a	n/a
1119.308594	n/a	286543	largeTSmallH	correct	incongruent	0.51562	no	T	H
1119.824219	n/a	286675	responseSmallH	correct	n/a	0.51562	no	n/a	n/a
1120.898438	n/a	286950	largeTSmallH	correct	incongruent	0.62109	no	T	H
1121.519531	n/a	287109	responseSmallH	correct	n/a	0.62109	no	n/a	n/a
1122.589844	n/a	287383	largeTSmallT	correct	congruent	0.51562	no	T	T
1123.105469	n/a	287515	responseSmallT	correct	n/a	0.51562	no	n/a	n/a
1124.175781	n/a	287789	largeHSmallT	correct	incongruent	0.56641	no	H	T
1124.742188	n/a	287934	responseSmallT	correct	n/a	0.56641	no	n/a	n/a
1125.816406	n/a	288209	largeHSmallT	correct	incongruent	0.58984	no	H	T
1126.40625	n/a	288360	responseSmallT	correct	n/a	0.58984	no	n/a	n/a
1127.484375	n/a	288636	largeTSmallH	correct	incongruent	0.61328	no	T	H
1128.097656	n/a	288793	responseSmallH	correct	n/a	0.61328	no	n/a	n/a
1129.164062	n/a	289066	largeHSmallT	correct	incongruent	0.64844	no	H	T
1129.8125	n/a	289232	responseSmallT	correct	n/a	0.64844	no	n/a	n/a
1130.882812	n/a	289506	largeTSmallH	correct	incongruent	0.66797	no	T	H
1131.550781	n/a	289677	responseSmallH	correct	n/a	0.66797	no	n/a	n/a
1132.628906	n/a	289953	largeHSmallT	correct	incongruent	0.55469	no	H	T
1133.183594	n/a	290095	responseSmallT	correct	n/a	0.55469	no	n/a	n/a
1134.257812	n/a	290370	largeTSmallT	correct	congruent	0.57422	no	T	T
1134.832031	n/a	290517	responseSmallT	correct	n/a	0.57422	no	n/a	n/a
1135.910156	n/a	290793	largeHSmallH	correct	congruent	0.69141	no	H	H
1136.601562	n/a	290970	responseSmallH	correct	n/a	0.69141	no	n/a	n/a
1137.667969	n/a	291243	largeHSmallT	correct	incongruent	0.55859	no	H	T
1138.226562	n/a	291386	responseSmallT	correct	n/a	0.55859	no	n/a	n/a
1139.296875	n/a	291660	largeHSmallT	correct	incongruent	0.5625	no	H	T
1139.859375	n/a	291804	responseSmallT	correct	n/a	0.5625	no	n/a	n/a
1140.921875	n/a	292076	largeTSmallH	correct	incongruent	0.58594	no	T	H
1141.507812	n/a	292226	responseSmallH	correct	n/a	0.58594	no	n/a	n/a
1142.589844	n/a	292503	largeTSmallH	correct	incongruent	0.53125	no	T	H
1143.121094	n/a	292639	responseSmallH	correct	n/a	0.53125	no	n/a	n/a
1144.1875	n/a	292912	largeTSmallT	correct	congruent	0.58203	no	T	T
1144.769531	n/a	293061	responseSmallT	correct	n/a	0.58203	no	n/a	n/a
1145.84375	n/a	293336	largeTSmallH	correct	incongruent	0.5625	no	T	H
1146.40625	n/a	293480	responseSmallH	correct	n/a	0.5625	no	n/a	n/a
1147.484375	n/a	293756	largeTSmallT	correct	congruent	0.66406	no	T	T
1148.148438	n/a	293926	responseSmallT	correct	n/a	0.66406	no	n/a	n/a
1149.214844	n/a	294199	largeHSmallH	correct	congruent	0.53125	no	H	H
1149.746094	n/a	294335	responseSmallH	correct	n/a	0.53125	no	n/a	n/a
1150.816406	n/a	294609	largeTSmallT	correct	congruent	0.55469	no	T	T
1151.371094	n/a	294751	responseSmallT	correct	n/a	0.55469	no	n/a	n/a
1152.441406	n/a	295025	largeTSmallT	correct	congruent	0.79688	no	T	T
1153.238281	n/a	295229	responseSmallT	correct	n/a	0.79688	no	n/a	n/a
1154.308594	n/a	295503	largeTSmallH	correct	incongruent	0.61719	no	T	H
1154.925781	n/a	295661	responseSmallH	correct	n/a	0.61719	no	n/a	n/a
1156.003906	n/a	295937	largeTSmallT	correct	congruent	0.55078	no	T	T
1156.554688	n/a	296078	responseSmallT	correct	n/a	0.55078	no	n/a	n/a
1157.617188	n/a	296350	largeHSmallH	correct	congruent	0.60547	no	H	H
1158.222656	n/a	296505	responseSmallH	correct	n/a	0.60547	no	n/a	n/a
1159.296875	n/a	296780	largeTSmallT	correct	congruent	0.55078	no	T	T
1159.847656	n/a	296921	responseSmallT	correct	n/a	0.55078	no	n/a	n/a
1160.910156	n/a	297193	largeHSmallH	correct	congruent	0.64844	no	H	H
1161.558594	n/a	297359	responseSmallH	correct	n/a	0.64844	no	n/a	n/a
1162.628906	n/a	297633	largeHSmallH	correct	congruent	0.62109	no	H	H
1163.25	n/a	297792	responseSmallH	correct	n/a	0.62109	no	n/a	n/a
1164.308594	n/a	298063	largeHSmallT	correct	incongruent	0.64453	no	H	T
1164.953125	n/a	298228	responseSmallT	correct	n/a	0.64453	no	n/a	n/a
1166.027344	n/a	298503	largeHSmallT	correct	incongruent	0.75	no	H	T
1166.777344	n/a	298695	responseSmallT	correct	n/a	0.75	no	n/a	n/a
1167.855469	n/a	298971	largeHSmallT	correct	incongruent	0.94922	no	H	T
1168.804688	n/a	299214	responseSmallT	correct	n/a	0.94922	no	n/a	n/a
1169.867188	n/a	299486	largeHSmallT	correct	incongruent	1.043	no	H	T
1170.910156	n/a	299753	responseSmallT	correct	n/a	1.043	no	n/a	n/a
1171.988281	n/a	300029	largeTSmallT	correct	congruent	0.64844	no	T	T
1172.636719	n/a	300195	responseSmallT	correct	n/a	0.64844	no	n/a	n/a
1173.707031	n/a	300469	largeHSmallH	correct	congruent	0.57422	no	H	H
1174.28125	n/a	300616	responseSmallH	correct	n/a	0.57422	no	n/a	n/a
1175.363281	n/a	300893	largeHSmallH	correct	congruent	0.85156	no	H	H
1176.214844	n/a	301111	responseSmallH	correct	n/a	0.85156	no	n/a	n/a
1177.296875	n/a	301388	largeHSmallH	correct	congruent	0.64062	no	H	H
1177.9375	n/a	301552	responseSmallH	correct	n/a	0.64062	no	n/a	n/a
1179.015625	n/a	301828	largeTSmallH	correct	incongruent	1.0156	no	T	H
1180.03125	n/a	302088	responseSmallH	correct	n/a	1.0156	no	n/a	n/a
1181.09375	n/a	302360	largeHSmallT	correct	incongruent	0.62891	no	H	T
1181.722656	n/a	302521	responseSmallT	correct	n/a	0.62891	no	n/a	n/a
1182.789062	n/a	302794	largeTSmallT	correct	congruent	0.79688	no	T	T
1183.585938	n/a	302998	responseSmallT	correct	n/a	0.79688	no	n/a	n/a
1184.65625	n/a	303272	largeTSmallT	correct	congruent	0.71484	no	T	T
1185.371094	n/a	303455	responseSmallT	correct	n/a	0.71484	no	n/a	n/a
1186.453125	n/a	303732	largeHSmallH	correct	congruent	0.62891	no	H	H
1187.082031	n/a	303893	responseSmallH	correct	n/a	0.62891	no	n/a	n/a
1188.148438	n/a	304166	largeHSmallH	correct	congruent	0.54297	no	H	H
1188.691406	n/a	304305	responseSmallH	correct	n/a	0.54297	no	n/a	n/a
1189.761719	n/a	304579	largeTSmallH	correct	incongruent	0.625	no	T	H
1190.386719	n/a	304739	responseSmallH	correct	n/a	0.625	no	n/a	n/a
1191.453125	n/a	305012	largeHSmallH	correct	congruent	0.58984	no	H	H
1192.042969	n/a	305163	responseSmallH	correct	n/a	0.58984	no	n/a	n/a
1193.109375	n/a	305436	largeTSmallH	correct	incongruent	0.58203	no	T	H
1193.691406	n/a	305585	responseSmallH	correct	n/a	0.58203	no	n/a	n/a
1194.761719	n/a	305859	largeHSmallH	correct	congruent	0.67578	no	H	H
1195.4375	n/a	306032	responseSmallH	correct	n/a	0.67578	no	n/a	n/a
1196.507812	n/a	306306	largeTSmallH	correct	incongruent	0.57031	no	T	H
1197.078125	n/a	306452	responseSmallH	correct	n/a	0.57031	no	n/a	n/a
1198.148438	n/a	306726	largeHSmallH	correct	congruent	0.57031	no	H	H
1198.71875	n/a	306872	responseSmallH	correct	n/a	0.57031	no	n/a	n/a
1199.789062	n/a	307146	largeTSmallH	correct	incongruent	0.65234	no	T	H
1200.441406	n/a	307313	responseSmallH	correct	n/a	0.65234	no	n/a	n/a
1201.519531	n/a	307589	largeTSmallT	correct	congruent	0.83594	no	T	T
1202.355469	n/a	307803	responseSmallT	correct	n/a	0.83594	no	n/a	n/a
1203.429688	n/a	308078	largeHSmallH	correct	congruent	0.5625	no	H	H
1203.992188	n/a	308222	responseSmallH	correct	n/a	0.5625	no	n/a	n/a
1205.066406	n/a	308497	largeHSmallT	error	incongruent	0.57422	no	H	T
1205.640625	n/a	308644	responseSmallH	error	n/a	0.57422	no	n/a	n/a
1206.722656	n/a	308921	largeHSmallT	correct	incongruent	0.87891	no	H	T
1207.601562	n/a	309146	responseSmallT	correct	n/a	0.87891	no	n/a	n/a
1208.667969	n/a	309419	largeTSmallT	correct	congruent	0.57812	no	T	T
1209.246094	n/a	309567	responseSmallT	correct	n/a	0.57812	no	n/a	n/a
1210.320312	n/a	309842	largeHSmallH	correct	congruent	0.73828	no	H	H
1211.058594	n/a	310031	responseSmallH	correct	n/a	0.73828	no	n/a	n/a
1212.132812	n/a	310306	largeHSmallT	correct	incongruent	0.55859	no	H	T
1212.691406	n/a	310449	responseSmallT	correct	n/a	0.55859	no	n/a	n/a
1213.761719	n/a	310723	largeHSmallH	correct	congruent	0.62109	no	H	H
1214.382812	n/a	310882	responseSmallH	correct	n/a	0.62109	no	n/a	n/a
1215.453125	n/a	311156	largeHSmallT	correct	incongruent	0.53125	no	H	T
1215.984375	n/a	311292	responseSmallT	correct	n/a	0.53125	no	n/a	n/a
1217.054688	n/a	311566	largeTSmallT	correct	congruent	0.57422	no	T	T
1217.628906	n/a	311713	responseSmallT	correct	n/a	0.57422	no	n/a	n/a
1218.695312	n/a	311986	largeHSmallH	correct	congruent	0.66797	no	H	H
1219.363281	n/a	312157	responseSmallH	correct	n/a	0.66797	no	n/a	n/a
1220.425781	n/a	312429	largeHSmallH	correct	congruent	0.62891	no	H	H
1221.054688	n/a	312590	responseSmallH	correct	n/a	0.62891	no	n/a	n/a
1222.132812	n/a	312866	largeTSmallT	correct	congruent	0.61328	no	T	T
1222.746094	n/a	313023	responseSmallT	correct	n/a	0.61328	no	n/a	n/a
1223.8125	n/a	313296	largeHSmallT	correct	incongruent	0.90234	no	H	T
1224.714844	n/a	313527	responseSmallT	correct	n/a	0.90234	no	n/a	n/a
1225.773438	n/a	313798	largeHSmallT	correct	incongruent	0.55469	no	H	T
1226.328125	n/a	313940	responseSmallT	correct	n/a	0.55469	no	n/a	n/a
1227.402344	n/a	314215	largeHSmallH	correct	congruent	0.56641	no	H	H
1227.96875	n/a	314360	responseSmallH	correct	n/a	0.56641	no	n/a	n/a
1229.039062	n/a	314634	largeHSmallT	correct	incongruent	0.69141	no	H	T
1229.730469	n/a	314811	responseSmallT	correct	n/a	0.69141	no	n/a	n/a
1230.800781	n/a	315085	largeTSmallH	correct	incongruent	0.60156	no	T	H
1231.402344	n/a	315239	responseSmallH	correct	n/a	0.60156	no	n/a	n/a
1232.46875	n/a	315512	largeTSmallT	correct	congruent	0.54688	no	T	T
1233.015625	n/a	315652	responseSmallT	correct	n/a	0.54688	no	n/a	n/a
1234.09375	n/a	315928	largeTSmallH	correct	incongruent	0.64453	no	T	H
1234.738281	n/a	316093	responseSmallH	correct	n/a	0.64453	no	n/a	n/a
1235.8125	n/a	316368	largeTSmallH	correct	incongruent	0.57812	no	T	H
1236.390625	n/a	316516	responseSmallH	correct	n/a	0.57812	no	n/a	n/a
1237.46875	n/a	316792	largeTSmallH	correct	incongruent	0.92188	no	T	H
1238.390625	n/a	317028	responseSmallH	correct	n/a	0.92188	no	n/a	n/a
1239.453125	n/a	317300	largeTSmallH	correct	incongruent	0.84375	no	T	H
1240.296875	n/a	317516	responseSmallH	correct	n/a	0.84375	no	n/a	n/a
1241.359375	n/a	317788	largeHSmallT	correct	incongruent	0.87891	no	H	T
1242.238281	n/a	318013	responseSmallT	correct	n/a	0.87891	no	n/a	n/a
1243.308594	n/a	318287	largeTSmallH	correct	incongruent	0.55078	no	T	H
1243.859375	n/a	318428	responseSmallH	correct	n/a	0.55078	no	n/a	n/a
1244.933594	n/a	318703	largeHSmallT	correct	incongruent	0.85156	no	H	T
1245.785156	n/a	318921	responseSmallT	correct	n/a	0.85156	no	n/a	n/a
1246.851562	n/a	319194	largeTSmallT	correct	congruent	0.62891	no	T	T
1247.480469	n/a	319355	responseSmallT	correct	n/a	0.62891	no	n/a	n/a
1248.558594	n/a	319631	largeHSmallT	correct	incongruent	0.78516	no	H	T
1249.34375	n/a	319832	responseSmallT	correct	n/a	0.78516	no	n/a	n/a
1250.414062	n/a	320106	largeTSmallH	correct	incongruent	0.62109	no	T	H
1251.035156	n/a	320265	responseSmallH	correct	n/a	0.62109	no	n/a	n/a
1252.105469	n/a	320539	largeTSmallT	correct	congruent	0.70312	no	T	T
1252.808594	n/a	320719	responseSmallT	correct	n/a	0.70312	no	n/a	n/a
1253.878906	n/a	320993	largeTSmallH	correct	incongruent	0.53906	no	T	H
1254.417969	n/a	321131	responseSmallH	correct	n/a	0.53906	no	n/a	n/a
1255.480469	n/a	321403	largeHSmallH	correct	congruent	0.70703	no	H	H
1256.1875	n/a	321584	responseSmallH	correct	n/a	0.70703	no	n/a	n/a
1257.253906	n/a	321857	largeHSmallT	correct	incongruent	0.64062	no	H	T
1257.894531	n/a	322021	responseSmallT	correct	n/a	0.64062	no	n/a	n/a
1258.960938	n/a	322294	largeHSmallT	correct	incongruent	0.73828	no	H	T
1259.699219	n/a	322483	responseSmallT	correct	n/a	0.73828	no	n/a	n/a
1260.773438	n/a	322758	largeTSmallH	correct	incongruent	0.70703	no	T	H
1261.480469	n/a	322939	responseSmallH	correct	n/a	0.70703	no	n/a	n/a
1262.546875	n/a	323212	largeHSmallT	correct	incongruent	0.62891	no	H	T
