onset	duration	sample	value	response_type	congruence	response_time	response_out_of_range	largeletter	smallletter
30.6484375	n/a	7846	largeTSmallT	correct	congruent	0.7666	no	T	T
31.41503906	n/a	8042.25	responseLargeT	correct	n/a	0.7666	no	n/a	n/a
32.48242188	n/a	8315.5	largeHSmallT	correct	incongruent	0.48486	no	H	T
32.96728516	n/a	8439.625	responseLargeH	correct	n/a	0.48486	no	n/a	n/a
34.04345703	n/a	8715.125	largeTSmallH	correct	incongruent	0.45459	no	T	H
34.49804688	n/a	8831.5	responseLargeT	correct	n/a	0.45459	no	n/a	n/a
35.72314453	n/a	9145.125	largeTSmallT	correct	congruent	0.3916	no	T	T
36.11474609	n/a	9245.375	responseLargeT	correct	n/a	0.3916	no	n/a	n/a
37.17626953	n/a	9517.125	largeHSmallT	correct	incongruent	0.4668	no	H	T
37.64306641	n/a	9636.625	responseLargeH	correct	n/a	0.4668	no	n/a	n/a
38.70996094	n/a	9909.75	largeTSmallH	correct	incongruent	0.38965	no	T	H
39.09960938	n/a	10009.5	responseLargeT	correct	n/a	0.38965	no	n/a	n/a
40.17675781	n/a	10285.25	largeHSmallH	correct	congruent	0.42188	no	H	H
40.59863281	n/a	10393.25	responseLargeH	correct	n/a	0.42188	no	n/a	n/a
41.66992188	n/a	10667.5	largeHSmallT	correct	incongruent	0.42969	no	H	T
42.09960938	n/a	10777.5	responseLargeH	correct	n/a	0.42969	no	n/a	n/a
43.17675781	n/a	11053.25	largeTSmallT	correct	congruent	0.41895	no	T	T
43.59570312	n/a	11160.5	responseLargeT	correct	n/a	0.41895	no	n/a	n/a
44.66992188	n/a	11435.5	largeTSmallT	correct	congruent	0.41211	no	T	T
45.08203125	n/a	11541	responseLargeT	correct	n/a	0.41211	no	n/a	n/a
46.14941406	n/a	11814.25	largeTSmallT	correct	congruent	0.4165	no	T	T
46.56591797	n/a	11920.875	responseLargeT	correct	n/a	0.4165	no	n/a	n/a
47.62988281	n/a	12193.25	largeTSmallT	correct	congruent	0.41992	no	T	T
48.04980469	n/a	12300.75	responseLargeT	correct	n/a	0.41992	no	n/a	n/a
49.12304688	n/a	12575.5	largeHSmallT	correct	incongruent	0.54102	no	H	T
49.6640625	n/a	12714	responseLargeH	correct	n/a	0.54102	no	n/a	n/a
50.73632812	n/a	12988.5	largeTSmallH	error	incongruent	0.3335	no	T	H
51.06982422	n/a	13073.875	responseLargeH	error	n/a	0.3335	no	n/a	n/a
52.13623047	n/a	13346.875	largeTSmallT	correct	congruent	0.43799	no	T	T
52.57421875	n/a	13459	responseLargeT	correct	n/a	0.43799	no	n/a	n/a
53.65625	n/a	13736	largeHSmallT	correct	incongruent	0.5083	no	H	T
54.16455078	n/a	13866.125	responseLargeH	correct	n/a	0.5083	no	n/a	n/a
55.24267578	n/a	14142.125	largeHSmallH	correct	congruent	0.49072	no	H	H
55.73339844	n/a	14267.75	responseLargeH	correct	n/a	0.49072	no	n/a	n/a
56.80273438	n/a	14541.5	largeTSmallT	correct	congruent	0.37598	no	T	T
57.17871094	n/a	14637.75	responseLargeT	correct	n/a	0.37598	no	n/a	n/a
58.25585938	n/a	14913.5	largeTSmallH	correct	incongruent	0.45068	no	T	H
58.70654297	n/a	15028.875	responseLargeT	correct	n/a	0.45068	no	n/a	n/a
59.77587891	n/a	15302.625	largeTSmallT	correct	congruent	0.46387	no	T	T
60.23974609	n/a	15421.375	responseLargeT	correct	n/a	0.46387	no	n/a	n/a
61.30957031	n/a	15695.25	largeTSmallT	correct	congruent	0.50977	no	T	T
61.81933594	n/a	15825.75	responseLargeT	correct	n/a	0.50977	no	n/a	n/a
62.88232422	n/a	16097.875	largeHSmallT	correct	incongruent	0.33887	no	H	T
63.22119141	n/a	16184.625	responseLargeH	correct	n/a	0.33887	no	n/a	n/a
64.29589844	n/a	16459.75	largeTSmallT	correct	congruent	0.4624	no	T	T
64.75830078	n/a	16578.125	responseLargeT	correct	n/a	0.4624	no	n/a	n/a
65.82910156	n/a	16852.25	largeHSmallT	correct	incongruent	0.38184	no	H	T
66.2109375	n/a	16950	responseLargeH	correct	n/a	0.38184	no	n/a	n/a
67.28222656	n/a	17224.25	largeHSmallT	correct	incongruent	0.40234	no	H	T
67.68457031	n/a	17327.25	responseLargeH	correct	n/a	0.40234	no	n/a	n/a
68.74902344	n/a	17599.75	largeHSmallT	correct	incongruent	0.36523	no	H	T
69.11425781	n/a	17693.25	responseLargeH	correct	n/a	0.36523	no	n/a	n/a
70.18896484	n/a	17968.375	largeTSmallH	error	incongruent	0.39844	no	T	H
70.58740234	n/a	18070.375	responseLargeH	error	n/a	0.39844	no	n/a	n/a
71.65576172	n/a	18343.875	largeHSmallT	correct	incongruent	0.54053	no	H	T
72.19628906	n/a	18482.25	responseLargeH	correct	n/a	0.54053	no	n/a	n/a
73.26904297	n/a	18756.875	largeHSmallT	correct	incongruent	0.44336	no	H	T
73.71240234	n/a	18870.375	responseLargeH	correct	n/a	0.44336	no	n/a	n/a
74.7890625	n/a	19146	largeHSmallH	correct	congruent	0.38574	no	H	H
75.17480469	n/a	19244.75	responseLargeH	correct	n/a	0.38574	no	n/a	n/a
76.2421875	n/a	19518	largeTSmallH	correct	incongruent	0.42871	no	T	H
76.67089844	n/a	19627.75	responseLargeT	correct	n/a	0.42871	no	n/a	n/a
77.73535156	n/a	19900.25	largeTSmallH	correct	incongruent	0.39893	no	T	H
78.13427734	n/a	20002.375	responseLargeT	correct	n/a	0.39893	no	n/a	n/a
79.20214844	n/a	20275.75	largeHSmallH	correct	congruent	0.40283	no	H	H
79.60498047	n/a	20378.875	responseLargeH	correct	n/a	0.40283	no	n/a	n/a
80.66894531	n/a	20651.25	largeHSmallT	correct	incongruent	0.35547	no	H	T
81.02441406	n/a	20742.25	responseLargeH	correct	n/a	0.35547	no	n/a	n/a
82.09521484	n/a	21016.375	largeHSmallH	correct	congruent	0.38428	no	H	H
82.47949219	n/a	21114.75	responseLargeH	correct	n/a	0.38428	no	n/a	n/a
83.56201172	n/a	21391.875	largeHSmallH	correct	congruent	0.35889	no	H	H
83.92089844	n/a	21483.75	responseLargeH	correct	n/a	0.35889	no	n/a	n/a
84.98876953	n/a	21757.125	largeTSmallH	correct	incongruent	0.36914	no	T	H
85.35791016	n/a	21851.625	responseLargeT	correct	n/a	0.36914	no	n/a	n/a
86.42871094	n/a	22125.75	largeHSmallH	correct	congruent	0.35107	no	H	H
86.77978516	n/a	22215.625	responseLargeH	correct	n/a	0.35107	no	n/a	n/a
87.85498047	n/a	22490.875	largeHSmallT	error	incongruent	0.41992	no	H	T
88.27490234	n/a	22598.375	responseLargeT	error	n/a	0.41992	no	n/a	n/a
89.34863281	n/a	22873.25	largeHSmallH	correct	congruent	0.65332	no	H	H
90.00195312	n/a	23040.5	responseLargeH	correct	n/a	0.65332	no	n/a	n/a
91.08203125	n/a	23317	largeHSmallT	correct	incongruent	0.5918	no	H	T
91.67382812	n/a	23468.5	responseLargeH	correct	n/a	0.5918	no	n/a	n/a
92.74853516	n/a	23743.625	largeHSmallT	correct	incongruent	0.37305	no	H	T
93.12158203	n/a	23839.125	responseLargeH	correct	n/a	0.37305	no	n/a	n/a
94.20214844	n/a	24115.75	largeTSmallT	correct	congruent	0.42188	no	T	T
94.62402344	n/a	24223.75	responseLargeT	correct	n/a	0.42188	no	n/a	n/a
95.6953125	n/a	24498	largeHSmallT	correct	incongruent	0.40186	no	H	T
96.09716797	n/a	24600.875	responseLargeH	correct	n/a	0.40186	no	n/a	n/a
97.16162109	n/a	24873.375	largeHSmallH	correct	congruent	0.37988	no	H	H
97.54150391	n/a	24970.625	responseLargeH	correct	n/a	0.37988	no	n/a	n/a
98.61474609	n/a	25245.375	largeTSmallH	correct	incongruent	0.43604	no	T	H
99.05078125	n/a	25357	responseLargeT	correct	n/a	0.43604	no	n/a	n/a
100.121582	n/a	25631.125	largeHSmallH	correct	congruent	0.38721	no	H	H
100.5087891	n/a	25730.25	responseLargeH	correct	n/a	0.38721	no	n/a	n/a
101.574707	n/a	26003.125	largeHSmallT	correct	incongruent	0.42334	no	H	T
101.9980469	n/a	26111.5	responseLargeH	correct	n/a	0.42334	no	n/a	n/a
103.0683594	n/a	26385.5	largeTSmallH	correct	incongruent	0.44141	no	T	H
103.5097656	n/a	26498.5	responseLargeT	correct	n/a	0.44141	no	n/a	n/a
104.5883789	n/a	26774.625	largeHSmallT	correct	incongruent	0.36426	no	H	T
104.9526367	n/a	26867.875	responseLargeH	correct	n/a	0.36426	no	n/a	n/a
106.0146484	n/a	27139.75	largeHSmallT	correct	incongruent	0.36133	no	H	T
106.3759766	n/a	27232.25	responseLargeH	correct	n/a	0.36133	no	n/a	n/a
107.4414062	n/a	27505	largeHSmallH	correct	congruent	0.38281	no	H	H
107.8242188	n/a	27603	responseLargeH	correct	n/a	0.38281	no	n/a	n/a
108.8945312	n/a	27877	largeTSmallT	correct	congruent	0.51172	no	T	T
109.40625	n/a	28008	responseLargeT	correct	n/a	0.51172	no	n/a	n/a
110.4814453	n/a	28283.25	largeHSmallH	correct	congruent	0.39551	no	H	H
110.8769531	n/a	28384.5	responseLargeH	correct	n/a	0.39551	no	n/a	n/a
111.9482422	n/a	28658.75	largeTSmallT	correct	congruent	0.44727	no	T	T
112.3955078	n/a	28773.25	responseLargeT	correct	n/a	0.44727	no	n/a	n/a
113.4682617	n/a	29047.875	largeHSmallT	correct	incongruent	0.46875	no	H	T
113.9370117	n/a	29167.875	responseLargeH	correct	n/a	0.46875	no	n/a	n/a
115.0014648	n/a	29440.375	largeHSmallT	correct	incongruent	0.41406	no	H	T
115.4155273	n/a	29546.375	responseLargeH	correct	n/a	0.41406	no	n/a	n/a
116.4946289	n/a	29822.625	largeHSmallT	correct	incongruent	0.41699	no	H	T
116.9116211	n/a	29929.375	responseLargeH	correct	n/a	0.41699	no	n/a	n/a
117.987793	n/a	30204.875	largeHSmallH	correct	congruent	0.36816	no	H	H
118.355957	n/a	30299.125	responseLargeH	correct	n/a	0.36816	no	n/a	n/a
119.4277344	n/a	30573.5	largeTSmallH	correct	incongruent	0.41602	no	T	H
119.84375	n/a	30680	responseLargeT	correct	n/a	0.41602	no	n/a	n/a
120.9213867	n/a	30955.875	largeHSmallH	correct	congruent	0.375	no	H	H
121.2963867	n/a	31051.875	responseLargeH	correct	n/a	0.375	no	n/a	n/a
122.3745117	n/a	31327.875	largeTSmallH	correct	incongruent	0.41699	no	T	H
122.7915039	n/a	31434.625	responseLargeT	correct	n/a	0.41699	no	n/a	n/a
123.8676758	n/a	31710.125	largeTSmallH	correct	incongruent	0.51758	no	T	H
124.3852539	n/a	31842.625	responseLargeT	correct	n/a	0.51758	no	n/a	n/a
125.4677734	n/a	32119.75	largeTSmallT	correct	congruent	0.39844	no	T	T
125.8662109	n/a	32221.75	responseLargeT	correct	n/a	0.39844	no	n/a	n/a
126.934082	n/a	32495.125	largeHSmallT	correct	incongruent	0.44531	no	H	T
127.3793945	n/a	32609.125	responseLargeH	correct	n/a	0.44531	no	n/a	n/a
128.4541016	n/a	32884.25	largeHSmallT	correct	incongruent	0.49414	no	H	T
128.9482422	n/a	33010.75	responseLargeH	correct	n/a	0.49414	no	n/a	n/a
130.0141602	n/a	33283.625	largeHSmallH	correct	congruent	0.45947	no	H	H
130.4736328	n/a	33401.25	responseLargeH	correct	n/a	0.45947	no	n/a	n/a
131.5478516	n/a	33676.25	largeTSmallH	correct	incongruent	0.43457	no	T	H
131.9824219	n/a	33787.5	responseLargeT	correct	n/a	0.43457	no	n/a	n/a
133.0541992	n/a	34061.875	largeTSmallH	correct	incongruent	0.49463	no	T	H
133.5488281	n/a	34188.5	responseLargeT	correct	n/a	0.49463	no	n/a	n/a
134.6142578	n/a	34461.25	largeHSmallH	correct	congruent	0.4043	no	H	H
135.0185547	n/a	34564.75	responseLargeH	correct	n/a	0.4043	no	n/a	n/a
136.0805664	n/a	34836.625	largeTSmallT	correct	congruent	0.42822	no	T	T
136.5087891	n/a	34946.25	responseLargeT	correct	n/a	0.42822	no	n/a	n/a
137.7075195	n/a	35253.125	largeTSmallH	correct	incongruent	0.41602	no	T	H
138.1235352	n/a	35359.625	responseLargeT	correct	n/a	0.41602	no	n/a	n/a
139.1875	n/a	35632	largeTSmallH	correct	incongruent	0.36377	no	T	H
139.5512695	n/a	35725.125	responseLargeT	correct	n/a	0.36377	no	n/a	n/a
140.6274414	n/a	36000.625	largeHSmallT	correct	incongruent	0.33936	no	H	T
140.9667969	n/a	36087.5	responseLargeH	correct	n/a	0.33936	no	n/a	n/a
142.0405273	n/a	36362.375	largeHSmallH	correct	congruent	0.41553	no	H	H
142.4560547	n/a	36468.75	responseLargeH	correct	n/a	0.41553	no	n/a	n/a
143.5205078	n/a	36741.25	largeTSmallH	correct	incongruent	0.43701	no	T	H
143.9575195	n/a	36853.125	responseLargeT	correct	n/a	0.43701	no	n/a	n/a
145.0273438	n/a	37127	largeHSmallT	correct	incongruent	0.43604	no	H	T
145.4633789	n/a	37238.625	responseLargeH	correct	n/a	0.43604	no	n/a	n/a
146.5341797	n/a	37512.75	largeHSmallH	correct	congruent	0.46582	no	H	H
147	n/a	37632	responseLargeH	correct	n/a	0.46582	no	n/a	n/a
148.0673828	n/a	37905.25	largeHSmallT	correct	incongruent	0.39844	no	H	T
148.4658203	n/a	38007.25	responseLargeH	correct	n/a	0.39844	no	n/a	n/a
149.5341797	n/a	38280.75	largeTSmallH	correct	incongruent	0.41748	no	T	H
149.9516602	n/a	38387.625	responseLargeT	correct	n/a	0.41748	no	n/a	n/a
151.0273438	n/a	38663	largeTSmallT	correct	congruent	0.36914	no	T	T
151.3964844	n/a	38757.5	responseLargeT	correct	n/a	0.36914	no	n/a	n/a
152.4672852	n/a	39031.625	largeTSmallH	correct	incongruent	0.44629	no	T	H
152.9135742	n/a	39145.875	responseLargeT	correct	n/a	0.44629	no	n/a	n/a
153.9873047	n/a	39420.75	largeHSmallH	correct	congruent	0.38916	no	H	H
154.3764648	n/a	39520.375	responseLargeH	correct	n/a	0.38916	no	n/a	n/a
155.4404297	n/a	39792.75	largeTSmallT	correct	congruent	0.43652	no	T	T
155.8769531	n/a	39904.5	responseLargeT	correct	n/a	0.43652	no	n/a	n/a
156.9604492	n/a	40181.875	largeHSmallT	correct	incongruent	0.49512	no	H	T
157.4555664	n/a	40308.625	responseLargeH	correct	n/a	0.49512	no	n/a	n/a
158.5336914	n/a	40584.625	largeHSmallH	error	congruent	0.40283	no	H	H
158.9365234	n/a	40687.75	responseLargeT	error	n/a	0.40283	no	n/a	n/a
160.0136719	n/a	40963.5	largeTSmallT	correct	congruent	0.47803	no	T	T
160.4916992	n/a	41085.875	responseLargeT	correct	n/a	0.47803	no	n/a	n/a
161.5600586	n/a	41359.375	largeTSmallH	correct	incongruent	0.40527	no	T	H
161.965332	n/a	41463.125	responseLargeT	correct	n/a	0.40527	no	n/a	n/a
163.0400391	n/a	41738.25	largeHSmallH	correct	congruent	0.37793	no	H	H
163.4179688	n/a	41835	responseLargeH	correct	n/a	0.37793	no	n/a	n/a
164.4931641	n/a	42110.25	largeHSmallH	correct	congruent	0.39697	no	H	H
164.8901367	n/a	42211.875	responseLargeH	correct	n/a	0.39697	no	n/a	n/a
165.9599609	n/a	42485.75	largeHSmallH	correct	congruent	0.37842	no	H	H
166.3383789	n/a	42582.625	responseLargeH	correct	n/a	0.37842	no	n/a	n/a
167.4135742	n/a	42857.875	largeTSmallT	correct	congruent	0.48145	no	T	T
167.8950195	n/a	42981.125	responseLargeT	correct	n/a	0.48145	no	n/a	n/a
168.9731445	n/a	43257.125	largeHSmallH	correct	congruent	0.4834	no	H	H
169.456543	n/a	43380.875	responseLargeH	correct	n/a	0.4834	no	n/a	n/a
170.5336914	n/a	43656.625	largeTSmallH	correct	incongruent	0.42432	no	T	H
170.9580078	n/a	43765.25	responseLargeT	correct	n/a	0.42432	no	n/a	n/a
172.0263672	n/a	44038.75	largeHSmallT	correct	incongruent	0.46289	no	H	T
172.4892578	n/a	44157.25	responseLargeH	correct	n/a	0.46289	no	n/a	n/a
173.5600586	n/a	44431.375	largeTSmallT	correct	congruent	0.50098	no	T	T
174.0610352	n/a	44559.625	responseLargeT	correct	n/a	0.50098	no	n/a	n/a
175.1333008	n/a	44834.125	largeHSmallH	correct	congruent	0.41602	no	H	H
175.5493164	n/a	44940.625	responseLargeH	correct	n/a	0.41602	no	n/a	n/a
176.6264648	n/a	45216.375	largeTSmallT	correct	congruent	0.40918	no	T	T
177.0356445	n/a	45321.125	responseLargeT	correct	n/a	0.40918	no	n/a	n/a
178.1064453	n/a	45595.25	largeHSmallT	correct	incongruent	0.42529	no	H	T
178.5317383	n/a	45704.125	responseLargeH	correct	n/a	0.42529	no	n/a	n/a
179.5996094	n/a	45977.5	largeTSmallT	correct	congruent	0.3999	no	T	T
179.9995117	n/a	46079.875	responseLargeT	correct	n/a	0.3999	no	n/a	n/a
181.0664062	n/a	46353	largeHSmallT	correct	incongruent	0.40039	no	H	T
181.4667969	n/a	46455.5	responseLargeH	correct	n/a	0.40039	no	n/a	n/a
182.5332031	n/a	46728.5	largeTSmallH	correct	incongruent	0.41162	no	T	H
182.9448242	n/a	46833.875	responseLargeT	correct	n/a	0.41162	no	n/a	n/a
184.0263672	n/a	47110.75	largeTSmallH	correct	incongruent	0.41162	no	T	H
184.4379883	n/a	47216.125	responseLargeT	correct	n/a	0.41162	no	n/a	n/a
185.5063477	n/a	47489.625	largeTSmallH	correct	incongruent	0.39746	no	T	H
185.9038086	n/a	47591.375	responseLargeT	correct	n/a	0.39746	no	n/a	n/a
186.9726562	n/a	47865	largeTSmallT	correct	congruent	0.41992	no	T	T
187.3925781	n/a	47972.5	responseLargeT	correct	n/a	0.41992	no	n/a	n/a
188.4663086	n/a	48247.375	largeHSmallT	correct	incongruent	0.40918	no	H	T
188.8754883	n/a	48352.125	responseLargeH	correct	n/a	0.40918	no	n/a	n/a
189.9462891	n/a	48626.25	largeTSmallH	correct	incongruent	0.41553	no	T	H
190.3618164	n/a	48732.625	responseLargeT	correct	n/a	0.41553	no	n/a	n/a
191.4262695	n/a	49005.125	largeTSmallH	correct	incongruent	0.37842	no	T	H
191.8046875	n/a	49102	responseLargeT	correct	n/a	0.37842	no	n/a	n/a
192.8793945	n/a	49377.125	largeHSmallH	correct	congruent	0.37598	no	H	H
193.2553711	n/a	49473.375	responseLargeH	correct	n/a	0.37598	no	n/a	n/a
194.3325195	n/a	49749.125	largeHSmallT	error	incongruent	0.40869	no	H	T
194.7412109	n/a	49853.75	responseLargeT	error	n/a	0.40869	no	n/a	n/a
195.8125	n/a	50128	largeHSmallT	correct	incongruent	0.54541	no	H	T
196.3579102	n/a	50267.625	responseLargeH	correct	n/a	0.54541	no	n/a	n/a
197.4257812	n/a	50541	largeTSmallT	correct	congruent	0.46729	no	T	T
197.8930664	n/a	50660.625	responseLargeT	correct	n/a	0.46729	no	n/a	n/a
198.9594727	n/a	50933.625	largeHSmallH	correct	congruent	0.50635	no	H	H
199.4658203	n/a	51063.25	responseLargeH	correct	n/a	0.50635	no	n/a	n/a
200.5458984	n/a	51339.75	largeTSmallT	correct	congruent	0.46387	no	T	T
201.0097656	n/a	51458.5	responseLargeT	correct	n/a	0.46387	no	n/a	n/a
202.0927734	n/a	51735.75	largeTSmallH	correct	incongruent	0.44434	no	T	H
202.5371094	n/a	51849.5	responseLargeT	correct	n/a	0.44434	no	n/a	n/a
203.612793	n/a	52124.875	largeHSmallT	correct	incongruent	0.37793	no	H	T
203.9907227	n/a	52221.625	responseLargeH	correct	n/a	0.37793	no	n/a	n/a
205.065918	n/a	52496.875	largeTSmallH	correct	incongruent	0.42676	no	T	H
205.4926758	n/a	52606.125	responseLargeT	correct	n/a	0.42676	no	n/a	n/a
206.559082	n/a	52879.125	largeHSmallT	correct	incongruent	0.39697	no	H	T
206.9560547	n/a	52980.75	responseLargeH	correct	n/a	0.39697	no	n/a	n/a
208.0258789	n/a	53254.625	largeHSmallH	correct	congruent	0.44238	no	H	H
208.4682617	n/a	53367.875	responseLargeH	correct	n/a	0.44238	no	n/a	n/a
209.5458984	n/a	53643.75	largeTSmallH	correct	incongruent	0.45752	no	T	H
210.003418	n/a	53760.875	responseLargeT	correct	n/a	0.45752	no	n/a	n/a
211.0791016	n/a	54036.25	largeTSmallH	correct	incongruent	0.6001	no	T	H
211.6791992	n/a	54189.875	responseLargeT	correct	n/a	0.6001	no	n/a	n/a
212.7587891	n/a	54466.25	largeHSmallH	correct	congruent	0.37109	no	H	H
213.1298828	n/a	54561.25	responseLargeH	correct	n/a	0.37109	no	n/a	n/a
214.2119141	n/a	54838.25	largeTSmallT	correct	congruent	0.45459	no	T	T
214.6665039	n/a	54954.625	responseLargeT	correct	n/a	0.45459	no	n/a	n/a
215.7324219	n/a	55227.5	largeHSmallH	correct	congruent	0.48486	no	H	H
216.2172852	n/a	55351.625	responseLargeH	correct	n/a	0.48486	no	n/a	n/a
217.2788086	n/a	55623.375	largeHSmallT	correct	incongruent	0.4624	no	H	T
217.7412109	n/a	55741.75	responseLargeH	correct	n/a	0.4624	no	n/a	n/a
218.8120117	n/a	56015.875	largeHSmallT	correct	incongruent	0.42676	no	H	T
219.2387695	n/a	56125.125	responseLargeH	correct	n/a	0.42676	no	n/a	n/a
220.3051758	n/a	56398.125	largeHSmallH	correct	congruent	0.47217	no	H	H
220.7773438	n/a	56519	responseLargeH	correct	n/a	0.47217	no	n/a	n/a
221.8520508	n/a	56794.125	largeHSmallH	correct	congruent	0.37012	no	H	H
222.222168	n/a	56888.875	responseLargeH	correct	n/a	0.37012	no	n/a	n/a
223.2919922	n/a	57162.75	largeHSmallT	correct	incongruent	0.47412	no	H	T
223.7661133	n/a	57284.125	responseLargeH	correct	n/a	0.47412	no	n/a	n/a
224.8251953	n/a	57555.25	largeTSmallT	correct	congruent	0.41602	no	T	T
225.2412109	n/a	57661.75	responseLargeT	correct	n/a	0.41602	no	n/a	n/a
226.3183594	n/a	57937.5	largeHSmallH	correct	congruent	0.40576	no	H	H
226.7241211	n/a	58041.375	responseLargeH	correct	n/a	0.40576	no	n/a	n/a
227.7983398	n/a	58316.375	largeTSmallH	correct	incongruent	0.4541	no	T	H
228.2524414	n/a	58432.625	responseLargeT	correct	n/a	0.4541	no	n/a	n/a
229.3183594	n/a	58705.5	largeHSmallT	correct	incongruent	0.37354	no	H	T
229.6918945	n/a	58801.125	responseLargeH	correct	n/a	0.37354	no	n/a	n/a
230.7587891	n/a	59074.25	largeTSmallT	correct	congruent	0.42822	no	T	T
231.1870117	n/a	59183.875	responseLargeT	correct	n/a	0.42822	no	n/a	n/a
232.2519531	n/a	59456.5	largeTSmallT	correct	congruent	0.40039	no	T	T
232.6523438	n/a	59559	responseLargeT	correct	n/a	0.40039	no	n/a	n/a
233.7182617	n/a	59831.875	largeHSmallH	correct	congruent	0.38184	no	H	H
234.1000977	n/a	59929.625	responseLargeH	correct	n/a	0.38184	no	n/a	n/a
235.171875	n/a	60204	largeTSmallT	correct	congruent	0.47998	no	T	T
235.6518555	n/a	60326.875	responseLargeT	correct	n/a	0.47998	no	n/a	n/a
236.7182617	n/a	60599.875	largeTSmallH	correct	incongruent	0.41602	no	T	H
237.1342773	n/a	60706.375	responseLargeT	correct	n/a	0.41602	no	n/a	n/a
238.1982422	n/a	60978.75	largeTSmallH	correct	incongruent	0.44678	no	T	H
238.6450195	n/a	61093.125	responseLargeT	correct	n/a	0.44678	no	n/a	n/a
239.7182617	n/a	61367.875	largeTSmallT	correct	congruent	0.40918	no	T	T
240.1274414	n/a	61472.625	responseLargeT	correct	n/a	0.40918	no	n/a	n/a
241.1982422	n/a	61746.75	largeTSmallH	correct	incongruent	0.4834	no	T	H
241.6816406	n/a	61870.5	responseLargeT	correct	n/a	0.4834	no	n/a	n/a
242.7583008	n/a	62146.125	largeHSmallH	correct	congruent	0.34521	no	H	H
243.1035156	n/a	62234.5	responseLargeH	correct	n/a	0.34521	no	n/a	n/a
244.1713867	n/a	62507.875	largeHSmallT	correct	incongruent	0.50098	no	H	T
244.6723633	n/a	62636.125	responseLargeH	correct	n/a	0.50098	no	n/a	n/a
245.7314453	n/a	62907.25	largeTSmallH	correct	incongruent	0.43408	no	T	H
246.1655273	n/a	63018.375	responseLargeT	correct	n/a	0.43408	no	n/a	n/a
247.2382812	n/a	63293	largeHSmallH	correct	congruent	0.40967	no	H	H
247.6479492	n/a	63397.875	responseLargeH	correct	n/a	0.40967	no	n/a	n/a
248.7177734	n/a	63671.75	largeTSmallH	correct	incongruent	0.4585	no	T	H
249.1762695	n/a	63789.125	responseLargeT	correct	n/a	0.4585	no	n/a	n/a
250.237793	n/a	64060.875	largeHSmallH	correct	congruent	0.41064	no	H	H
250.6484375	n/a	64166	responseLargeH	correct	n/a	0.41064	no	n/a	n/a
251.7314453	n/a	64443.25	largeHSmallH	correct	congruent	0.48584	no	H	H
252.2172852	n/a	64567.625	responseLargeH	correct	n/a	0.48584	no	n/a	n/a
253.2910156	n/a	64842.5	largeTSmallH	correct	incongruent	0.45752	no	T	H
253.7485352	n/a	64959.625	responseLargeT	correct	n/a	0.45752	no	n/a	n/a
254.8110352	n/a	65231.625	largeHSmallH	correct	congruent	0.43262	no	H	H
255.2436523	n/a	65342.375	responseLargeH	correct	n/a	0.43262	no	n/a	n/a
256.3178711	n/a	65617.375	largeHSmallH	correct	congruent	0.4209	no	H	H
256.7387695	n/a	65725.125	responseLargeH	correct	n/a	0.4209	no	n/a	n/a
257.8110352	n/a	65999.625	largeTSmallH	correct	incongruent	0.45068	no	T	H
258.2617188	n/a	66115	responseLargeT	correct	n/a	0.45068	no	n/a	n/a
259.3442383	n/a	66392.125	largeTSmallT	correct	congruent	0.40283	no	T	T
259.7470703	n/a	66495.25	responseLargeT	correct	n/a	0.40283	no	n/a	n/a
260.8242188	n/a	66771	largeTSmallT	correct	congruent	0.43848	no	T	T
261.2626953	n/a	66883.25	responseLargeT	correct	n/a	0.43848	no	n/a	n/a
262.3310547	n/a	67156.75	largeHSmallH	correct	congruent	0.39648	no	H	H
262.7275391	n/a	67258.25	responseLargeH	correct	n/a	0.39648	no	n/a	n/a
263.7973633	n/a	67532.125	largeHSmallT	correct	incongruent	0.40234	no	H	T
264.199707	n/a	67635.125	responseLargeH	correct	n/a	0.40234	no	n/a	n/a
265.2641602	n/a	67907.625	largeTSmallT	correct	congruent	0.38574	no	T	T
265.6499023	n/a	68006.375	responseLargeT	correct	n/a	0.38574	no	n/a	n/a
266.7172852	n/a	68279.625	largeTSmallH	correct	incongruent	0.37549	no	T	H
267.0927734	n/a	68375.75	responseLargeT	correct	n/a	0.37549	no	n/a	n/a
268.1708984	n/a	68651.75	largeHSmallH	correct	congruent	0.37695	no	H	H
268.5478516	n/a	68748.25	responseLargeH	correct	n/a	0.37695	no	n/a	n/a
269.6240234	n/a	69023.75	largeHSmallT	error	incongruent	0.37402	no	H	T
269.9980469	n/a	69119.5	responseLargeT	error	n/a	0.37402	no	n/a	n/a
271.0771484	n/a	69395.75	largeTSmallH	correct	incongruent	0.604	no	T	H
271.6811523	n/a	69550.375	responseLargeT	correct	n/a	0.604	no	n/a	n/a
272.7573242	n/a	69825.875	largeTSmallT	error	congruent	0.43457	no	T	T
273.1918945	n/a	69937.125	responseLargeH	error	n/a	0.43457	no	n/a	n/a
274.2641602	n/a	70211.625	largeTSmallT	correct	congruent	0.51465	no	T	T
274.7788086	n/a	70343.375	responseLargeT	correct	n/a	0.51465	no	n/a	n/a
275.8374023	n/a	70614.375	largeHSmallH	correct	congruent	0.68896	no	H	H
276.5263672	n/a	70790.75	responseLargeH	correct	n/a	0.68896	no	n/a	n/a
277.597168	n/a	71064.875	largeTSmallH	correct	incongruent	0.46045	no	T	H
278.0576172	n/a	71182.75	responseLargeT	correct	n/a	0.46045	no	n/a	n/a
279.1298828	n/a	71457.25	largeTSmallH	correct	incongruent	0.55762	no	T	H
279.6875	n/a	71600	responseLargeT	correct	n/a	0.55762	no	n/a	n/a
280.7573242	n/a	71873.875	largeTSmallH	correct	incongruent	0.46143	no	T	H
281.21875	n/a	71992	responseLargeT	correct	n/a	0.46143	no	n/a	n/a
282.2905273	n/a	72266.375	largeHSmallH	correct	congruent	0.45654	no	H	H
282.7470703	n/a	72383.25	responseLargeH	correct	n/a	0.45654	no	n/a	n/a
283.8105469	n/a	72655.5	largeTSmallH	correct	incongruent	0.46143	no	T	H
284.2719727	n/a	72773.625	responseLargeT	correct	n/a	0.46143	no	n/a	n/a
285.34375	n/a	73048	largeTSmallT	correct	congruent	0.44482	no	T	T
285.7885742	n/a	73161.875	responseLargeT	correct	n/a	0.44482	no	n/a	n/a
286.8505859	n/a	73433.75	largeTSmallT	correct	congruent	0.38037	no	T	T
287.230957	n/a	73531.125	responseLargeT	correct	n/a	0.38037	no	n/a	n/a
288.3037109	n/a	73805.75	largeTSmallH	correct	incongruent	0.42334	no	T	H
288.7270508	n/a	73914.125	responseLargeT	correct	n/a	0.42334	no	n/a	n/a
289.8105469	n/a	74191.5	largeHSmallH	correct	congruent	0.41406	no	H	H
290.2246094	n/a	74297.5	responseLargeH	correct	n/a	0.41406	no	n/a	n/a
291.3037109	n/a	74573.75	largeTSmallT	correct	congruent	0.45459	no	T	T
291.7583008	n/a	74690.125	responseLargeT	correct	n/a	0.45459	no	n/a	n/a
292.8369141	n/a	74966.25	largeHSmallT	correct	incongruent	0.44482	no	H	T
293.2817383	n/a	75080.125	responseLargeH	correct	n/a	0.44482	no	n/a	n/a
294.34375	n/a	75352	largeHSmallH	correct	congruent	0.50244	no	H	H
294.8461914	n/a	75480.625	responseLargeH	correct	n/a	0.50244	no	n/a	n/a
295.9169922	n/a	75754.75	largeTSmallT	correct	congruent	0.5542	no	T	T
296.4711914	n/a	75896.625	responseLargeT	correct	n/a	0.5542	no	n/a	n/a
297.543457	n/a	76171.125	largeHSmallT	correct	incongruent	0.43555	no	H	T
297.9790039	n/a	76282.625	responseLargeH	correct	n/a	0.43555	no	n/a	n/a
299.050293	n/a	76556.875	largeTSmallH	correct	incongruent	0.43213	no	T	H
299.4824219	n/a	76667.5	responseLargeT	correct	n/a	0.43213	no	n/a	n/a
300.5566406	n/a	76942.5	largeTSmallT	correct	congruent	0.46191	no	T	T
301.0185547	n/a	77060.75	responseLargeT	correct	n/a	0.46191	no	n/a	n/a
302.0766602	n/a	77331.625	largeTSmallT	correct	congruent	0.36426	no	T	T
302.440918	n/a	77424.875	responseLargeT	correct	n/a	0.36426	no	n/a	n/a
303.5166016	n/a	77700.25	largeHSmallT	correct	incongruent	0.36719	no	H	T
303.8837891	n/a	77794.25	responseLargeH	correct	n/a	0.36719	no	n/a	n/a
304.956543	n/a	78068.875	largeTSmallT	correct	congruent	0.4209	no	T	T
305.3774414	n/a	78176.625	responseLargeT	correct	n/a	0.4209	no	n/a	n/a
306.449707	n/a	78451.125	largeHSmallH	correct	congruent	0.44629	no	H	H
306.8959961	n/a	78565.375	responseLargeH	correct	n/a	0.44629	no	n/a	n/a
307.9697266	n/a	78840.25	largeTSmallT	correct	congruent	0.39746	no	T	T
308.3671875	n/a	78942	responseLargeT	correct	n/a	0.39746	no	n/a	n/a
309.449707	n/a	79219.125	largeTSmallT	error	congruent	0.35791	no	T	T
309.8076172	n/a	79310.75	responseLargeH	error	n/a	0.35791	no	n/a	n/a
310.8764648	n/a	79584.375	largeHSmallT	correct	incongruent	0.4668	no	H	T
311.3432617	n/a	79703.875	responseLargeH	correct	n/a	0.4668	no	n/a	n/a
312.409668	n/a	79976.875	largeHSmallH	correct	congruent	0.52637	no	H	H
312.9360352	n/a	80111.625	responseLargeH	correct	n/a	0.52637	no	n/a	n/a
313.996582	n/a	80383.125	largeTSmallT	correct	congruent	0.43311	no	T	T
314.4296875	n/a	80494	responseLargeT	correct	n/a	0.43311	no	n/a	n/a
315.5029297	n/a	80768.75	largeTSmallH	correct	incongruent	0.3999	no	T	H
315.902832	n/a	80871.125	responseLargeT	correct	n/a	0.3999	no	n/a	n/a
316.9829102	n/a	81147.625	largeTSmallH	correct	incongruent	0.43848	no	T	H
317.4213867	n/a	81259.875	responseLargeT	correct	n/a	0.43848	no	n/a	n/a
318.4897461	n/a	81533.375	largeHSmallH	correct	congruent	0.43945	no	H	H
318.9291992	n/a	81645.875	responseLargeH	correct	n/a	0.43945	no	n/a	n/a
320.0097656	n/a	81922.5	largeTSmallT	correct	congruent	0.4458	no	T	T
320.4555664	n/a	82036.625	responseLargeT	correct	n/a	0.4458	no	n/a	n/a
321.5161133	n/a	82308.125	largeTSmallT	correct	congruent	0.44531	no	T	T
321.9614258	n/a	82422.125	responseLargeT	correct	n/a	0.44531	no	n/a	n/a
323.0361328	n/a	82697.25	largeHSmallT	correct	incongruent	0.44141	no	H	T
323.4775391	n/a	82810.25	responseLargeH	correct	n/a	0.44141	no	n/a	n/a
324.5429688	n/a	83083	largeHSmallT	correct	incongruent	0.44775	no	H	T
324.9907227	n/a	83197.625	responseLargeH	correct	n/a	0.44775	no	n/a	n/a
326.0625	n/a	83472	largeHSmallH	correct	congruent	0.38379	no	H	H
326.4462891	n/a	83570.25	responseLargeH	correct	n/a	0.38379	no	n/a	n/a
327.5161133	n/a	83844.125	largeTSmallT	correct	congruent	0.45898	no	T	T
327.9750977	n/a	83961.625	responseLargeT	correct	n/a	0.45898	no	n/a	n/a
329.0361328	n/a	84233.25	largeHSmallT	correct	incongruent	0.5	no	H	T
329.5361328	n/a	84361.25	responseLargeH	correct	n/a	0.5	no	n/a	n/a
330.609375	n/a	84636	largeTSmallH	correct	incongruent	0.60938	no	T	H
331.21875	n/a	84792	responseLargeT	correct	n/a	0.60938	no	n/a	n/a
336.1025391	n/a	86042.25	largeHSmallH	correct	congruent	0.78516	no	H	H
336.8876953	n/a	86243.25	responseSmallH	correct	n/a	0.78516	no	n/a	n/a
337.9555664	n/a	86516.625	largeTSmallH	correct	incongruent	0.47559	no	T	H
338.4311523	n/a	86638.375	responseSmallH	correct	n/a	0.47559	no	n/a	n/a
339.5024414	n/a	86912.625	largeTSmallT	correct	congruent	0.59229	no	T	T
340.0947266	n/a	87064.25	responseSmallT	correct	n/a	0.59229	no	n/a	n/a
341.1557617	n/a	87335.875	largeTSmallT	correct	congruent	0.46533	no	T	T
341.6210938	n/a	87455	responseSmallT	correct	n/a	0.46533	no	n/a	n/a
342.6889648	n/a	87728.375	largeTSmallH	error	incongruent	0.72852	no	T	H
343.4174805	n/a	87914.875	responseSmallT	error	n/a	0.72852	no	n/a	n/a
344.4887695	n/a	88189.125	largeHSmallT	correct	incongruent	0.62109	no	H	T
345.1098633	n/a	88348.125	responseSmallT	correct	n/a	0.62109	no	n/a	n/a
346.1821289	n/a	88622.625	largeTSmallT	correct	congruent	0.521	no	T	T
346.703125	n/a	88756	responseSmallT	correct	n/a	0.521	no	n/a	n/a
347.7822266	n/a	89032.25	largeTSmallH	correct	incongruent	0.50586	no	T	H
348.2880859	n/a	89161.75	responseSmallH	correct	n/a	0.50586	no	n/a	n/a
349.3686523	n/a	89438.375	largeTSmallT	correct	congruent	0.43359	no	T	T
349.8022461	n/a	89549.375	responseSmallT	correct	n/a	0.43359	no	n/a	n/a
350.8754883	n/a	89824.125	largeTSmallT	correct	congruent	0.41992	no	T	T
351.2954102	n/a	89931.625	responseSmallT	correct	n/a	0.41992	no	n/a	n/a
352.3686523	n/a	90206.375	largeTSmallT	correct	congruent	0.43262	no	T	T
352.8012695	n/a	90317.125	responseSmallT	correct	n/a	0.43262	no	n/a	n/a
353.8754883	n/a	90592.125	largeTSmallT	correct	congruent	0.4292	no	T	T
354.3046875	n/a	90702	responseSmallT	correct	n/a	0.4292	no	n/a	n/a
355.3686523	n/a	90974.375	largeHSmallH	correct	congruent	0.40869	no	H	H
355.7773438	n/a	91079	responseSmallH	correct	n/a	0.40869	no	n/a	n/a
356.8486328	n/a	91353.25	largeTSmallH	correct	incongruent	0.4624	no	T	H
357.3110352	n/a	91471.625	responseSmallH	correct	n/a	0.4624	no	n/a	n/a
358.3818359	n/a	91745.75	largeHSmallH	correct	congruent	0.42773	no	H	H
358.8095703	n/a	91855.25	responseSmallH	correct	n/a	0.42773	no	n/a	n/a
359.8754883	n/a	92128.125	largeTSmallH	correct	incongruent	0.4585	no	T	H
360.3339844	n/a	92245.5	responseSmallH	correct	n/a	0.4585	no	n/a	n/a
361.4082031	n/a	92520.5	largeTSmallH	correct	incongruent	0.41162	no	T	H
361.8198242	n/a	92625.875	responseSmallH	correct	n/a	0.41162	no	n/a	n/a
362.8886719	n/a	92899.5	largeTSmallT	correct	congruent	0.41943	no	T	T
363.3081055	n/a	93006.875	responseSmallT	correct	n/a	0.41943	no	n/a	n/a
364.3681641	n/a	93278.25	largeHSmallH	correct	congruent	0.42822	no	H	H
364.7963867	n/a	93387.875	responseSmallH	correct	n/a	0.42822	no	n/a	n/a
365.875	n/a	93664	largeHSmallH	correct	congruent	0.43555	no	H	H
366.3105469	n/a	93775.5	responseSmallH	correct	n/a	0.43555	no	n/a	n/a
367.3818359	n/a	94049.75	largeHSmallT	correct	incongruent	0.48779	no	H	T
367.8696289	n/a	94174.625	responseSmallT	correct	n/a	0.48779	no	n/a	n/a
368.9418945	n/a	94449.125	largeTSmallH	correct	incongruent	0.4873	no	T	H
369.4291992	n/a	94573.875	responseSmallH	correct	n/a	0.4873	no	n/a	n/a
370.5014648	n/a	94848.375	largeHSmallH	correct	congruent	0.43945	no	H	H
370.940918	n/a	94960.875	responseSmallH	correct	n/a	0.43945	no	n/a	n/a
372.0214844	n/a	95237.5	largeHSmallT	correct	incongruent	0.48584	no	H	T
372.5073242	n/a	95361.875	responseSmallT	correct	n/a	0.48584	no	n/a	n/a
373.7060547	n/a	95668.75	largeHSmallH	correct	congruent	0.37451	no	H	H
374.0805664	n/a	95764.625	responseSmallH	correct	n/a	0.37451	no	n/a	n/a
375.1547852	n/a	96039.625	largeHSmallH	correct	congruent	0.41699	no	H	H
375.5717773	n/a	96146.375	responseSmallH	correct	n/a	0.41699	no	n/a	n/a
376.6347656	n/a	96418.5	largeTSmallH	error	incongruent	0.46045	no	T	H
377.0952148	n/a	96536.375	responseSmallT	error	n/a	0.46045	no	n/a	n/a
378.1679688	n/a	96811	largeHSmallH	correct	congruent	0.57373	no	H	H
378.7416992	n/a	96957.875	responseSmallH	correct	n/a	0.57373	no	n/a	n/a
379.8212891	n/a	97234.25	largeHSmallT	correct	incongruent	0.5376	no	H	T
380.3588867	n/a	97371.875	responseSmallT	correct	n/a	0.5376	no	n/a	n/a
381.4213867	n/a	97643.875	largeTSmallT	correct	congruent	0.51807	no	T	T
381.9394531	n/a	97776.5	responseSmallT	correct	n/a	0.51807	no	n/a	n/a
383.0083008	n/a	98050.125	largeTSmallH	correct	incongruent	0.45264	no	T	H
383.4609375	n/a	98166	responseSmallH	correct	n/a	0.45264	no	n/a	n/a
384.527832	n/a	98439.125	largeTSmallH	correct	incongruent	0.48145	no	T	H
385.0092773	n/a	98562.375	responseSmallH	correct	n/a	0.48145	no	n/a	n/a
386.074707	n/a	98835.125	largeTSmallT	correct	congruent	0.53711	no	T	T
386.6118164	n/a	98972.625	responseSmallT	correct	n/a	0.53711	no	n/a	n/a
387.6748047	n/a	99244.75	largeHSmallH	correct	congruent	0.44531	no	H	H
388.1201172	n/a	99358.75	responseSmallH	correct	n/a	0.44531	no	n/a	n/a
389.1943359	n/a	99633.75	largeHSmallT	correct	incongruent	0.54834	no	H	T
389.7426758	n/a	99774.125	responseSmallT	correct	n/a	0.54834	no	n/a	n/a
390.8212891	n/a	100050.25	largeHSmallH	correct	congruent	0.47754	no	H	H
391.2988281	n/a	100172.5	responseSmallH	correct	n/a	0.47754	no	n/a	n/a
392.3808594	n/a	100449.5	largeHSmallH	correct	congruent	0.46191	no	H	H
392.8427734	n/a	100567.75	responseSmallH	correct	n/a	0.46191	no	n/a	n/a
393.9145508	n/a	100842.125	largeTSmallT	correct	congruent	0.45166	no	T	T
394.3662109	n/a	100957.75	responseSmallT	correct	n/a	0.45166	no	n/a	n/a
395.4345703	n/a	101231.25	largeTSmallT	correct	congruent	0.44531	no	T	T
395.8798828	n/a	101345.25	responseSmallT	correct	n/a	0.44531	no	n/a	n/a
396.940918	n/a	101616.875	largeTSmallT	correct	congruent	0.45557	no	T	T
397.3964844	n/a	101733.5	responseSmallT	correct	n/a	0.45557	no	n/a	n/a
398.4609375	n/a	102006	largeTSmallH	correct	incongruent	0.396	no	T	H
398.8569336	n/a	102107.375	responseSmallH	correct	n/a	0.396	no	n/a	n/a
399.9277344	n/a	102381.5	largeHSmallT	correct	incongruent	0.4458	no	H	T
400.3735352	n/a	102495.625	responseSmallT	correct	n/a	0.4458	no	n/a	n/a
401.434082	n/a	102767.125	largeHSmallT	error	incongruent	0.54053	no	H	T
401.9746094	n/a	102905.5	responseSmallH	error	n/a	0.54053	no	n/a	n/a
403.0473633	n/a	103180.125	largeHSmallH	correct	congruent	0.64111	no	H	H
403.6884766	n/a	103344.25	responseSmallH	correct	n/a	0.64111	no	n/a	n/a
404.7675781	n/a	103620.5	largeHSmallH	correct	congruent	0.48486	no	H	H
405.2524414	n/a	103744.625	responseSmallH	correct	n/a	0.48486	no	n/a	n/a
406.3271484	n/a	104019.75	largeTSmallT	correct	congruent	0.41309	no	T	T
406.7402344	n/a	104125.5	responseSmallT	correct	n/a	0.41309	no	n/a	n/a
407.8071289	n/a	104398.625	largeHSmallH	correct	congruent	0.44238	no	H	H
408.2495117	n/a	104511.875	responseSmallH	correct	n/a	0.44238	no	n/a	n/a
409.3139648	n/a	104784.375	largeTSmallH	correct	incongruent	0.52979	no	T	H
409.84375	n/a	104920	responseSmallH	correct	n/a	0.52979	no	n/a	n/a
410.9140625	n/a	105194	largeHSmallT	correct	incongruent	0.45068	no	H	T
411.3647461	n/a	105309.375	responseSmallT	correct	n/a	0.45068	no	n/a	n/a
412.4335938	n/a	105583	largeTSmallH	correct	incongruent	0.47656	no	T	H
412.9101562	n/a	105705	responseSmallH	correct	n/a	0.47656	no	n/a	n/a
413.9804688	n/a	105979	largeTSmallH	correct	incongruent	0.4751	no	T	H
414.4555664	n/a	106100.625	responseSmallH	correct	n/a	0.4751	no	n/a	n/a
415.5273438	n/a	106375	largeTSmallH	correct	incongruent	0.39551	no	T	H
415.9228516	n/a	106476.25	responseSmallH	correct	n/a	0.39551	no	n/a	n/a
416.9936523	n/a	106750.375	largeTSmallT	correct	congruent	0.46973	no	T	T
417.4633789	n/a	106870.625	responseSmallT	correct	n/a	0.46973	no	n/a	n/a
418.5405273	n/a	107146.375	largeHSmallT	correct	incongruent	0.69873	no	H	T
419.2392578	n/a	107325.25	responseSmallT	correct	n/a	0.69873	no	n/a	n/a
420.3134766	n/a	107600.25	largeTSmallT	correct	congruent	0.45605	no	T	T
420.7695312	n/a	107717	responseSmallT	correct	n/a	0.45605	no	n/a	n/a
421.8466797	n/a	107992.75	largeHSmallH	correct	congruent	0.42236	no	H	H
422.269043	n/a	108100.875	responseSmallH	correct	n/a	0.42236	no	n/a	n/a
423.340332	n/a	108375.125	largeHSmallH	correct	congruent	0.43896	no	H	H
423.7792969	n/a	108487.5	responseSmallH	correct	n/a	0.43896	no	n/a	n/a
424.8603516	n/a	108764.25	largeHSmallT	correct	incongruent	0.45947	no	H	T
425.3198242	n/a	108881.875	responseSmallT	correct	n/a	0.45947	no	n/a	n/a
426.3935547	n/a	109156.75	largeHSmallT	correct	incongruent	0.40186	no	H	T
426.7954102	n/a	109259.625	responseSmallT	correct	n/a	0.40186	no	n/a	n/a
427.8598633	n/a	109532.125	largeHSmallT	correct	incongruent	0.45557	no	H	T
428.3154297	n/a	109648.75	responseSmallT	correct	n/a	0.45557	no	n/a	n/a
429.3798828	n/a	109921.25	largeHSmallT	correct	incongruent	0.43018	no	H	T
429.8100586	n/a	110031.375	responseSmallT	correct	n/a	0.43018	no	n/a	n/a
430.8735352	n/a	110303.625	largeHSmallH	correct	congruent	0.39795	no	H	H
431.2714844	n/a	110405.5	responseSmallH	correct	n/a	0.39795	no	n/a	n/a
432.3398438	n/a	110679	largeTSmallT	correct	congruent	0.45996	no	T	T
432.7998047	n/a	110796.75	responseSmallT	correct	n/a	0.45996	no	n/a	n/a
433.8730469	n/a	111071.5	largeHSmallT	correct	incongruent	0.50928	no	H	T
434.3823242	n/a	111201.875	responseSmallT	correct	n/a	0.50928	no	n/a	n/a
435.4467773	n/a	111474.375	largeHSmallT	correct	incongruent	0.44775	no	H	T
435.8945312	n/a	111589	responseSmallT	correct	n/a	0.44775	no	n/a	n/a
436.9667969	n/a	111863.5	largeTSmallH	correct	incongruent	0.44482	no	T	H
437.4116211	n/a	111977.375	responseSmallH	correct	n/a	0.44482	no	n/a	n/a
438.4863281	n/a	112252.5	largeTSmallT	correct	congruent	0.41211	no	T	T
438.8984375	n/a	112358	responseSmallT	correct	n/a	0.41211	no	n/a	n/a
439.9663086	n/a	112631.375	largeTSmallT	correct	congruent	0.41797	no	T	T
440.3842773	n/a	112738.375	responseSmallT	correct	n/a	0.41797	no	n/a	n/a
441.4599609	n/a	113013.75	largeHSmallT	correct	incongruent	0.61182	no	H	T
442.0717773	n/a	113170.375	responseSmallT	correct	n/a	0.61182	no	n/a	n/a
443.1396484	n/a	113443.75	largeTSmallH	correct	incongruent	0.48047	no	T	H
443.6201172	n/a	113566.75	responseSmallH	correct	n/a	0.48047	no	n/a	n/a
444.699707	n/a	113843.125	largeHSmallH	correct	congruent	0.45654	no	H	H
445.15625	n/a	113960	responseSmallH	correct	n/a	0.45654	no	n/a	n/a
446.2329102	n/a	114235.625	largeTSmallT	correct	congruent	0.48242	no	T	T
446.715332	n/a	114359.125	responseSmallT	correct	n/a	0.48242	no	n/a	n/a
447.7929688	n/a	114635	largeHSmallH	correct	congruent	0.48633	no	H	H
448.2792969	n/a	114759.5	responseSmallH	correct	n/a	0.48633	no	n/a	n/a
449.3398438	n/a	115031	largeTSmallT	correct	congruent	0.44287	no	T	T
449.7827148	n/a	115144.375	responseSmallT	correct	n/a	0.44287	no	n/a	n/a
450.859375	n/a	115420	largeHSmallT	correct	incongruent	0.45752	no	H	T
451.3168945	n/a	115537.125	responseSmallT	correct	n/a	0.45752	no	n/a	n/a
452.3925781	n/a	115812.5	largeTSmallT	correct	congruent	0.4458	no	T	T
452.8383789	n/a	115926.625	responseSmallT	correct	n/a	0.4458	no	n/a	n/a
453.8994141	n/a	116198.25	largeHSmallT	correct	incongruent	0.4668	no	H	T
454.3662109	n/a	116317.75	responseSmallT	correct	n/a	0.4668	no	n/a	n/a
455.4326172	n/a	116590.75	largeHSmallH	correct	congruent	0.43848	no	H	H
455.8710938	n/a	116703	responseSmallH	correct	n/a	0.43848	no	n/a	n/a
456.9394531	n/a	116976.5	largeTSmallT	correct	congruent	0.5083	no	T	T
457.4477539	n/a	117106.625	responseSmallT	correct	n/a	0.5083	no	n/a	n/a
458.5258789	n/a	117382.625	largeHSmallT	correct	incongruent	0.44775	no	H	T
458.9736328	n/a	117497.25	responseSmallT	correct	n/a	0.44775	no	n/a	n/a
460.0458984	n/a	117771.75	largeTSmallH	correct	incongruent	0.50586	no	T	H
460.5517578	n/a	117901.25	responseSmallH	correct	n/a	0.50586	no	n/a	n/a
461.6191406	n/a	118174.5	largeTSmallT	correct	congruent	0.43164	no	T	T
462.0507812	n/a	118285	responseSmallT	correct	n/a	0.43164	no	n/a	n/a
463.1259766	n/a	118560.25	largeHSmallT	correct	incongruent	0.56641	no	H	T
463.6923828	n/a	118705.25	responseSmallT	correct	n/a	0.56641	no	n/a	n/a
464.7524414	n/a	118976.625	largeHSmallT	correct	incongruent	0.40723	no	H	T
465.159668	n/a	119080.875	responseSmallT	correct	n/a	0.40723	no	n/a	n/a
466.2324219	n/a	119355.5	largeHSmallT	correct	incongruent	0.45166	no	H	T
466.684082	n/a	119471.125	responseSmallT	correct	n/a	0.45166	no	n/a	n/a
467.765625	n/a	119748	largeTSmallH	correct	incongruent	0.40234	no	T	H
468.1679688	n/a	119851	responseSmallH	correct	n/a	0.40234	no	n/a	n/a
469.2324219	n/a	120123.5	largeHSmallT	correct	incongruent	0.41016	no	H	T
469.6425781	n/a	120228.5	responseSmallT	correct	n/a	0.41016	no	n/a	n/a
470.7124023	n/a	120502.375	largeTSmallH	correct	incongruent	0.61963	no	T	H
471.3320312	n/a	120661	responseSmallH	correct	n/a	0.61963	no	n/a	n/a
472.4057617	n/a	120935.875	largeHSmallT	correct	incongruent	0.53223	no	H	T
472.9379883	n/a	121072.125	responseSmallT	correct	n/a	0.53223	no	n/a	n/a
474.019043	n/a	121348.875	largeTSmallT	correct	congruent	0.42139	no	T	T
474.4404297	n/a	121456.75	responseSmallT	correct	n/a	0.42139	no	n/a	n/a
475.512207	n/a	121731.125	largeHSmallH	correct	congruent	0.41016	no	H	H
475.9223633	n/a	121836.125	responseSmallH	correct	n/a	0.41016	no	n/a	n/a
476.9921875	n/a	122110	largeHSmallT	correct	incongruent	0.43701	no	H	T
477.4291992	n/a	122221.875	responseSmallT	correct	n/a	0.43701	no	n/a	n/a
478.4985352	n/a	122495.625	largeTSmallT	correct	congruent	0.41748	no	T	T
478.9160156	n/a	122602.5	responseSmallT	correct	n/a	0.41748	no	n/a	n/a
479.9921875	n/a	122878	largeTSmallT	correct	congruent	0.38574	no	T	T
480.3779297	n/a	122976.75	responseSmallT	correct	n/a	0.38574	no	n/a	n/a
481.4453125	n/a	123250	largeTSmallT	correct	congruent	0.41748	no	T	T
481.862793	n/a	123356.875	responseSmallT	correct	n/a	0.41748	no	n/a	n/a
482.9384766	n/a	123632.25	largeHSmallH	correct	congruent	0.43115	no	H	H
483.3696289	n/a	123742.625	responseSmallH	correct	n/a	0.43115	no	n/a	n/a
484.4453125	n/a	124018	largeTSmallT	correct	congruent	0.45898	no	T	T
484.9042969	n/a	124135.5	responseSmallT	correct	n/a	0.45898	no	n/a	n/a
485.9785156	n/a	124410.5	largeHSmallH	correct	congruent	0.43701	no	H	H
486.4155273	n/a	124522.375	responseSmallH	correct	n/a	0.43701	no	n/a	n/a
487.4848633	n/a	124796.125	largeHSmallT	correct	incongruent	0.51465	no	H	T
487.9995117	n/a	124927.875	responseSmallT	correct	n/a	0.51465	no	n/a	n/a
489.0585938	n/a	125199	largeTSmallH	correct	incongruent	0.45801	no	T	H
489.5166016	n/a	125316.25	responseSmallH	correct	n/a	0.45801	no	n/a	n/a
490.5917969	n/a	125591.5	largeTSmallT	correct	congruent	0.44824	no	T	T
491.0400391	n/a	125706.25	responseSmallT	correct	n/a	0.44824	no	n/a	n/a
492.1118164	n/a	125980.625	largeHSmallT	correct	incongruent	0.44824	no	H	T
492.5600586	n/a	126095.375	responseSmallT	correct	n/a	0.44824	no	n/a	n/a
493.7119141	n/a	126390.25	largeHSmallT	correct	incongruent	0.54736	no	H	T
494.2592773	n/a	126530.375	responseSmallT	correct	n/a	0.54736	no	n/a	n/a
495.3383789	n/a	126806.625	largeTSmallT	correct	congruent	0.4292	no	T	T
495.7675781	n/a	126916.5	responseSmallT	correct	n/a	0.4292	no	n/a	n/a
496.831543	n/a	127188.875	largeHSmallT	correct	incongruent	0.42578	no	H	T
497.2573242	n/a	127297.875	responseSmallT	correct	n/a	0.42578	no	n/a	n/a
498.3251953	n/a	127571.25	largeHSmallT	correct	incongruent	0.46045	no	H	T
498.7856445	n/a	127689.125	responseSmallT	correct	n/a	0.46045	no	n/a	n/a
499.8583984	n/a	127963.75	largeHSmallH	correct	congruent	0.4541	no	H	H
500.3125	n/a	128080	responseSmallH	correct	n/a	0.4541	no	n/a	n/a
501.3916016	n/a	128356.25	largeTSmallH	correct	incongruent	0.40479	no	T	H
501.7963867	n/a	128459.875	responseSmallH	correct	n/a	0.40479	no	n/a	n/a
502.871582	n/a	128735.125	largeTSmallH	correct	incongruent	0.38525	no	T	H
503.2568359	n/a	128833.75	responseSmallH	correct	n/a	0.38525	no	n/a	n/a
504.324707	n/a	129107.125	largeHSmallH	correct	congruent	0.37988	no	H	H
504.7045898	n/a	129204.375	responseSmallH	correct	n/a	0.37988	no	n/a	n/a
505.777832	n/a	129479.125	largeHSmallH	correct	congruent	0.45557	no	H	H
506.2333984	n/a	129595.75	responseSmallH	correct	n/a	0.45557	no	n/a	n/a
507.2978516	n/a	129868.25	largeHSmallT	correct	incongruent	0.50439	no	H	T
507.8022461	n/a	129997.375	responseSmallT	correct	n/a	0.50439	no	n/a	n/a
508.871582	n/a	130271.125	largeHSmallT	correct	incongruent	0.43359	no	H	T
509.3051758	n/a	130382.125	responseSmallT	correct	n/a	0.43359	no	n/a	n/a
510.3779297	n/a	130656.75	largeHSmallH	correct	congruent	0.44385	no	H	H
510.8217773	n/a	130770.375	responseSmallH	correct	n/a	0.44385	no	n/a	n/a
511.8847656	n/a	131042.5	largeHSmallH	correct	congruent	0.41992	no	H	H
512.3046875	n/a	131150	responseSmallH	correct	n/a	0.41992	no	n/a	n/a
513.3642578	n/a	131421.25	largeTSmallH	correct	incongruent	0.51172	no	T	H
513.8759766	n/a	131552.25	responseSmallH	correct	n/a	0.51172	no	n/a	n/a
514.9511719	n/a	131827.5	largeTSmallT	correct	congruent	0.52734	no	T	T
515.4785156	n/a	131962.5	responseSmallT	correct	n/a	0.52734	no	n/a	n/a
516.5512695	n/a	132237.125	largeHSmallT	correct	incongruent	0.4126	no	H	T
516.9638672	n/a	132342.75	responseSmallT	correct	n/a	0.4126	no	n/a	n/a
518.03125	n/a	132616	largeHSmallH	correct	congruent	0.41211	no	H	H
518.4433594	n/a	132721.5	responseSmallH	correct	n/a	0.41211	no	n/a	n/a
519.5112305	n/a	132994.875	largeTSmallH	error	incongruent	0.43604	no	T	H
519.9472656	n/a	133106.5	responseSmallT	error	n/a	0.43604	no	n/a	n/a
521.0175781	n/a	133380.5	largeTSmallT	correct	congruent	0.43408	no	T	T
521.4516602	n/a	133491.625	responseSmallT	correct	n/a	0.43408	no	n/a	n/a
522.5244141	n/a	133766.25	largeHSmallH	correct	congruent	0.46289	no	H	H
522.9873047	n/a	133884.75	responseSmallH	correct	n/a	0.46289	no	n/a	n/a
524.0576172	n/a	134158.75	largeTSmallH	correct	incongruent	0.50977	no	T	H
524.5673828	n/a	134289.25	responseSmallH	correct	n/a	0.50977	no	n/a	n/a
525.6308594	n/a	134561.5	largeHSmallT	correct	incongruent	0.46533	no	H	T
526.0961914	n/a	134680.625	responseSmallT	correct	n/a	0.46533	no	n/a	n/a
527.1640625	n/a	134954	largeHSmallT	correct	incongruent	0.4624	no	H	T
527.6264648	n/a	135072.375	responseSmallT	correct	n/a	0.4624	no	n/a	n/a
528.7109375	n/a	135350	largeHSmallT	correct	incongruent	0.42578	no	H	T
529.1367188	n/a	135459	responseSmallT	correct	n/a	0.42578	no	n/a	n/a
530.2041016	n/a	135732.25	largeTSmallT	correct	congruent	0.71924	no	T	T
530.9233398	n/a	135916.375	responseSmallT	correct	n/a	0.71924	no	n/a	n/a
531.9907227	n/a	136189.625	largeHSmallH	correct	congruent	0.43994	no	H	H
532.4306641	n/a	136302.25	responseSmallH	correct	n/a	0.43994	no	n/a	n/a
533.4975586	n/a	136575.375	largeHSmallH	correct	congruent	0.63184	no	H	H
534.1293945	n/a	136737.125	responseSmallH	correct	n/a	0.63184	no	n/a	n/a
535.1904297	n/a	137008.75	largeTSmallH	correct	incongruent	0.43018	no	T	H
535.6206055	n/a	137118.875	responseSmallH	correct	n/a	0.43018	no	n/a	n/a
536.6972656	n/a	137394.5	largeTSmallH	correct	incongruent	0.38135	no	T	H
537.0786133	n/a	137492.125	responseSmallH	correct	n/a	0.38135	no	n/a	n/a
538.137207	n/a	137763.125	largeTSmallT	correct	congruent	0.40674	no	T	T
538.5439453	n/a	137867.25	responseSmallT	correct	n/a	0.40674	no	n/a	n/a
539.7104492	n/a	138165.875	largeTSmallT	correct	congruent	0.37207	no	T	T
540.0825195	n/a	138261.125	responseSmallT	correct	n/a	0.37207	no	n/a	n/a
541.1503906	n/a	138534.5	largeHSmallH	correct	congruent	0.45996	no	H	H
541.6103516	n/a	138652.25	responseSmallH	correct	n/a	0.45996	no	n/a	n/a
542.6835938	n/a	138927	largeHSmallT	correct	incongruent	0.41357	no	H	T
543.097168	n/a	139032.875	responseSmallT	correct	n/a	0.41357	no	n/a	n/a
544.1635742	n/a	139305.875	largeTSmallT	correct	congruent	0.42773	no	T	T
544.5913086	n/a	139415.375	responseSmallT	correct	n/a	0.42773	no	n/a	n/a
545.6572266	n/a	139688.25	largeTSmallT	correct	congruent	0.43799	no	T	T
546.0952148	n/a	139800.375	responseSmallT	correct	n/a	0.43799	no	n/a	n/a
547.1635742	n/a	140073.875	largeTSmallT	correct	congruent	0.39258	no	T	T
547.5561523	n/a	140174.375	responseSmallT	correct	n/a	0.39258	no	n/a	n/a
548.6298828	n/a	140449.25	largeHSmallH	correct	congruent	0.37207	no	H	H
549.0019531	n/a	140544.5	responseSmallH	correct	n/a	0.37207	no	n/a	n/a
550.0708008	n/a	140818.125	largeTSmallH	correct	incongruent	0.38623	no	T	H
550.4570312	n/a	140917	responseSmallH	correct	n/a	0.38623	no	n/a	n/a
551.5234375	n/a	141190	largeTSmallH	correct	incongruent	0.41309	no	T	H
551.9365234	n/a	141295.75	responseSmallH	correct	n/a	0.41309	no	n/a	n/a
553.003418	n/a	141568.875	largeTSmallH	correct	incongruent	0.45312	no	T	H
553.456543	n/a	141684.875	responseSmallH	correct	n/a	0.45312	no	n/a	n/a
554.5234375	n/a	141958	largeTSmallT	correct	congruent	0.41064	no	T	T
554.934082	n/a	142063.125	responseSmallT	correct	n/a	0.41064	no	n/a	n/a
556.003418	n/a	142336.875	largeTSmallT	correct	congruent	0.41357	no	T	T
556.4169922	n/a	142442.75	responseSmallT	correct	n/a	0.41357	no	n/a	n/a
557.4833984	n/a	142715.75	largeTSmallH	correct	incongruent	0.42334	no	T	H
557.9067383	n/a	142824.125	responseSmallH	correct	n/a	0.42334	no	n/a	n/a
558.9897461	n/a	143101.375	largeTSmallT	correct	congruent	0.46777	no	T	T
559.4575195	n/a	143221.125	responseSmallT	correct	n/a	0.46777	no	n/a	n/a
560.5234375	n/a	143494	largeTSmallH	correct	incongruent	0.44873	no	T	H
560.972168	n/a	143608.875	responseSmallH	correct	n/a	0.44873	no	n/a	n/a
562.0429688	n/a	143883	largeHSmallH	correct	congruent	0.4668	no	H	H
562.5097656	n/a	144002.5	responseSmallH	correct	n/a	0.4668	no	n/a	n/a
563.5898438	n/a	144279	largeTSmallH	correct	incongruent	0.46924	no	T	H
564.059082	n/a	144399.125	responseSmallH	correct	n/a	0.46924	no	n/a	n/a
565.1367188	n/a	144675	largeTSmallT	correct	congruent	0.45703	no	T	T
565.59375	n/a	144792	responseSmallT	correct	n/a	0.45703	no	n/a	n/a
566.65625	n/a	145064	largeTSmallT	correct	congruent	0.479	no	T	T
567.1352539	n/a	145186.625	responseSmallT	correct	n/a	0.479	no	n/a	n/a
568.203125	n/a	145460	largeTSmallH	correct	incongruent	0.49561	no	T	H
568.6987305	n/a	145586.875	responseSmallH	correct	n/a	0.49561	no	n/a	n/a
569.7631836	n/a	145859.375	largeTSmallH	correct	incongruent	0.42529	no	T	H
570.1884766	n/a	145968.25	responseSmallH	correct	n/a	0.42529	no	n/a	n/a
571.2563477	n/a	146241.625	largeTSmallH	correct	incongruent	0.39404	no	T	H
571.6503906	n/a	146342.5	responseSmallH	correct	n/a	0.39404	no	n/a	n/a
572.7231445	n/a	146617.125	largeHSmallT	correct	incongruent	0.45605	no	H	T
573.1791992	n/a	146733.875	responseSmallT	correct	n/a	0.45605	no	n/a	n/a
574.2563477	n/a	147009.625	largeTSmallT	correct	congruent	0.44482	no	T	T
574.7011719	n/a	147123.5	responseSmallT	correct	n/a	0.44482	no	n/a	n/a
575.7763672	n/a	147398.75	largeTSmallT	correct	congruent	0.44922	no	T	T
576.2255859	n/a	147513.75	responseSmallT	correct	n/a	0.44922	no	n/a	n/a
577.2963867	n/a	147787.875	largeTSmallT	correct	congruent	0.37793	no	T	T
577.6743164	n/a	147884.625	responseSmallT	correct	n/a	0.37793	no	n/a	n/a
578.7495117	n/a	148159.875	largeHSmallH	correct	congruent	0.44385	no	H	H
579.1933594	n/a	148273.5	responseSmallH	correct	n/a	0.44385	no	n/a	n/a
580.2558594	n/a	148545.5	largeHSmallH	correct	congruent	0.43311	no	H	H
580.6889648	n/a	148656.375	responseSmallH	correct	n/a	0.43311	no	n/a	n/a
581.7626953	n/a	148931.25	largeTSmallH	correct	incongruent	0.43164	no	T	H
582.1943359	n/a	149041.75	responseSmallH	correct	n/a	0.43164	no	n/a	n/a
583.2563477	n/a	149313.625	largeTSmallH	correct	incongruent	0.44238	no	T	H
583.6987305	n/a	149426.875	responseSmallH	correct	n/a	0.44238	no	n/a	n/a
584.7763672	n/a	149702.75	largeHSmallT	correct	incongruent	0.38525	no	H	T
585.1616211	n/a	149801.375	responseSmallT	correct	n/a	0.38525	no	n/a	n/a
586.2426758	n/a	150078.125	largeHSmallH	correct	congruent	0.38428	no	H	H
586.6269531	n/a	150176.5	responseSmallH	correct	n/a	0.38428	no	n/a	n/a
587.7094727	n/a	150453.625	largeTSmallH	correct	incongruent	0.42676	no	T	H
588.1362305	n/a	150562.875	responseSmallH	correct	n/a	0.42676	no	n/a	n/a
589.2026367	n/a	150835.875	largeTSmallH	correct	incongruent	0.38818	no	T	H
589.5908203	n/a	150935.25	responseSmallH	correct	n/a	0.38818	no	n/a	n/a
590.6689453	n/a	151211.25	largeHSmallH	correct	congruent	0.39795	no	H	H
591.0668945	n/a	151313.125	responseSmallH	correct	n/a	0.39795	no	n/a	n/a
592.1357422	n/a	151586.75	largeHSmallT	correct	incongruent	0.50049	no	H	T
592.6362305	n/a	151714.875	responseSmallT	correct	n/a	0.50049	no	n/a	n/a
593.7089844	n/a	151989.5	largeHSmallT	correct	incongruent	0.39453	no	H	T
594.1035156	n/a	152090.5	responseSmallT	correct	n/a	0.39453	no	n/a	n/a
595.1757812	n/a	152365	largeHSmallH	correct	congruent	0.44385	no	H	H
595.6196289	n/a	152478.625	responseSmallH	correct	n/a	0.44385	no	n/a	n/a
596.6826172	n/a	152750.75	largeHSmallT	correct	incongruent	0.40332	no	H	T
597.0859375	n/a	152854	responseSmallT	correct	n/a	0.40332	no	n/a	n/a
598.1489258	n/a	153126.125	largeHSmallH	correct	congruent	0.42969	no	H	H
598.5786133	n/a	153236.125	responseSmallH	correct	n/a	0.42969	no	n/a	n/a
599.7089844	n/a	153525.5	largeHSmallT	correct	incongruent	0.43652	no	H	T
600.1455078	n/a	153637.25	responseSmallT	correct	n/a	0.43652	no	n/a	n/a
601.215332	n/a	153911.125	largeHSmallH	correct	congruent	0.44092	no	H	H
601.65625	n/a	154024	responseSmallH	correct	n/a	0.44092	no	n/a	n/a
602.722168	n/a	154296.875	largeHSmallT	correct	incongruent	0.51367	no	H	T
603.2358398	n/a	154428.375	responseSmallT	correct	n/a	0.51367	no	n/a	n/a
604.2954102	n/a	154699.625	largeHSmallT	correct	incongruent	0.44092	no	H	T
604.7363281	n/a	154812.5	responseSmallT	correct	n/a	0.44092	no	n/a	n/a
605.8022461	n/a	155085.375	largeTSmallH	correct	incongruent	0.51953	no	T	H
606.3217773	n/a	155218.375	responseSmallH	correct	n/a	0.51953	no	n/a	n/a
607.3881836	n/a	155491.375	largeTSmallH	correct	incongruent	0.41992	no	T	H
607.8081055	n/a	155598.875	responseSmallH	correct	n/a	0.41992	no	n/a	n/a
608.8686523	n/a	155870.375	largeHSmallH	correct	congruent	0.4502	no	H	H
609.3188477	n/a	155985.625	responseSmallH	correct	n/a	0.4502	no	n/a	n/a
610.3886719	n/a	156259.5	largeHSmallH	correct	congruent	0.41113	no	H	H
610.7998047	n/a	156364.75	responseSmallH	correct	n/a	0.41113	no	n/a	n/a
611.8686523	n/a	156638.375	largeTSmallH	error	incongruent	0.43945	no	T	H
612.3081055	n/a	156750.875	responseSmallT	error	n/a	0.43945	no	n/a	n/a
613.3886719	n/a	157027.5	largeHSmallH	correct	congruent	0.43604	no	H	H
613.824707	n/a	157139.125	responseSmallH	correct	n/a	0.43604	no	n/a	n/a
614.8950195	n/a	157413.125	largeTSmallH	correct	incongruent	0.43408	no	T	H
615.3291016	n/a	157524.25	responseSmallH	correct	n/a	0.43408	no	n/a	n/a
616.3886719	n/a	157795.5	largeHSmallT	correct	incongruent	0.42188	no	H	T
616.8105469	n/a	157903.5	responseSmallT	correct	n/a	0.42188	no	n/a	n/a
617.8686523	n/a	158174.375	largeHSmallT	correct	incongruent	0.61523	no	H	T
618.4838867	n/a	158331.875	responseSmallT	correct	n/a	0.61523	no	n/a	n/a
619.5615234	n/a	158607.75	largeHSmallH	correct	congruent	0.50195	no	H	H
620.0634766	n/a	158736.25	responseSmallH	correct	n/a	0.50195	no	n/a	n/a
621.1352539	n/a	159010.625	largeHSmallT	correct	incongruent	0.47314	no	H	T
621.6083984	n/a	159131.75	responseSmallT	correct	n/a	0.47314	no	n/a	n/a
622.6816406	n/a	159406.5	largeHSmallH	correct	congruent	0.4502	no	H	H
623.1318359	n/a	159521.75	responseSmallH	correct	n/a	0.4502	no	n/a	n/a
624.2021484	n/a	159795.75	largeTSmallT	correct	congruent	0.4541	no	T	T
624.65625	n/a	159912	responseSmallT	correct	n/a	0.4541	no	n/a	n/a
625.7216797	n/a	160184.75	largeTSmallH	correct	incongruent	0.521	no	T	H
626.2426758	n/a	160318.125	responseSmallH	correct	n/a	0.521	no	n/a	n/a
627.3081055	n/a	160590.875	largeHSmallH	correct	congruent	0.44775	no	H	H
627.7558594	n/a	160705.5	responseSmallH	correct	n/a	0.44775	no	n/a	n/a
628.828125	n/a	160980	largeHSmallT	correct	incongruent	0.46924	no	H	T
629.2973633	n/a	161100.125	responseSmallT	correct	n/a	0.46924	no	n/a	n/a
630.375	n/a	161376	largeTSmallH	correct	incongruent	0.42432	no	T	H
630.7993164	n/a	161484.625	responseSmallH	correct	n/a	0.42432	no	n/a	n/a
631.8681641	n/a	161758.25	largeTSmallH	correct	incongruent	0.48535	no	T	H
632.3535156	n/a	161882.5	responseSmallH	correct	n/a	0.48535	no	n/a	n/a
633.4282227	n/a	162157.625	largeTSmallT	correct	congruent	0.42383	no	T	T
633.8520508	n/a	162266.125	responseSmallT	correct	n/a	0.42383	no	n/a	n/a
634.9213867	n/a	162539.875	largeHSmallH	correct	congruent	0.37891	no	H	H
635.300293	n/a	162636.875	responseSmallH	correct	n/a	0.37891	no	n/a	n/a
636.375	n/a	162912	largeTSmallH	correct	incongruent	0.58398	no	T	H
636.9589844	n/a	163061.5	responseSmallH	correct	n/a	0.58398	no	n/a	n/a
638.027832	n/a	163335.125	largeHSmallT	correct	incongruent	0.479	no	H	T
638.5068359	n/a	163457.75	responseSmallT	correct	n/a	0.479	no	n/a	n/a
639.574707	n/a	163731.125	largeTSmallH	correct	incongruent	0.63135	no	T	H
640.2060547	n/a	163892.75	responseSmallH	correct	n/a	0.63135	no	n/a	n/a
641.2680664	n/a	164164.625	largeTSmallT	correct	congruent	0.49756	no	T	T
641.765625	n/a	164292	responseSmallT	correct	n/a	0.49756	no	n/a	n/a
646.8808594	n/a	165601.5	largeTSmallH	correct	incongruent	0.57324	no	T	H
647.4541016	n/a	165748.25	responseLargeT	correct	n/a	0.57324	no	n/a	n/a
648.534668	n/a	166024.875	largeHSmallH	correct	congruent	0.36328	no	H	H
648.8979492	n/a	166117.875	responseLargeH	correct	n/a	0.36328	no	n/a	n/a
649.9609375	n/a	166390	largeHSmallH	correct	congruent	0.39795	no	H	H
650.3588867	n/a	166491.875	responseLargeH	correct	n/a	0.39795	no	n/a	n/a
651.4277344	n/a	166765.5	largeHSmallT	correct	incongruent	0.41113	no	H	T
651.8388672	n/a	166870.75	responseLargeH	correct	n/a	0.41113	no	n/a	n/a
652.9077148	n/a	167144.375	largeTSmallT	correct	congruent	0.41748	no	T	T
653.3251953	n/a	167251.25	responseLargeT	correct	n/a	0.41748	no	n/a	n/a
654.3876953	n/a	167523.25	largeHSmallT	correct	incongruent	0.53516	no	H	T
654.9228516	n/a	167660.25	responseLargeH	correct	n/a	0.53516	no	n/a	n/a
656.0009766	n/a	167936.25	largeTSmallH	correct	incongruent	0.45312	no	T	H
656.4541016	n/a	168052.25	responseLargeT	correct	n/a	0.45312	no	n/a	n/a
657.5341797	n/a	168328.75	largeTSmallT	correct	congruent	0.40137	no	T	T
657.9355469	n/a	168431.5	responseLargeT	correct	n/a	0.40137	no	n/a	n/a
659.0141602	n/a	168707.625	largeTSmallH	correct	incongruent	0.50439	no	T	H
659.5185547	n/a	168836.75	responseLargeT	correct	n/a	0.50439	no	n/a	n/a
660.5874023	n/a	169110.375	largeHSmallH	correct	congruent	0.40967	no	H	H
660.9970703	n/a	169215.25	responseLargeH	correct	n/a	0.40967	no	n/a	n/a
662.0673828	n/a	169489.25	largeTSmallT	correct	congruent	0.44678	no	T	T
662.5141602	n/a	169603.625	responseLargeT	correct	n/a	0.44678	no	n/a	n/a
663.5874023	n/a	169878.375	largeHSmallT	correct	incongruent	0.41992	no	H	T
664.0073242	n/a	169985.875	responseLargeH	correct	n/a	0.41992	no	n/a	n/a
665.0805664	n/a	170260.625	largeTSmallT	correct	congruent	0.46631	no	T	T
665.546875	n/a	170380	responseLargeT	correct	n/a	0.46631	no	n/a	n/a
666.6269531	n/a	170656.5	largeTSmallT	correct	congruent	0.41113	no	T	T
667.0380859	n/a	170761.75	responseLargeT	correct	n/a	0.41113	no	n/a	n/a
668.1074219	n/a	171035.5	largeHSmallH	correct	congruent	0.53857	no	H	H
668.6459961	n/a	171173.375	responseLargeH	correct	n/a	0.53857	no	n/a	n/a
669.7207031	n/a	171448.5	largeHSmallH	correct	congruent	0.4043	no	H	H
670.125	n/a	171552	responseLargeH	correct	n/a	0.4043	no	n/a	n/a
671.2006836	n/a	171827.375	largeTSmallT	correct	congruent	0.4707	no	T	T
671.6713867	n/a	171947.875	responseLargeT	correct	n/a	0.4707	no	n/a	n/a
672.7470703	n/a	172223.25	largeHSmallH	correct	congruent	0.43018	no	H	H
673.1772461	n/a	172333.375	responseLargeH	correct	n/a	0.43018	no	n/a	n/a
674.2539062	n/a	172609	largeTSmallT	correct	congruent	0.45264	no	T	T
674.706543	n/a	172724.875	responseLargeT	correct	n/a	0.45264	no	n/a	n/a
675.7871094	n/a	173001.5	largeHSmallT	correct	incongruent	0.46436	no	H	T
676.2514648	n/a	173120.375	responseLargeH	correct	n/a	0.46436	no	n/a	n/a
677.3203125	n/a	173394	largeHSmallT	correct	incongruent	0.40674	no	H	T
677.7270508	n/a	173498.125	responseLargeH	correct	n/a	0.40674	no	n/a	n/a
678.7866211	n/a	173769.375	largeHSmallH	correct	congruent	0.44971	no	H	H
679.2363281	n/a	173884.5	responseLargeH	correct	n/a	0.44971	no	n/a	n/a
680.3071289	n/a	174158.625	largeHSmallT	correct	incongruent	0.41162	no	H	T
680.71875	n/a	174264	responseLargeH	correct	n/a	0.41162	no	n/a	n/a
681.7866211	n/a	174537.375	largeHSmallH	correct	congruent	0.40039	no	H	H
682.1870117	n/a	174639.875	responseLargeH	correct	n/a	0.40039	no	n/a	n/a
683.253418	n/a	174912.875	largeTSmallH	correct	incongruent	0.44238	no	T	H
683.6958008	n/a	175026.125	responseLargeT	correct	n/a	0.44238	no	n/a	n/a
684.7734375	n/a	175302	largeHSmallH	correct	congruent	0.45117	no	H	H
685.2246094	n/a	175417.5	responseLargeH	correct	n/a	0.45117	no	n/a	n/a
686.293457	n/a	175691.125	largeTSmallH	correct	incongruent	0.48682	no	T	H
686.7802734	n/a	175815.75	responseLargeT	correct	n/a	0.48682	no	n/a	n/a
687.8535156	n/a	176090.5	largeTSmallH	correct	incongruent	0.45752	no	T	H
688.3110352	n/a	176207.625	responseLargeT	correct	n/a	0.45752	no	n/a	n/a
689.3867188	n/a	176483	largeHSmallT	correct	incongruent	0.41748	no	H	T
689.8041992	n/a	176589.875	responseLargeH	correct	n/a	0.41748	no	n/a	n/a
690.8798828	n/a	176865.25	largeTSmallT	correct	congruent	0.46094	no	T	T
691.3408203	n/a	176983.25	responseLargeT	correct	n/a	0.46094	no	n/a	n/a
692.4130859	n/a	177257.75	largeTSmallH	correct	incongruent	0.38281	no	T	H
692.7958984	n/a	177355.75	responseLargeT	correct	n/a	0.38281	no	n/a	n/a
693.8662109	n/a	177629.75	largeTSmallH	correct	incongruent	0.41064	no	T	H
694.2768555	n/a	177734.875	responseLargeT	correct	n/a	0.41064	no	n/a	n/a
695.3466797	n/a	178008.75	largeTSmallT	correct	congruent	0.396	no	T	T
695.7426758	n/a	178110.125	responseLargeT	correct	n/a	0.396	no	n/a	n/a
696.8129883	n/a	178384.125	largeHSmallH	correct	congruent	0.38721	no	H	H
697.2001953	n/a	178483.25	responseLargeH	correct	n/a	0.38721	no	n/a	n/a
698.2797852	n/a	178759.625	largeTSmallH	correct	incongruent	0.40967	no	T	H
698.6894531	n/a	178864.5	responseLargeT	correct	n/a	0.40967	no	n/a	n/a
699.7597656	n/a	179138.5	largeHSmallT	error	incongruent	0.43799	no	H	T
700.1977539	n/a	179250.625	responseLargeT	error	n/a	0.43799	no	n/a	n/a
701.2666016	n/a	179524.25	largeTSmallH	correct	incongruent	0.47656	no	T	H
701.7431641	n/a	179646.25	responseLargeT	correct	n/a	0.47656	no	n/a	n/a
702.8129883	n/a	179920.125	largeHSmallT	correct	incongruent	0.4248	no	H	T
703.237793	n/a	180028.875	responseLargeH	correct	n/a	0.4248	no	n/a	n/a
704.3188477	n/a	180305.625	largeTSmallT	correct	congruent	0.46094	no	T	T
704.7797852	n/a	180423.625	responseLargeT	correct	n/a	0.46094	no	n/a	n/a
705.8388672	n/a	180694.75	largeHSmallT	correct	incongruent	0.4165	no	H	T
706.2553711	n/a	180801.375	responseLargeH	correct	n/a	0.4165	no	n/a	n/a
707.3188477	n/a	181073.625	largeTSmallH	correct	incongruent	0.46631	no	T	H
707.7851562	n/a	181193	responseLargeT	correct	n/a	0.46631	no	n/a	n/a
708.8525391	n/a	181466.25	largeHSmallT	correct	incongruent	0.55908	no	H	T
709.4116211	n/a	181609.375	responseLargeH	correct	n/a	0.55908	no	n/a	n/a
710.4785156	n/a	181882.5	largeHSmallH	correct	congruent	0.53662	no	H	H
711.0151367	n/a	182019.875	responseLargeH	correct	n/a	0.53662	no	n/a	n/a
712.0795898	n/a	182292.375	largeHSmallH	correct	congruent	0.41992	no	H	H
712.4995117	n/a	182399.875	responseLargeH	correct	n/a	0.41992	no	n/a	n/a
713.559082	n/a	182671.125	largeTSmallH	correct	incongruent	0.49219	no	T	H
714.0512695	n/a	182797.125	responseLargeT	correct	n/a	0.49219	no	n/a	n/a
715.1186523	n/a	183070.375	largeTSmallT	correct	congruent	0.42822	no	T	T
715.546875	n/a	183180	responseLargeT	correct	n/a	0.42822	no	n/a	n/a
716.7192383	n/a	183480.125	largeTSmallH	error	incongruent	0.48438	no	T	H
717.2036133	n/a	183604.125	responseLargeH	error	n/a	0.48438	no	n/a	n/a
718.2783203	n/a	183879.25	largeTSmallT	correct	congruent	0.57324	no	T	T
718.8515625	n/a	184026	responseLargeT	correct	n/a	0.57324	no	n/a	n/a
719.9321289	n/a	184302.625	largeHSmallH	correct	congruent	0.47266	no	H	H
720.4047852	n/a	184423.625	responseLargeH	correct	n/a	0.47266	no	n/a	n/a
721.4785156	n/a	184698.5	largeTSmallT	correct	congruent	0.49951	no	T	T
721.9780273	n/a	184826.375	responseLargeT	correct	n/a	0.49951	no	n/a	n/a
723.0527344	n/a	185101.5	largeHSmallH	correct	congruent	0.4502	no	H	H
723.5029297	n/a	185216.75	responseLargeH	correct	n/a	0.4502	no	n/a	n/a
724.5722656	n/a	185490.5	largeTSmallT	correct	congruent	0.42578	no	T	T
724.9980469	n/a	185599.5	responseLargeT	correct	n/a	0.42578	no	n/a	n/a
726.0791016	n/a	185876.25	largeHSmallT	correct	incongruent	0.40479	no	H	T
726.4838867	n/a	185979.875	responseLargeH	correct	n/a	0.40479	no	n/a	n/a
727.559082	n/a	186255.125	largeTSmallT	correct	congruent	0.42822	no	T	T
727.9873047	n/a	186364.75	responseLargeT	correct	n/a	0.42822	no	n/a	n/a
729.0522461	n/a	186637.375	largeTSmallT	correct	congruent	0.56689	no	T	T
729.6191406	n/a	186782.5	responseLargeT	correct	n/a	0.56689	no	n/a	n/a
730.7280273	n/a	187066.375	largeHSmallH	correct	congruent	0.43262	no	H	H
731.1606445	n/a	187177.125	responseLargeH	correct	n/a	0.43262	no	n/a	n/a
732.2387695	n/a	187453.125	largeHSmallH	correct	congruent	0.37646	no	H	H
732.6152344	n/a	187549.5	responseLargeH	correct	n/a	0.37646	no	n/a	n/a
733.6918945	n/a	187825.125	largeHSmallT	correct	incongruent	0.41406	no	H	T
734.105957	n/a	187931.125	responseLargeH	correct	n/a	0.41406	no	n/a	n/a
735.1723633	n/a	188204.125	largeHSmallH	correct	congruent	0.45752	no	H	H
735.6298828	n/a	188321.25	responseLargeH	correct	n/a	0.45752	no	n/a	n/a
736.7055664	n/a	188596.625	largeHSmallH	correct	congruent	0.35449	no	H	H
737.0600586	n/a	188687.375	responseLargeH	correct	n/a	0.35449	no	n/a	n/a
738.1318359	n/a	188961.75	largeTSmallH	correct	incongruent	0.43262	no	T	H
738.5644531	n/a	189072.5	responseLargeT	correct	n/a	0.43262	no	n/a	n/a
739.6386719	n/a	189347.5	largeTSmallH	correct	incongruent	0.37549	no	T	H
740.0141602	n/a	189443.625	responseLargeT	correct	n/a	0.37549	no	n/a	n/a
741.0786133	n/a	189716.125	largeHSmallT	correct	incongruent	0.35205	no	H	T
741.4306641	n/a	189806.25	responseLargeH	correct	n/a	0.35205	no	n/a	n/a
742.5053711	n/a	190081.375	largeHSmallH	correct	congruent	0.37744	no	H	H
742.8828125	n/a	190178	responseLargeH	correct	n/a	0.37744	no	n/a	n/a
743.9584961	n/a	190453.375	largeHSmallT	correct	incongruent	0.57764	no	H	T
744.5361328	n/a	190601.25	responseLargeH	correct	n/a	0.57764	no	n/a	n/a
745.7270508	n/a	190906.125	largeTSmallH	correct	incongruent	0.41016	no	T	H
746.137207	n/a	191011.125	responseLargeT	correct	n/a	0.41016	no	n/a	n/a
747.2119141	n/a	191286.25	largeTSmallT	correct	congruent	0.40674	no	T	T
747.6186523	n/a	191390.375	responseLargeT	correct	n/a	0.40674	no	n/a	n/a
748.6918945	n/a	191665.125	largeHSmallT	correct	incongruent	0.44336	no	H	T
749.1352539	n/a	191778.625	responseLargeH	correct	n/a	0.44336	no	n/a	n/a
750.2119141	n/a	192054.25	largeHSmallH	correct	congruent	0.42969	no	H	H
750.6416016	n/a	192164.25	responseLargeH	correct	n/a	0.42969	no	n/a	n/a
751.7050781	n/a	192436.5	largeTSmallT	correct	congruent	0.43018	no	T	T
752.1352539	n/a	192546.625	responseLargeT	correct	n/a	0.43018	no	n/a	n/a
753.2119141	n/a	192822.25	largeTSmallT	correct	congruent	0.38135	no	T	T
753.5932617	n/a	192919.875	responseLargeT	correct	n/a	0.38135	no	n/a	n/a
754.6650391	n/a	193194.25	largeHSmallH	correct	congruent	0.44922	no	H	H
755.1142578	n/a	193309.25	responseLargeH	correct	n/a	0.44922	no	n/a	n/a
756.1850586	n/a	193583.375	largeHSmallH	correct	congruent	0.41602	no	H	H
756.6010742	n/a	193689.875	responseLargeH	correct	n/a	0.41602	no	n/a	n/a
757.6650391	n/a	193962.25	largeHSmallH	correct	congruent	0.36963	no	H	H
758.034668	n/a	194056.875	responseLargeH	correct	n/a	0.36963	no	n/a	n/a
759.1049805	n/a	194330.875	largeTSmallT	correct	congruent	0.45166	no	T	T
759.5566406	n/a	194446.5	responseLargeT	correct	n/a	0.45166	no	n/a	n/a
760.7275391	n/a	194746.25	largeHSmallT	correct	incongruent	0.37549	no	H	T
761.1030273	n/a	194842.375	responseLargeH	correct	n/a	0.37549	no	n/a	n/a
762.1713867	n/a	195115.875	largeHSmallH	correct	congruent	0.38818	no	H	H
762.5595703	n/a	195215.25	responseLargeH	correct	n/a	0.38818	no	n/a	n/a
763.625	n/a	195488	largeTSmallH	correct	incongruent	0.46143	no	T	H
764.0864258	n/a	195606.125	responseLargeT	correct	n/a	0.46143	no	n/a	n/a
765.1582031	n/a	195880.5	largeTSmallT	correct	congruent	0.38379	no	T	T
765.5419922	n/a	195978.75	responseLargeT	correct	n/a	0.38379	no	n/a	n/a
766.5981445	n/a	196249.125	largeHSmallT	correct	incongruent	0.46875	no	H	T
767.0668945	n/a	196369.125	responseLargeH	correct	n/a	0.46875	no	n/a	n/a
768.1313477	n/a	196641.625	largeHSmallT	correct	incongruent	0.37061	no	H	T
768.5019531	n/a	196736.5	responseLargeH	correct	n/a	0.37061	no	n/a	n/a
769.5712891	n/a	197010.25	largeHSmallH	correct	congruent	0.43506	no	H	H
770.0063477	n/a	197121.625	responseLargeH	correct	n/a	0.43506	no	n/a	n/a
771.0776367	n/a	197395.875	largeTSmallH	correct	incongruent	0.38477	no	T	H
771.4624023	n/a	197494.375	responseLargeT	correct	n/a	0.38477	no	n/a	n/a
772.53125	n/a	197768	largeTSmallT	correct	congruent	0.40723	no	T	T
772.9384766	n/a	197872.25	responseLargeT	correct	n/a	0.40723	no	n/a	n/a
774.0112305	n/a	198146.875	largeTSmallH	correct	incongruent	0.37109	no	T	H
774.3823242	n/a	198241.875	responseLargeT	correct	n/a	0.37109	no	n/a	n/a
775.4511719	n/a	198515.5	largeTSmallT	correct	congruent	0.41943	no	T	T
775.8706055	n/a	198622.875	responseLargeT	correct	n/a	0.41943	no	n/a	n/a
776.9443359	n/a	198897.75	largeTSmallT	correct	congruent	0.40088	no	T	T
777.3452148	n/a	199000.375	responseLargeT	correct	n/a	0.40088	no	n/a	n/a
778.4111328	n/a	199273.25	largeHSmallT	correct	incongruent	0.38525	no	H	T
778.7963867	n/a	199371.875	responseLargeH	correct	n/a	0.38525	no	n/a	n/a
779.8642578	n/a	199645.25	largeHSmallT	correct	incongruent	0.43066	no	H	T
780.2949219	n/a	199755.5	responseLargeH	correct	n/a	0.43066	no	n/a	n/a
781.3574219	n/a	200027.5	largeHSmallT	correct	incongruent	0.37158	no	H	T
781.7290039	n/a	200122.625	responseLargeH	correct	n/a	0.37158	no	n/a	n/a
782.7973633	n/a	200396.125	largeTSmallT	correct	congruent	0.41309	no	T	T
783.2104492	n/a	200501.875	responseLargeT	correct	n/a	0.41309	no	n/a	n/a
784.2773438	n/a	200775	largeTSmallT	correct	congruent	0.43896	no	T	T
784.7163086	n/a	200887.375	responseLargeT	correct	n/a	0.43896	no	n/a	n/a
785.7973633	n/a	201164.125	largeHSmallT	correct	incongruent	0.40527	no	H	T
786.2026367	n/a	201267.875	responseLargeH	correct	n/a	0.40527	no	n/a	n/a
787.2773438	n/a	201543	largeHSmallT	correct	incongruent	0.3833	no	H	T
787.6606445	n/a	201641.125	responseLargeH	correct	n/a	0.3833	no	n/a	n/a
788.7304688	n/a	201915	largeHSmallH	correct	congruent	0.41895	no	H	H
789.1494141	n/a	202022.25	responseLargeH	correct	n/a	0.41895	no	n/a	n/a
790.2241211	n/a	202297.375	largeTSmallT	correct	congruent	0.48389	no	T	T
790.7080078	n/a	202421.25	responseLargeT	correct	n/a	0.48389	no	n/a	n/a
791.7841797	n/a	202696.75	largeHSmallH	correct	congruent	0.36768	no	H	H
792.1518555	n/a	202790.875	responseLargeH	correct	n/a	0.36768	no	n/a	n/a
793.2241211	n/a	203065.375	largeHSmallT	correct	incongruent	0.3457	no	H	T
793.5698242	n/a	203153.875	responseLargeH	correct	n/a	0.3457	no	n/a	n/a
794.637207	n/a	203427.125	largeTSmallH	error	incongruent	0.34863	no	T	H
794.9858398	n/a	203516.375	responseLargeH	error	n/a	0.34863	no	n/a	n/a
796.0639648	n/a	203792.375	largeHSmallT	correct	incongruent	0.44775	no	H	T
796.5117188	n/a	203907	responseLargeH	correct	n/a	0.44775	no	n/a	n/a
797.5839844	n/a	204181.5	largeTSmallH	correct	incongruent	0.40576	no	T	H
797.9897461	n/a	204285.375	responseLargeT	correct	n/a	0.40576	no	n/a	n/a
799.050293	n/a	204556.875	largeTSmallT	correct	congruent	0.45264	no	T	T
799.5029297	n/a	204672.75	responseLargeT	correct	n/a	0.45264	no	n/a	n/a
800.5703125	n/a	204946	largeTSmallT	correct	congruent	0.43164	no	T	T
801.0019531	n/a	205056.5	responseLargeT	correct	n/a	0.43164	no	n/a	n/a
802.0771484	n/a	205331.75	largeTSmallH	correct	incongruent	0.36523	no	T	H
802.4423828	n/a	205425.25	responseLargeT	correct	n/a	0.36523	no	n/a	n/a
803.5170898	n/a	205700.375	largeHSmallT	correct	incongruent	0.43408	no	H	T
803.9511719	n/a	205811.5	responseLargeH	correct	n/a	0.43408	no	n/a	n/a
805.0239258	n/a	206086.125	largeHSmallH	correct	congruent	0.40234	no	H	H
805.4262695	n/a	206189.125	responseLargeH	correct	n/a	0.40234	no	n/a	n/a
806.4907227	n/a	206461.625	largeHSmallH	correct	congruent	0.44824	no	H	H
806.9389648	n/a	206576.375	responseLargeH	correct	n/a	0.44824	no	n/a	n/a
808.0102539	n/a	206850.625	largeHSmallT	correct	incongruent	0.53564	no	H	T
808.5458984	n/a	206987.75	responseLargeH	correct	n/a	0.53564	no	n/a	n/a
809.6098633	n/a	207260.125	largeHSmallH	correct	congruent	0.37012	no	H	H
809.9799805	n/a	207354.875	responseLargeH	correct	n/a	0.37012	no	n/a	n/a
811.050293	n/a	207628.875	largeTSmallT	correct	congruent	0.42578	no	T	T
811.4760742	n/a	207737.875	responseLargeT	correct	n/a	0.42578	no	n/a	n/a
812.543457	n/a	208011.125	largeHSmallT	correct	incongruent	0.37695	no	H	T
812.9204102	n/a	208107.625	responseLargeH	correct	n/a	0.37695	no	n/a	n/a
813.996582	n/a	208383.125	largeTSmallH	correct	incongruent	0.43701	no	T	H
814.4335938	n/a	208495	responseLargeT	correct	n/a	0.43701	no	n/a	n/a
815.5166016	n/a	208772.25	largeHSmallT	correct	incongruent	0.44043	no	H	T
815.9570312	n/a	208885	responseLargeH	correct	n/a	0.44043	no	n/a	n/a
817.0234375	n/a	209158	largeTSmallT	correct	congruent	0.35742	no	T	T
817.3808594	n/a	209249.5	responseLargeT	correct	n/a	0.35742	no	n/a	n/a
818.4501953	n/a	209523.25	largeHSmallT	correct	incongruent	0.38965	no	H	T
818.8398438	n/a	209623	responseLargeH	correct	n/a	0.38965	no	n/a	n/a
819.9165039	n/a	209898.625	largeTSmallH	correct	incongruent	0.55225	no	T	H
820.46875	n/a	210040	responseLargeT	correct	n/a	0.55225	no	n/a	n/a
821.5297852	n/a	210311.625	largeTSmallH	correct	incongruent	0.41992	no	T	H
821.949707	n/a	210419.125	responseLargeT	correct	n/a	0.41992	no	n/a	n/a
823.0097656	n/a	210690.5	largeHSmallH	correct	congruent	0.35986	no	H	H
823.3696289	n/a	210782.625	responseLargeH	correct	n/a	0.35986	no	n/a	n/a
824.4365234	n/a	211055.75	largeTSmallH	correct	incongruent	0.4502	no	T	H
824.8867188	n/a	211171	responseLargeT	correct	n/a	0.4502	no	n/a	n/a
825.956543	n/a	211444.875	largeTSmallH	correct	incongruent	0.45605	no	T	H
826.4125977	n/a	211561.625	responseLargeT	correct	n/a	0.45605	no	n/a	n/a
827.4760742	n/a	211833.875	largeHSmallT	correct	incongruent	0.51416	no	H	T
827.9902344	n/a	211965.5	responseLargeH	correct	n/a	0.51416	no	n/a	n/a
829.0629883	n/a	212240.125	largeTSmallH	correct	incongruent	0.44922	no	T	H
829.512207	n/a	212355.125	responseLargeT	correct	n/a	0.44922	no	n/a	n/a
830.5830078	n/a	212629.25	largeHSmallT	error	incongruent	0.39844	no	H	T
830.9814453	n/a	212731.25	responseLargeT	error	n/a	0.39844	no	n/a	n/a
832.0498047	n/a	213004.75	largeTSmallT	correct	congruent	0.46289	no	T	T
832.5126953	n/a	213123.25	responseLargeT	correct	n/a	0.46289	no	n/a	n/a
833.5830078	n/a	213397.25	largeHSmallH	correct	congruent	0.53711	no	H	H
834.1201172	n/a	213534.75	responseLargeH	correct	n/a	0.53711	no	n/a	n/a
835.1962891	n/a	213810.25	largeTSmallH	correct	incongruent	0.38184	no	T	H
835.578125	n/a	213908	responseLargeT	correct	n/a	0.38184	no	n/a	n/a
836.7158203	n/a	214199.25	largeHSmallH	correct	congruent	0.47559	no	H	H
837.1914062	n/a	214321	responseLargeH	correct	n/a	0.47559	no	n/a	n/a
838.2495117	n/a	214591.875	largeTSmallT	correct	congruent	0.43555	no	T	T
838.6850586	n/a	214703.375	responseLargeT	correct	n/a	0.43555	no	n/a	n/a
839.7558594	n/a	214977.5	largeHSmallH	correct	congruent	0.3877	no	H	H
840.1435547	n/a	215076.75	responseLargeH	correct	n/a	0.3877	no	n/a	n/a
841.2226562	n/a	215353	largeTSmallH	correct	incongruent	0.45947	no	T	H
841.6821289	n/a	215470.625	responseLargeT	correct	n/a	0.45947	no	n/a	n/a
842.7426758	n/a	215742.125	largeHSmallT	error	incongruent	0.41016	no	H	T
843.152832	n/a	215847.125	responseLargeT	error	n/a	0.41016	no	n/a	n/a
844.2358398	n/a	216124.375	largeHSmallH	correct	congruent	0.4541	no	H	H
844.6899414	n/a	216240.625	responseLargeH	correct	n/a	0.4541	no	n/a	n/a
845.7558594	n/a	216513.5	largeTSmallH	correct	incongruent	0.43408	no	T	H
846.1899414	n/a	216624.625	responseLargeT	correct	n/a	0.43408	no	n/a	n/a
847.2631836	n/a	216899.375	largeTSmallH	correct	incongruent	0.51758	no	T	H
847.7807617	n/a	217031.875	responseLargeT	correct	n/a	0.51758	no	n/a	n/a
848.8491211	n/a	217305.375	largeTSmallT	correct	congruent	0.50879	no	T	T
849.3579102	n/a	217435.625	responseLargeT	correct	n/a	0.50879	no	n/a	n/a
850.4223633	n/a	217708.125	largeHSmallH	correct	congruent	0.50635	no	H	H
850.9287109	n/a	217837.75	responseLargeH	correct	n/a	0.50635	no	n/a	n/a
851.9956055	n/a	218110.875	largeTSmallT	correct	congruent	0.43896	no	T	T
852.4345703	n/a	218223.25	responseLargeT	correct	n/a	0.43896	no	n/a	n/a
853.515625	n/a	218500	largeTSmallH	correct	incongruent	0.38623	no	T	H
853.9018555	n/a	218598.875	responseLargeT	correct	n/a	0.38623	no	n/a	n/a
854.9824219	n/a	218875.5	largeHSmallH	correct	congruent	0.43848	no	H	H
855.4208984	n/a	218987.75	responseLargeH	correct	n/a	0.43848	no	n/a	n/a
856.4887695	n/a	219261.125	largeHSmallT	correct	incongruent	0.40137	no	H	T
856.8901367	n/a	219363.875	responseLargeH	correct	n/a	0.40137	no	n/a	n/a
857.9555664	n/a	219636.625	largeHSmallH	correct	congruent	0.42188	no	H	H
858.3774414	n/a	219744.625	responseLargeH	correct	n/a	0.42188	no	n/a	n/a
859.4624023	n/a	220022.375	largeHSmallH	correct	congruent	0.37744	no	H	H
859.8398438	n/a	220119	responseLargeH	correct	n/a	0.37744	no	n/a	n/a
860.9023438	n/a	220391	largeTSmallH	correct	incongruent	0.33936	no	T	H
861.2416992	n/a	220477.875	responseLargeT	correct	n/a	0.33936	no	n/a	n/a
862.3154297	n/a	220752.75	largeTSmallH	correct	incongruent	0.38916	no	T	H
862.7045898	n/a	220852.375	responseLargeT	correct	n/a	0.38916	no	n/a	n/a
863.7822266	n/a	221128.25	largeTSmallT	correct	congruent	0.40039	no	T	T
864.1826172	n/a	221230.75	responseLargeT	correct	n/a	0.40039	no	n/a	n/a
865.262207	n/a	221507.125	largeTSmallH	correct	incongruent	0.44238	no	T	H
865.7045898	n/a	221620.375	responseLargeT	correct	n/a	0.44238	no	n/a	n/a
866.7685547	n/a	221892.75	largeTSmallT	correct	congruent	0.40527	no	T	T
867.1738281	n/a	221996.5	responseLargeT	correct	n/a	0.40527	no	n/a	n/a
868.2353516	n/a	222268.25	largeHSmallH	correct	congruent	0.37305	no	H	H
868.6083984	n/a	222363.75	responseLargeH	correct	n/a	0.37305	no	n/a	n/a
869.675293	n/a	222636.875	largeTSmallT	correct	congruent	0.41846	no	T	T
870.09375	n/a	222744	responseLargeT	correct	n/a	0.41846	no	n/a	n/a
871.168457	n/a	223019.125	largeHSmallT	correct	incongruent	0.41846	no	H	T
871.5869141	n/a	223126.25	responseLargeH	correct	n/a	0.41846	no	n/a	n/a
872.6484375	n/a	223398	largeTSmallH	correct	incongruent	0.35547	no	T	H
873.0039062	n/a	223489	responseLargeT	correct	n/a	0.35547	no	n/a	n/a
874.0751953	n/a	223763.25	largeHSmallT	correct	incongruent	0.36279	no	H	T
874.4379883	n/a	223856.125	responseLargeH	correct	n/a	0.36279	no	n/a	n/a
875.5019531	n/a	224128.5	largeTSmallH	correct	incongruent	0.38867	no	T	H
875.890625	n/a	224228	responseLargeT	correct	n/a	0.38867	no	n/a	n/a
876.9550781	n/a	224500.5	largeTSmallT	correct	congruent	0.42627	no	T	T
877.3813477	n/a	224609.625	responseLargeT	correct	n/a	0.42627	no	n/a	n/a
878.4619141	n/a	224886.25	largeTSmallH	correct	incongruent	0.41748	no	T	H
878.8793945	n/a	224993.125	responseLargeT	correct	n/a	0.41748	no	n/a	n/a
879.9550781	n/a	225268.5	largeTSmallT	correct	congruent	0.43311	no	T	T
880.3881836	n/a	225379.375	responseLargeT	correct	n/a	0.43311	no	n/a	n/a
881.4482422	n/a	225650.75	largeHSmallH	correct	congruent	0.37158	no	H	H
881.8198242	n/a	225745.875	responseLargeH	correct	n/a	0.37158	no	n/a	n/a
882.8881836	n/a	226019.375	largeTSmallH	correct	incongruent	0.42236	no	T	H
883.3105469	n/a	226127.5	responseLargeT	correct	n/a	0.42236	no	n/a	n/a
884.3813477	n/a	226401.625	largeHSmallT	correct	incongruent	0.35693	no	H	T
884.7382812	n/a	226493	responseLargeH	correct	n/a	0.35693	no	n/a	n/a
885.8081055	n/a	226766.875	largeTSmallH	correct	incongruent	0.44873	no	T	H
886.2568359	n/a	226881.75	responseLargeT	correct	n/a	0.44873	no	n/a	n/a
887.3286133	n/a	227156.125	largeHSmallH	correct	congruent	0.3916	no	H	H
887.7202148	n/a	227256.375	responseLargeH	correct	n/a	0.3916	no	n/a	n/a
888.78125	n/a	227528	largeHSmallT	correct	incongruent	0.41504	no	H	T
889.1962891	n/a	227634.25	responseLargeH	correct	n/a	0.41504	no	n/a	n/a
890.2612305	n/a	227906.875	largeTSmallT	correct	congruent	0.47852	no	T	T
890.7397461	n/a	228029.375	responseLargeT	correct	n/a	0.47852	no	n/a	n/a
891.8081055	n/a	228302.875	largeHSmallH	correct	congruent	0.42725	no	H	H
892.2353516	n/a	228412.25	responseLargeH	correct	n/a	0.42725	no	n/a	n/a
893.3144531	n/a	228688.5	largeTSmallH	correct	incongruent	0.33545	no	T	H
893.6499023	n/a	228774.375	responseLargeT	correct	n/a	0.33545	no	n/a	n/a
894.7280273	n/a	229050.375	largeHSmallH	correct	congruent	0.48193	no	H	H
895.2099609	n/a	229173.75	responseLargeH	correct	n/a	0.48193	no	n/a	n/a
896.2880859	n/a	229449.75	largeHSmallT	correct	incongruent	0.42773	no	H	T
896.7158203	n/a	229559.25	responseLargeH	correct	n/a	0.42773	no	n/a	n/a
897.78125	n/a	229832	largeHSmallH	correct	congruent	0.40479	no	H	H
898.1860352	n/a	229935.625	responseLargeH	correct	n/a	0.40479	no	n/a	n/a
899.2480469	n/a	230207.5	largeHSmallH	correct	congruent	0.42041	no	H	H
899.668457	n/a	230315.125	responseLargeH	correct	n/a	0.42041	no	n/a	n/a
900.7275391	n/a	230586.25	largeHSmallT	correct	incongruent	0.44189	no	H	T
901.1694336	n/a	230699.375	responseLargeH	correct	n/a	0.44189	no	n/a	n/a
902.2480469	n/a	230975.5	largeTSmallT	correct	congruent	0.47217	no	T	T
902.7202148	n/a	231096.375	responseLargeT	correct	n/a	0.47217	no	n/a	n/a
903.7944336	n/a	231371.375	largeHSmallT	correct	incongruent	0.43164	no	H	T
904.2260742	n/a	231481.875	responseLargeH	correct	n/a	0.43164	no	n/a	n/a
905.3007812	n/a	231757	largeTSmallH	correct	incongruent	0.41846	no	T	H
905.7192383	n/a	231864.125	responseLargeT	correct	n/a	0.41846	no	n/a	n/a
906.7807617	n/a	232135.875	largeHSmallT	correct	incongruent	0.41162	no	H	T
907.1923828	n/a	232241.25	responseLargeH	correct	n/a	0.41162	no	n/a	n/a
908.2744141	n/a	232518.25	largeTSmallH	correct	incongruent	0.45947	no	T	H
908.7338867	n/a	232635.875	responseLargeT	correct	n/a	0.45947	no	n/a	n/a
909.7944336	n/a	232907.375	largeTSmallT	correct	congruent	0.40625	no	T	T
910.2006836	n/a	233011.375	responseLargeT	correct	n/a	0.40625	no	n/a	n/a
911.2607422	n/a	233282.75	largeHSmallT	correct	incongruent	0.39209	no	H	T
911.652832	n/a	233383.125	responseLargeH	correct	n/a	0.39209	no	n/a	n/a
912.7275391	n/a	233658.25	largeHSmallH	correct	congruent	0.42334	no	H	H
913.1508789	n/a	233766.625	responseLargeH	correct	n/a	0.42334	no	n/a	n/a
914.234375	n/a	234044	largeHSmallT	error	incongruent	0.39111	no	H	T
914.6254883	n/a	234144.125	responseLargeT	error	n/a	0.39111	no	n/a	n/a
915.7006836	n/a	234419.375	largeTSmallT	correct	congruent	0.43555	no	T	T
916.1362305	n/a	234530.875	responseLargeT	correct	n/a	0.43555	no	n/a	n/a
917.2075195	n/a	234805.125	largeHSmallT	correct	incongruent	0.45752	no	H	T
917.6650391	n/a	234922.25	responseLargeH	correct	n/a	0.45752	no	n/a	n/a
918.7407227	n/a	235197.625	largeTSmallT	correct	congruent	0.39697	no	T	T
919.1376953	n/a	235299.25	responseLargeT	correct	n/a	0.39697	no	n/a	n/a
920.2075195	n/a	235573.125	largeTSmallH	correct	incongruent	0.42822	no	T	H
920.6357422	n/a	235682.75	responseLargeT	correct	n/a	0.42822	no	n/a	n/a
921.7006836	n/a	235955.375	largeHSmallH	correct	congruent	0.45557	no	H	H
922.15625	n/a	236072	responseLargeH	correct	n/a	0.45557	no	n/a	n/a
923.2338867	n/a	236347.875	largeHSmallT	correct	incongruent	0.40332	no	H	T
923.637207	n/a	236451.125	responseLargeH	correct	n/a	0.40332	no	n/a	n/a
924.7138672	n/a	236726.75	largeTSmallT	correct	congruent	0.44336	no	T	T
925.1572266	n/a	236840.25	responseLargeT	correct	n/a	0.44336	no	n/a	n/a
926.2207031	n/a	237112.5	largeHSmallT	correct	incongruent	0.52539	no	H	T
926.7460938	n/a	237247	responseLargeH	correct	n/a	0.52539	no	n/a	n/a
927.8203125	n/a	237522	largeTSmallT	correct	congruent	0.41553	no	T	T
928.2358398	n/a	237628.375	responseLargeT	correct	n/a	0.41553	no	n/a	n/a
929.3139648	n/a	237904.375	largeTSmallT	correct	congruent	0.39453	no	T	T
929.7084961	n/a	238005.375	responseLargeT	correct	n/a	0.39453	no	n/a	n/a
930.7802734	n/a	238279.75	largeTSmallT	correct	congruent	0.35254	no	T	T
931.1328125	n/a	238370	responseLargeT	correct	n/a	0.35254	no	n/a	n/a
932.2070312	n/a	238645	largeTSmallH	correct	incongruent	0.41064	no	T	H
932.6176758	n/a	238750.125	responseLargeT	correct	n/a	0.41064	no	n/a	n/a
933.6870117	n/a	239023.875	largeHSmallT	correct	incongruent	0.34961	no	H	T
934.0366211	n/a	239113.375	responseLargeH	correct	n/a	0.34961	no	n/a	n/a
935.1000977	n/a	239385.625	largeTSmallH	correct	incongruent	0.44531	no	T	H
935.5454102	n/a	239499.625	responseLargeT	correct	n/a	0.44531	no	n/a	n/a
936.6201172	n/a	239774.75	largeTSmallH	error	incongruent	0.40674	no	T	H
937.0268555	n/a	239878.875	responseLargeH	error	n/a	0.40674	no	n/a	n/a
938.1000977	n/a	240153.625	largeHSmallH	correct	congruent	0.55273	no	H	H
938.652832	n/a	240295.125	responseLargeH	correct	n/a	0.55273	no	n/a	n/a
939.7133789	n/a	240566.625	largeTSmallH	correct	incongruent	0.52295	no	T	H
940.2363281	n/a	240700.5	responseLargeT	correct	n/a	0.52295	no	n/a	n/a
941.3134766	n/a	240976.25	largeHSmallT	correct	incongruent	0.41846	no	H	T
941.7319336	n/a	241083.375	responseLargeH	correct	n/a	0.41846	no	n/a	n/a
942.8066406	n/a	241358.5	largeHSmallH	correct	congruent	0.39844	no	H	H
943.2050781	n/a	241460.5	responseLargeH	correct	n/a	0.39844	no	n/a	n/a
944.2734375	n/a	241734	largeTSmallT	correct	congruent	0.37939	no	T	T
944.652832	n/a	241831.125	responseLargeT	correct	n/a	0.37939	no	n/a	n/a
945.7260742	n/a	242105.875	largeTSmallH	correct	incongruent	0.37012	no	T	H
946.0961914	n/a	242200.625	responseLargeT	correct	n/a	0.37012	no	n/a	n/a
950.6865234	n/a	243375.75	largeTSmallT	correct	congruent	0.63135	no	T	T
951.3178711	n/a	243537.375	responseSmallT	correct	n/a	0.63135	no	n/a	n/a
952.3798828	n/a	243809.25	largeTSmallH	correct	incongruent	0.42236	no	T	H
952.8022461	n/a	243917.375	responseSmallH	correct	n/a	0.42236	no	n/a	n/a
953.8730469	n/a	244191.5	largeHSmallH	correct	congruent	0.55566	no	H	H
954.4287109	n/a	244333.75	responseSmallH	correct	n/a	0.55566	no	n/a	n/a
955.4995117	n/a	244607.875	largeHSmallT	correct	incongruent	0.50732	no	H	T
956.0068359	n/a	244737.75	responseSmallT	correct	n/a	0.50732	no	n/a	n/a
957.0864258	n/a	245014.125	largeHSmallH	correct	congruent	0.38135	no	H	H
957.4677734	n/a	245111.75	responseSmallH	correct	n/a	0.38135	no	n/a	n/a
958.5395508	n/a	245386.125	largeTSmallT	correct	congruent	0.42529	no	T	T
958.9648438	n/a	245495	responseSmallT	correct	n/a	0.42529	no	n/a	n/a
960.0327148	n/a	245768.375	largeTSmallT	correct	congruent	0.43359	no	T	T
960.4663086	n/a	245879.375	responseSmallT	correct	n/a	0.43359	no	n/a	n/a
961.5395508	n/a	246154.125	largeTSmallT	correct	congruent	0.43799	no	T	T
961.9775391	n/a	246266.25	responseSmallT	correct	n/a	0.43799	no	n/a	n/a
963.0458984	n/a	246539.75	largeTSmallT	correct	congruent	0.42871	no	T	T
963.4746094	n/a	246649.5	responseSmallT	correct	n/a	0.42871	no	n/a	n/a
964.5395508	n/a	246922.125	largeTSmallT	correct	congruent	0.44824	no	T	T
964.987793	n/a	247036.875	responseSmallT	correct	n/a	0.44824	no	n/a	n/a
966.0458984	n/a	247307.75	largeHSmallH	correct	congruent	0.41943	no	H	H
966.465332	n/a	247415.125	responseSmallH	correct	n/a	0.41943	no	n/a	n/a
967.5390625	n/a	247690	largeHSmallH	correct	congruent	0.46924	no	H	H
968.0083008	n/a	247810.125	responseSmallH	correct	n/a	0.46924	no	n/a	n/a
969.0727539	n/a	248082.625	largeHSmallT	correct	incongruent	0.46729	no	H	T
969.5400391	n/a	248202.25	responseSmallT	correct	n/a	0.46729	no	n/a	n/a
970.7163086	n/a	248503.375	largeHSmallH	correct	congruent	0.46191	no	H	H
971.1782227	n/a	248621.625	responseSmallH	correct	n/a	0.46191	no	n/a	n/a
972.2456055	n/a	248894.875	largeTSmallT	correct	congruent	0.41113	no	T	T
972.6567383	n/a	249000.125	responseSmallT	correct	n/a	0.41113	no	n/a	n/a
973.7260742	n/a	249273.875	largeTSmallH	error	incongruent	0.43994	no	T	H
974.1660156	n/a	249386.5	responseSmallT	error	n/a	0.43994	no	n/a	n/a
975.2456055	n/a	249662.875	largeHSmallH	correct	congruent	0.4292	no	H	H
975.6748047	n/a	249772.75	responseSmallH	correct	n/a	0.4292	no	n/a	n/a
976.7524414	n/a	250048.625	largeTSmallH	correct	incongruent	0.43896	no	T	H
977.1914062	n/a	250161	responseSmallH	correct	n/a	0.43896	no	n/a	n/a
978.2724609	n/a	250437.75	largeTSmallT	correct	congruent	0.48779	no	T	T
978.7602539	n/a	250562.625	responseSmallT	correct	n/a	0.48779	no	n/a	n/a
979.8325195	n/a	250837.125	largeHSmallH	correct	congruent	0.48779	no	H	H
980.3203125	n/a	250962	responseSmallH	correct	n/a	0.48779	no	n/a	n/a
981.3925781	n/a	251236.5	largeTSmallT	correct	congruent	0.46924	no	T	T
981.8618164	n/a	251356.625	responseSmallT	correct	n/a	0.46924	no	n/a	n/a
982.9257812	n/a	251629	largeTSmallH	correct	incongruent	0.48584	no	T	H
983.4116211	n/a	251753.375	responseSmallH	correct	n/a	0.48584	no	n/a	n/a
984.472168	n/a	252024.875	largeTSmallT	correct	congruent	0.45312	no	T	T
984.925293	n/a	252140.875	responseSmallT	correct	n/a	0.45312	no	n/a	n/a
986.0053711	n/a	252417.375	largeHSmallH	correct	congruent	0.479	no	H	H
986.484375	n/a	252540	responseSmallH	correct	n/a	0.479	no	n/a	n/a
987.5522461	n/a	252813.375	largeTSmallH	correct	incongruent	0.41602	no	T	H
987.9682617	n/a	252919.875	responseSmallH	correct	n/a	0.41602	no	n/a	n/a
989.0454102	n/a	253195.625	largeHSmallH	correct	congruent	0.44238	no	H	H
989.487793	n/a	253308.875	responseSmallH	correct	n/a	0.44238	no	n/a	n/a
990.5654297	n/a	253584.75	largeHSmallH	correct	congruent	0.38086	no	H	H
990.9462891	n/a	253682.25	responseSmallH	correct	n/a	0.38086	no	n/a	n/a
992.0053711	n/a	253953.375	largeHSmallT	correct	incongruent	0.40527	no	H	T
992.4106445	n/a	254057.125	responseSmallT	correct	n/a	0.40527	no	n/a	n/a
993.472168	n/a	254328.875	largeHSmallT	correct	incongruent	0.41357	no	H	T
993.8857422	n/a	254434.75	responseSmallT	correct	n/a	0.41357	no	n/a	n/a
994.965332	n/a	254711.125	largeTSmallT	correct	congruent	0.49463	no	T	T
995.4599609	n/a	254837.75	responseSmallT	correct	n/a	0.49463	no	n/a	n/a
996.5385742	n/a	255113.875	largeTSmallH	correct	incongruent	0.39307	no	T	H
996.9316406	n/a	255214.5	responseSmallH	correct	n/a	0.39307	no	n/a	n/a
998.0053711	n/a	255489.375	largeTSmallT	correct	congruent	0.44238	no	T	T
998.4477539	n/a	255602.625	responseSmallT	correct	n/a	0.44238	no	n/a	n/a
999.5117188	n/a	255875	largeHSmallT	correct	incongruent	0.43896	no	H	T
999.9506836	n/a	255987.375	responseSmallT	correct	n/a	0.43896	no	n/a	n/a
1001.031738	n/a	256264.125	largeTSmallH	correct	incongruent	0.39941	no	T	H
1001.431152	n/a	256366.375	responseSmallH	correct	n/a	0.39941	no	n/a	n/a
1002.511719	n/a	256643	largeHSmallH	correct	congruent	0.84424	no	H	H
1003.355957	n/a	256859.125	responseSmallH	correct	n/a	0.84424	no	n/a	n/a
1004.431641	n/a	257134.5	largeHSmallH	correct	congruent	0.41699	no	H	H
1004.848633	n/a	257241.25	responseSmallH	correct	n/a	0.41699	no	n/a	n/a
1005.925293	n/a	257516.875	largeHSmallT	correct	incongruent	0.48193	no	H	T
1006.407227	n/a	257640.25	responseSmallT	correct	n/a	0.48193	no	n/a	n/a
1007.484863	n/a	257916.125	largeHSmallH	correct	congruent	0.50635	no	H	H
1007.991211	n/a	258045.75	responseSmallH	correct	n/a	0.50635	no	n/a	n/a
1009.058105	n/a	258318.875	largeTSmallT	correct	congruent	0.41699	no	T	T
1009.475098	n/a	258425.625	responseSmallT	correct	n/a	0.41699	no	n/a	n/a
1010.538574	n/a	258697.875	largeTSmallT	correct	congruent	0.40576	no	T	T
1010.944336	n/a	258801.75	responseSmallT	correct	n/a	0.40576	no	n/a	n/a
1012.004883	n/a	259073.25	largeTSmallH	correct	incongruent	0.41553	no	T	H
1012.42041	n/a	259179.625	responseSmallH	correct	n/a	0.41553	no	n/a	n/a
1013.484863	n/a	259452.125	largeHSmallH	correct	congruent	0.43066	no	H	H
1013.915527	n/a	259562.375	responseSmallH	correct	n/a	0.43066	no	n/a	n/a
1014.991699	n/a	259837.875	largeHSmallT	correct	incongruent	0.44043	no	H	T
1015.432129	n/a	259950.625	responseSmallT	correct	n/a	0.44043	no	n/a	n/a
1016.498047	n/a	260223.5	largeTSmallT	correct	congruent	0.59131	no	T	T
1017.089355	n/a	260374.875	responseSmallT	correct	n/a	0.59131	no	n/a	n/a
1018.151367	n/a	260646.75	largeHSmallH	correct	congruent	0.38184	no	H	H
1018.533203	n/a	260744.5	responseSmallH	correct	n/a	0.38184	no	n/a	n/a
1019.60498	n/a	261018.875	largeTSmallH	correct	incongruent	0.4248	no	T	H
1020.029785	n/a	261127.625	responseSmallH	correct	n/a	0.4248	no	n/a	n/a
1021.098145	n/a	261401.125	largeTSmallT	correct	congruent	0.45361	no	T	T
1021.551758	n/a	261517.25	responseSmallT	correct	n/a	0.45361	no	n/a	n/a
1022.617676	n/a	261790.125	largeTSmallH	correct	incongruent	0.38232	no	T	H
1023	n/a	261888	responseSmallH	correct	n/a	0.38232	no	n/a	n/a
1024.071289	n/a	262162.25	largeTSmallT	correct	congruent	0.42725	no	T	T
1024.498535	n/a	262271.625	responseSmallT	correct	n/a	0.42725	no	n/a	n/a
1025.564453	n/a	262544.5	largeTSmallH	correct	incongruent	0.46045	no	T	H
1026.024902	n/a	262662.375	responseSmallH	correct	n/a	0.46045	no	n/a	n/a
1027.097656	n/a	262937	largeHSmallT	correct	incongruent	0.45117	no	H	T
1027.548828	n/a	263052.5	responseSmallT	correct	n/a	0.45117	no	n/a	n/a
1028.617676	n/a	263326.125	largeHSmallH	correct	congruent	0.4043	no	H	H
1029.021973	n/a	263429.625	responseSmallH	correct	n/a	0.4043	no	n/a	n/a
1030.084473	n/a	263701.625	largeHSmallH	correct	congruent	0.39355	no	H	H
1030.478027	n/a	263802.375	responseSmallH	correct	n/a	0.39355	no	n/a	n/a
1031.55127	n/a	264077.125	largeHSmallH	correct	congruent	0.37793	no	H	H
1031.929199	n/a	264173.875	responseSmallH	correct	n/a	0.37793	no	n/a	n/a
1033.004395	n/a	264449.125	largeTSmallH	correct	incongruent	0.39307	no	T	H
1033.397461	n/a	264549.75	responseSmallH	correct	n/a	0.39307	no	n/a	n/a
1034.471191	n/a	264824.625	largeTSmallH	correct	incongruent	0.43115	no	T	H
1034.902344	n/a	264935	responseSmallH	correct	n/a	0.43115	no	n/a	n/a
1035.964355	n/a	265206.875	largeTSmallH	correct	incongruent	0.4165	no	T	H
1036.380859	n/a	265313.5	responseSmallH	correct	n/a	0.4165	no	n/a	n/a
1037.45752	n/a	265589.125	largeTSmallH	correct	incongruent	0.38672	no	T	H
1037.844238	n/a	265688.125	responseSmallH	correct	n/a	0.38672	no	n/a	n/a
1038.923828	n/a	265964.5	largeHSmallT	correct	incongruent	0.34326	no	H	T
1039.26709	n/a	266052.375	responseSmallT	correct	n/a	0.34326	no	n/a	n/a
1040.337402	n/a	266326.375	largeTSmallT	correct	congruent	0.41016	no	T	T
1040.747559	n/a	266431.375	responseSmallT	correct	n/a	0.41016	no	n/a	n/a
1041.819336	n/a	266705.75	largeTSmallT	correct	congruent	0.43945	no	T	T
1042.258789	n/a	266818.25	responseSmallT	correct	n/a	0.43945	no	n/a	n/a
1043.337402	n/a	267094.375	largeHSmallT	correct	incongruent	0.45996	no	H	T
1043.797363	n/a	267212.125	responseSmallT	correct	n/a	0.45996	no	n/a	n/a
1044.857422	n/a	267483.5	largeHSmallT	correct	incongruent	0.41553	no	H	T
1045.272949	n/a	267589.875	responseSmallT	correct	n/a	0.41553	no	n/a	n/a
1046.337891	n/a	267862.5	largeHSmallH	correct	congruent	0.43164	no	H	H
1046.769531	n/a	267973	responseSmallH	correct	n/a	0.43164	no	n/a	n/a
1047.84375	n/a	268248	largeHSmallT	correct	incongruent	0.41406	no	H	T
1048.257812	n/a	268354	responseSmallT	correct	n/a	0.41406	no	n/a	n/a
1049.32373	n/a	268626.875	largeHSmallT	correct	incongruent	0.40381	no	H	T
1049.727539	n/a	268730.25	responseSmallT	correct	n/a	0.40381	no	n/a	n/a
1050.803711	n/a	269005.75	largeHSmallT	correct	incongruent	0.38574	no	H	T
1051.189453	n/a	269104.5	responseSmallT	correct	n/a	0.38574	no	n/a	n/a
1052.256836	n/a	269377.75	largeTSmallH	correct	incongruent	0.42969	no	T	H
1052.686523	n/a	269487.75	responseSmallH	correct	n/a	0.42969	no	n/a	n/a
1053.750488	n/a	269760.125	largeTSmallH	correct	incongruent	0.375	no	T	H
1054.125488	n/a	269856.125	responseSmallH	correct	n/a	0.375	no	n/a	n/a
1055.19043	n/a	270128.75	largeTSmallT	correct	congruent	0.38574	no	T	T
1055.576172	n/a	270227.5	responseSmallT	correct	n/a	0.38574	no	n/a	n/a
1056.643555	n/a	270500.75	largeTSmallH	correct	incongruent	0.40381	no	T	H
1057.047363	n/a	270604.125	responseSmallH	correct	n/a	0.40381	no	n/a	n/a
1058.123535	n/a	270879.625	largeTSmallT	correct	congruent	0.4458	no	T	T
1058.569336	n/a	270993.75	responseSmallT	correct	n/a	0.4458	no	n/a	n/a
1059.630371	n/a	271265.375	largeTSmallH	correct	incongruent	0.43701	no	T	H
1060.067383	n/a	271377.25	responseSmallH	correct	n/a	0.43701	no	n/a	n/a
1061.136719	n/a	271651	largeTSmallH	correct	incongruent	0.40479	no	T	H
1061.541504	n/a	271754.625	responseSmallH	correct	n/a	0.40479	no	n/a	n/a
1062.616699	n/a	272029.875	largeTSmallT	correct	congruent	0.41064	no	T	T
1063.027344	n/a	272135	responseSmallT	correct	n/a	0.41064	no	n/a	n/a
1064.09668	n/a	272408.75	largeTSmallH	correct	incongruent	0.42188	no	T	H
1064.518555	n/a	272516.75	responseSmallH	correct	n/a	0.42188	no	n/a	n/a
1065.589844	n/a	272791	largeHSmallH	correct	congruent	0.41357	no	H	H
1066.003418	n/a	272896.875	responseSmallH	correct	n/a	0.41357	no	n/a	n/a
1067.083496	n/a	273173.375	largeHSmallH	correct	congruent	0.44678	no	H	H
1067.530273	n/a	273287.75	responseSmallH	correct	n/a	0.44678	no	n/a	n/a
1068.603516	n/a	273562.5	largeTSmallT	correct	congruent	0.41455	no	T	T
1069.018066	n/a	273668.625	responseSmallT	correct	n/a	0.41455	no	n/a	n/a
1070.083496	n/a	273941.375	largeHSmallH	correct	congruent	0.47607	no	H	H
1070.55957	n/a	274063.25	responseSmallH	correct	n/a	0.47607	no	n/a	n/a
1071.629883	n/a	274337.25	largeHSmallH	correct	congruent	0.49316	no	H	H
1072.123047	n/a	274463.5	responseSmallH	correct	n/a	0.49316	no	n/a	n/a
1073.189941	n/a	274736.625	largeHSmallH	correct	congruent	0.44092	no	H	H
1073.630859	n/a	274849.5	responseSmallH	correct	n/a	0.44092	no	n/a	n/a
1074.709473	n/a	275125.625	largeHSmallT	correct	incongruent	0.47217	no	H	T
1075.181641	n/a	275246.5	responseSmallT	correct	n/a	0.47217	no	n/a	n/a
1076.243164	n/a	275518.25	largeHSmallH	correct	congruent	0.43164	no	H	H
1076.674805	n/a	275628.75	responseSmallH	correct	n/a	0.43164	no	n/a	n/a
1077.749512	n/a	275903.875	largeHSmallT	correct	incongruent	0.43311	no	H	T
1078.182617	n/a	276014.75	responseSmallT	correct	n/a	0.43311	no	n/a	n/a
1079.256348	n/a	276289.625	largeHSmallH	correct	congruent	0.4043	no	H	H
1079.660645	n/a	276393.125	responseSmallH	correct	n/a	0.4043	no	n/a	n/a
1080.723145	n/a	276665.125	largeTSmallH	correct	incongruent	0.396	no	T	H
1081.119141	n/a	276766.5	responseSmallH	correct	n/a	0.396	no	n/a	n/a
1082.189941	n/a	277040.625	largeTSmallH	correct	incongruent	0.42285	no	T	H
1082.612793	n/a	277148.875	responseSmallH	correct	n/a	0.42285	no	n/a	n/a
1083.696289	n/a	277426.25	largeHSmallT	correct	incongruent	0.44434	no	H	T
1084.140625	n/a	277540	responseSmallT	correct	n/a	0.44434	no	n/a	n/a
1085.203125	n/a	277812	largeTSmallT	correct	congruent	0.42578	no	T	T
1085.628906	n/a	277921	responseSmallT	correct	n/a	0.42578	no	n/a	n/a
1086.696289	n/a	278194.25	largeTSmallH	correct	incongruent	0.48389	no	T	H
1087.180176	n/a	278318.125	responseSmallH	correct	n/a	0.48389	no	n/a	n/a
1088.243164	n/a	278590.25	largeHSmallH	correct	congruent	0.43262	no	H	H
1088.675781	n/a	278701	responseSmallH	correct	n/a	0.43262	no	n/a	n/a
1089.749512	n/a	278975.875	largeHSmallH	correct	congruent	0.46973	no	H	H
1090.219238	n/a	279096.125	responseSmallH	correct	n/a	0.46973	no	n/a	n/a
1091.283203	n/a	279368.5	largeTSmallH	correct	incongruent	0.4043	no	T	H
1091.6875	n/a	279472	responseSmallH	correct	n/a	0.4043	no	n/a	n/a
1092.749512	n/a	279743.875	largeHSmallT	correct	incongruent	0.40039	no	H	T
1093.149902	n/a	279846.375	responseSmallT	correct	n/a	0.40039	no	n/a	n/a
