onset	duration	sample	value	stimulus	response_type	response_time
19.10742188	n/a	4891.5	A	nontarget	n/a	n/a
20.68603516	n/a	5295.625	C	nontarget	n/a	n/a
22.26074219	n/a	5698.75	B	nontarget	n/a	n/a
23.8359375	n/a	6102	A	nontarget	n/a	n/a
25.40625	n/a	6504	A	target	hit	470.2148
25.87646484	n/a	6624.375	rt	n/a	hit	470.2148
26.96728516	n/a	6903.625	B	nontarget	n/a	n/a
28.55371094	n/a	7309.75	A	nontarget	n/a	n/a
30.12792969	n/a	7712.75	B	nontarget	false_alarm	558.5938
30.68652344	n/a	7855.75	rt	n/a	false_alarm	558.5938
31.69970703	n/a	8115.125	C	nontarget	n/a	n/a
33.27441406	n/a	8518.25	B	nontarget	n/a	n/a
34.84619141	n/a	8920.625	B	target	hit	565.4297
35.41162109	n/a	9065.375	rt	n/a	hit	565.4297
36.42138672	n/a	9323.875	B	target	hit	679.1992
37.10058594	n/a	9497.75	rt	n/a	hit	679.1992
38.00634766	n/a	9729.625	A	nontarget	n/a	n/a
39.58203125	n/a	10133	D	nontarget	n/a	n/a
41.15283203	n/a	10535.125	B	nontarget	n/a	n/a
42.72802734	n/a	10938.375	A	nontarget	n/a	n/a
44.29931641	n/a	11340.625	D	nontarget	n/a	n/a
45.87402344	n/a	11743.75	C	nontarget	n/a	n/a
47.43505859	n/a	12143.375	B	nontarget	n/a	n/a
48.99267578	n/a	12542.125	C	nontarget	n/a	n/a
50.5546875	n/a	12942	A	nontarget	n/a	n/a
52.13964844	n/a	13347.75	C	nontarget	n/a	n/a
53.71435547	n/a	13750.875	D	nontarget	n/a	n/a
55.28564453	n/a	14153.125	D	target	hit	472.168
55.7578125	n/a	14274	rt	n/a	hit	472.168
56.86083984	n/a	14556.375	A	nontarget	n/a	n/a
58.43261719	n/a	14958.75	D	nontarget	n/a	n/a
59.99267578	n/a	15358.125	B	nontarget	n/a	n/a
61.55371094	n/a	15757.75	A	nontarget	n/a	n/a
63.12597656	n/a	16160.25	A	target	hit	587.4023
63.71337891	n/a	16310.625	rt	n/a	hit	587.4023
64.69921875	n/a	16563	B	nontarget	n/a	n/a
66.27441406	n/a	16966.25	B	target	hit	635.7422
66.91015625	n/a	17129	rt	n/a	hit	635.7422
67.84521484	n/a	17368.375	C	nontarget	n/a	n/a
69.42041016	n/a	17771.625	C	target	hit	568.3594
69.98876953	n/a	17917.125	rt	n/a	hit	568.3594
70.9921875	n/a	18174	D	nontarget	n/a	n/a
72.56591797	n/a	18576.875	B	nontarget	n/a	n/a
74.12597656	n/a	18976.25	D	nontarget	n/a	n/a
75.68603516	n/a	19375.625	D	target	hit	603.0273
76.2890625	n/a	19530	rt	n/a	hit	603.0273
77.24707031	n/a	19775.25	A	nontarget	n/a	n/a
78.83203125	n/a	20181	A	target	hit	524.9023
79.35693359	n/a	20315.375	rt	n/a	hit	524.9023
80.40625	n/a	20584	C	nontarget	n/a	n/a
81.98144531	n/a	20987.25	A	nontarget	n/a	n/a
83.55175781	n/a	21389.25	D	nontarget	n/a	n/a
85.12646484	n/a	21792.375	A	nontarget	n/a	n/a
86.69873047	n/a	22194.875	A	target	hit	550.7812
87.24951172	n/a	22335.875	rt	n/a	hit	550.7812
88.25976562	n/a	22594.5	A	target	hit	734.375
88.99414062	n/a	22782.5	rt	n/a	hit	734.375
89.81982422	n/a	22993.875	A	target	hit	666.5039
90.48632812	n/a	23164.5	rt	n/a	hit	666.5039
91.37988281	n/a	23393.25	B	nontarget	n/a	n/a
92.96484375	n/a	23799	B	target	hit	589.8438
93.5546875	n/a	23950	rt	n/a	hit	589.8438
94.5390625	n/a	24202	A	nontarget	n/a	n/a
96.11328125	n/a	24605	D	nontarget	n/a	n/a
97.68505859	n/a	25007.375	B	nontarget	n/a	n/a
99.25927734	n/a	25410.375	C	nontarget	n/a	n/a
100.8339844	n/a	25813.5	D	nontarget	n/a	n/a
102.418457	n/a	26219.125	B	nontarget	n/a	n/a
103.9926758	n/a	26622.125	A	nontarget	n/a	n/a
105.5673828	n/a	27025.25	C	nontarget	n/a	n/a
107.1381836	n/a	27427.375	D	nontarget	n/a	n/a
108.7128906	n/a	27830.5	C	nontarget	n/a	n/a
110.2983398	n/a	28236.375	B	nontarget	n/a	n/a
111.8720703	n/a	28639.25	D	nontarget	n/a	n/a
113.4462891	n/a	29042.25	B	nontarget	n/a	n/a
115.0180664	n/a	29444.625	B	target	hit	537.1094
115.5551758	n/a	29582.125	rt	n/a	hit	537.1094
116.5922852	n/a	29847.625	C	nontarget	n/a	n/a
118.1669922	n/a	30250.75	C	target	hit	646.4844
118.8134766	n/a	30416.25	rt	n/a	hit	646.4844
119.7509766	n/a	30656.25	B	nontarget	n/a	n/a
121.3256836	n/a	31059.375	B	target	hit	536.6211
121.8623047	n/a	31196.75	rt	n/a	hit	536.6211
122.9003906	n/a	31462.5	A	nontarget	n/a	n/a
124.4711914	n/a	31864.625	C	nontarget	n/a	n/a
126.0458984	n/a	32267.75	D	nontarget	n/a	n/a
127.6176758	n/a	32670.125	B	nontarget	n/a	n/a
129.1782227	n/a	33069.625	B	target	hit	491.6992
129.6699219	n/a	33195.5	rt	n/a	hit	491.6992
130.7387695	n/a	33469.125	B	target	hit	651.3672
131.3901367	n/a	33635.875	rt	n/a	hit	651.3672
132.3237305	n/a	33874.875	B	target	hit	627.9297
132.9516602	n/a	34035.625	rt	n/a	hit	627.9297
133.8979492	n/a	34277.875	A	nontarget	n/a	n/a
135.4726562	n/a	34681	B	nontarget	n/a	n/a
137.0444336	n/a	35083.375	D	nontarget	n/a	n/a
138.6186523	n/a	35486.375	C	nontarget	n/a	n/a
140.2041016	n/a	35892.25	C	target	hit	533.6914
140.737793	n/a	36028.875	rt	n/a	hit	533.6914
141.7788086	n/a	36295.375	B	nontarget	n/a	n/a
143.3505859	n/a	36697.75	A	nontarget	n/a	n/a
144.9248047	n/a	37100.75	B	nontarget	n/a	n/a
146.5	n/a	37504	B	target	hit	546.3867
147.0463867	n/a	37643.875	rt	n/a	hit	546.3867
148.0708008	n/a	37906.125	B	target	hit	587.8906
148.6586914	n/a	38056.625	rt	n/a	hit	587.8906
149.6323242	n/a	38305.875	D	nontarget	n/a	n/a
151.2172852	n/a	38711.625	C	nontarget	n/a	n/a
152.7915039	n/a	39114.625	C	target	hit	535.6445
153.3271484	n/a	39251.75	rt	n/a	hit	535.6445
154.3662109	n/a	39517.75	C	target	hit	629.3945
154.9956055	n/a	39678.875	rt	n/a	hit	629.3945
155.9370117	n/a	39919.875	B	nontarget	n/a	n/a
157.5112305	n/a	40322.875	A	nontarget	n/a	n/a
159.0834961	n/a	40725.375	A	target	hit	572.2656
159.6557617	n/a	40871.875	rt	n/a	hit	572.2656
160.6445312	n/a	41125	B	nontarget	n/a	n/a
162.2299805	n/a	41530.875	D	nontarget	n/a	n/a
163.8051758	n/a	41934.125	A	nontarget	n/a	n/a
165.3764648	n/a	42336.375	A	target	hit	522.9492
165.8994141	n/a	42470.25	rt	n/a	hit	522.9492
166.9511719	n/a	42739.5	C	nontarget	n/a	n/a
168.5258789	n/a	43142.625	D	nontarget	n/a	n/a
170.1098633	n/a	43548.125	A	nontarget	n/a	n/a
171.6845703	n/a	43951.25	A	target	hit	561.0352
172.2456055	n/a	44094.875	rt	n/a	hit	561.0352
173.2592773	n/a	44354.375	B	nontarget	n/a	n/a
174.8300781	n/a	44756.5	A	nontarget	n/a	n/a
176.4047852	n/a	45159.625	A	target	hit	527.832
176.9326172	n/a	45294.75	rt	n/a	hit	527.832
177.9897461	n/a	45565.375	C	nontarget	n/a	n/a
179.5644531	n/a	45968.5	C	target	hit	511.7188
180.0761719	n/a	46099.5	rt	n/a	hit	511.7188
181.1362305	n/a	46370.875	B	nontarget	n/a	n/a
182.7109375	n/a	46774	B	target	hit	523.4375
183.234375	n/a	46908	rt	n/a	hit	523.4375
184.2832031	n/a	47176.5	C	nontarget	n/a	n/a
185.8569336	n/a	47579.375	B	nontarget	n/a	n/a
187.4321289	n/a	47982.625	A	nontarget	n/a	n/a
189.0161133	n/a	48388.125	D	nontarget	n/a	n/a
190.590332	n/a	48791.125	D	target	hit	508.3008
191.0986328	n/a	48921.25	rt	n/a	hit	508.3008
192.1655273	n/a	49194.375	C	nontarget	n/a	n/a
193.7363281	n/a	49596.5	B	nontarget	n/a	n/a
195.3105469	n/a	49999.5	C	nontarget	n/a	n/a
196.8828125	n/a	50402	A	nontarget	n/a	n/a
198.4428711	n/a	50801.375	A	target	hit	530.7617
198.9736328	n/a	50937.25	rt	n/a	hit	530.7617
200.0161133	n/a	51204.125	A	target	hit	664.5508
200.6806641	n/a	51374.25	rt	n/a	hit	664.5508
201.5893555	n/a	51606.875	A	target	hit	588.3789
202.1777344	n/a	51757.5	rt	n/a	hit	588.3789
203.1640625	n/a	52010	A	target	hit	544.4336
203.7084961	n/a	52149.375	rt	n/a	hit	544.4336
204.7358398	n/a	52412.375	D	nontarget	n/a	n/a
206.3100586	n/a	52815.375	D	target	hit	571.2891
206.8813477	n/a	52961.625	rt	n/a	hit	571.2891
207.8828125	n/a	53218	C	nontarget	n/a	n/a
209.4707031	n/a	53624.5	A	nontarget	n/a	n/a
211.0292969	n/a	54023.5	B	nontarget	n/a	n/a
212.6035156	n/a	54426.5	B	target	hit	576.1719
213.1796875	n/a	54574	rt	n/a	hit	576.1719
214.1757812	n/a	54829	B	target	hit	620.6055
214.7963867	n/a	54987.875	rt	n/a	hit	620.6055
215.75	n/a	55232	C	nontarget	n/a	n/a
217.324707	n/a	55635.125	A	nontarget	n/a	n/a
218.8955078	n/a	56037.25	C	nontarget	n/a	n/a
220.4833984	n/a	56443.75	B	nontarget	n/a	n/a
222.0581055	n/a	56846.875	D	nontarget	n/a	n/a
223.628418	n/a	57248.875	A	nontarget	n/a	n/a
225.203125	n/a	57652	C	nontarget	n/a	n/a
226.7753906	n/a	58054.5	D	nontarget	n/a	n/a
228.3496094	n/a	58457.5	C	nontarget	n/a	n/a
229.9243164	n/a	58860.625	A	nontarget	n/a	n/a
231.5087891	n/a	59266.25	B	nontarget	n/a	n/a
233.0825195	n/a	59669.125	C	nontarget	n/a	n/a
234.6577148	n/a	60072.375	D	nontarget	n/a	n/a
236.2285156	n/a	60474.5	C	nontarget	n/a	n/a
237.8032227	n/a	60877.625	B	nontarget	n/a	n/a
239.3881836	n/a	61283.375	B	target	miss	n/a
240.9633789	n/a	61686.625	B	target	hit	562.9883
241.5263672	n/a	61830.75	rt	n/a	hit	562.9883
242.534668	n/a	62088.875	A	nontarget	n/a	n/a
244.109375	n/a	62492	B	nontarget	n/a	n/a
245.684082	n/a	62895.125	C	nontarget	n/a	n/a
247.2548828	n/a	63297.25	A	nontarget	n/a	n/a
248.815918	n/a	63696.875	A	target	hit	501.4648
249.3173828	n/a	63825.25	rt	n/a	hit	501.4648
250.3881836	n/a	64099.375	D	nontarget	n/a	n/a
251.9628906	n/a	64502.5	B	nontarget	n/a	n/a
253.534668	n/a	64904.875	D	nontarget	n/a	n/a
255.1088867	n/a	65307.875	B	nontarget	n/a	n/a
256.6835938	n/a	65711	C	nontarget	n/a	n/a
258.2543945	n/a	66113.125	C	target	hit	575.6836
258.8300781	n/a	66260.5	rt	n/a	hit	575.6836
259.8291016	n/a	66516.25	A	nontarget	n/a	n/a
261.4008789	n/a	66918.625	A	target	hit	559.5703
261.9604492	n/a	67061.875	rt	n/a	hit	559.5703
262.9750977	n/a	67321.625	C	nontarget	n/a	n/a
264.550293	n/a	67724.875	A	nontarget	n/a	n/a
266.1206055	n/a	68126.875	A	target	hit	491.2109
266.6118164	n/a	68252.625	rt	n/a	hit	491.2109
267.6948242	n/a	68529.875	C	nontarget	n/a	n/a
269.2685547	n/a	68932.75	C	target	hit	598.1445
269.8666992	n/a	69085.875	rt	n/a	hit	598.1445
270.8544922	n/a	69338.75	C	target	hit	571.7773
271.4262695	n/a	69485.125	rt	n/a	hit	571.7773
272.4291992	n/a	69741.875	B	nontarget	n/a	n/a
274.0004883	n/a	70144.125	D	nontarget	n/a	n/a
275.5751953	n/a	70547.25	B	nontarget	n/a	n/a
277.1499023	n/a	70950.375	D	nontarget	n/a	n/a
278.7207031	n/a	71352.5	B	nontarget	n/a	n/a
280.28125	n/a	71752	D	nontarget	n/a	n/a
281.8671875	n/a	72158	C	nontarget	n/a	n/a
283.4414062	n/a	72561	D	nontarget	n/a	n/a
285.0166016	n/a	72964.25	C	nontarget	n/a	n/a
286.5874023	n/a	73366.375	A	nontarget	n/a	n/a
288.1616211	n/a	73769.375	A	target	hit	536.1328
288.6977539	n/a	73906.625	rt	n/a	hit	536.1328
289.7338867	n/a	74171.875	B	nontarget	n/a	n/a
291.2939453	n/a	74571.25	B	target	hit	704.1016
291.9980469	n/a	74751.5	rt	n/a	hit	704.1016
292.8540039	n/a	74970.625	A	nontarget	n/a	n/a
294.4272461	n/a	75373.375	D	nontarget	n/a	n/a
296.0009766	n/a	75776.25	A	nontarget	n/a	n/a
297.5751953	n/a	76179.25	A	target	hit	496.0938
298.0712891	n/a	76306.25	rt	n/a	hit	496.0938
299.1469727	n/a	76581.625	D	nontarget	n/a	n/a
300.7211914	n/a	76984.625	A	nontarget	n/a	n/a
302.293457	n/a	77387.125	B	nontarget	n/a	n/a
303.8676758	n/a	77790.125	D	nontarget	n/a	n/a
305.4277344	n/a	78189.5	A	nontarget	n/a	n/a
307.0019531	n/a	78592.5	A	target	hit	561.0352
307.5629883	n/a	78736.125	rt	n/a	hit	561.0352
308.5732422	n/a	78994.75	B	nontarget	n/a	n/a
310.1479492	n/a	79397.875	C	nontarget	n/a	n/a
311.7197266	n/a	79800.25	B	nontarget	n/a	n/a
313.2939453	n/a	80203.25	A	nontarget	n/a	n/a
314.8691406	n/a	80606.5	D	nontarget	n/a	n/a
316.453125	n/a	81012	A	nontarget	n/a	n/a
318.0273438	n/a	81415	D	nontarget	n/a	n/a
319.6020508	n/a	81818.125	B	nontarget	n/a	n/a
321.1733398	n/a	82220.375	D	nontarget	n/a	n/a
322.7475586	n/a	82623.375	A	nontarget	n/a	n/a
324.3227539	n/a	83026.625	D	nontarget	n/a	n/a
325.90625	n/a	83432	B	nontarget	n/a	n/a
327.480957	n/a	83835.125	B	target	hit	604.0039
328.0849609	n/a	83989.75	rt	n/a	hit	604.0039
329.0527344	n/a	84237.5	B	target	hit	520.0195
329.5727539	n/a	84370.625	rt	n/a	hit	520.0195
330.6269531	n/a	84640.5	A	nontarget	n/a	n/a
332.2021484	n/a	85043.75	C	nontarget	n/a	n/a
333.7729492	n/a	85445.875	B	nontarget	n/a	n/a
335.3344727	n/a	85845.625	D	nontarget	n/a	n/a
336.9194336	n/a	86251.375	D	target	hit	661.1328
337.5805664	n/a	86420.625	rt	n/a	hit	661.1328
338.4936523	n/a	86654.375	B	nontarget	n/a	n/a
340.0683594	n/a	87057.5	D	nontarget	n/a	n/a
341.6391602	n/a	87459.625	A	nontarget	n/a	n/a
343.2138672	n/a	87862.75	B	nontarget	n/a	n/a
344.7856445	n/a	88265.125	D	nontarget	n/a	n/a
346.3588867	n/a	88667.875	D	target	hit	590.8203
346.949707	n/a	88819.125	rt	n/a	hit	590.8203
347.9331055	n/a	89070.875	B	nontarget	n/a	n/a
349.5068359	n/a	89473.75	A	nontarget	n/a	n/a
351.0791016	n/a	89876.25	B	nontarget	n/a	n/a
352.6533203	n/a	90279.25	D	nontarget	n/a	n/a
354.2280273	n/a	90682.375	B	nontarget	n/a	n/a
355.8120117	n/a	91087.875	B	target	hit	707.5195
356.5195312	n/a	91269	rt	n/a	hit	707.5195
357.3867188	n/a	91491	C	nontarget	n/a	n/a
358.9589844	n/a	91893.5	D	nontarget	n/a	n/a
360.5327148	n/a	92296.375	B	nontarget	n/a	n/a
362.1069336	n/a	92699.375	A	nontarget	n/a	n/a
363.6787109	n/a	93101.75	C	nontarget	n/a	n/a
365.2387695	n/a	93501.125	D	nontarget	n/a	n/a
366.7988281	n/a	93900.5	D	target	hit	538.0859
367.3369141	n/a	94038.25	rt	n/a	hit	538.0859
368.3598633	n/a	94300.125	C	nontarget	n/a	n/a
369.9453125	n/a	94706	D	nontarget	n/a	n/a
371.5195312	n/a	95109	A	nontarget	n/a	n/a
373.0942383	n/a	95512.125	B	nontarget	n/a	n/a
374.6650391	n/a	95914.25	C	nontarget	n/a	n/a
376.2392578	n/a	96317.25	B	nontarget	n/a	n/a
377.8115234	n/a	96719.75	A	nontarget	n/a	n/a
379.3847656	n/a	97122.5	D	nontarget	n/a	n/a
380.9599609	n/a	97525.75	D	target	hit	470.7031
381.4306641	n/a	97646.25	rt	n/a	hit	470.7031
382.5317383	n/a	97928.125	D	target	hit	569.3359
383.1010742	n/a	98073.875	rt	n/a	hit	569.3359
384.105957	n/a	98331.125	B	nontarget	n/a	n/a
385.6806641	n/a	98734.25	B	target	hit	491.6992
386.1723633	n/a	98860.125	rt	n/a	hit	491.6992
387.2514648	n/a	99136.375	D	nontarget	n/a	n/a
388.8378906	n/a	99542.5	B	nontarget	n/a	n/a
390.4121094	n/a	99945.5	D	nontarget	n/a	n/a
391.9887695	n/a	100349.125	A	nontarget	n/a	n/a
393.5581055	n/a	100750.875	B	nontarget	n/a	n/a
395.1323242	n/a	101153.875	C	nontarget	n/a	n/a
396.7045898	n/a	101556.375	C	target	hit	522.4609
397.2270508	n/a	101690.125	rt	n/a	hit	522.4609
398.2929688	n/a	101963	B	nontarget	n/a	n/a
399.8642578	n/a	102365.25	A	nontarget	n/a	n/a
401.4389648	n/a	102768.375	D	nontarget	n/a	n/a
403.0112305	n/a	103170.875	A	nontarget	n/a	n/a
404.5849609	n/a	103573.75	A	target	hit	501.9531
405.0869141	n/a	103702.25	rt	n/a	hit	501.9531
406.1591797	n/a	103976.75	A	target	hit	679.6875
406.8388672	n/a	104150.75	rt	n/a	hit	679.6875
407.7441406	n/a	104382.5	C	nontarget	n/a	n/a
409.3183594	n/a	104785.5	A	nontarget	n/a	n/a
410.8925781	n/a	105188.5	A	target	hit	513.1836
411.4057617	n/a	105319.875	rt	n/a	hit	513.1836
412.4638672	n/a	105590.75	C	nontarget	n/a	n/a
414.0385742	n/a	105993.875	B	nontarget	n/a	n/a
415.6108398	n/a	106396.375	B	target	hit	523.4375
416.1342773	n/a	106530.375	rt	n/a	hit	523.4375
417.1713867	n/a	106795.875	D	nontarget	n/a	n/a
418.7568359	n/a	107201.75	C	nontarget	n/a	n/a
420.3310547	n/a	107604.75	D	nontarget	n/a	n/a
421.9047852	n/a	108007.625	A	nontarget	n/a	n/a
423.4770508	n/a	108410.125	B	nontarget	n/a	n/a
425.0512695	n/a	108813.125	A	nontarget	n/a	n/a
426.625	n/a	109216	B	nontarget	n/a	n/a
428.2104492	n/a	109621.875	D	nontarget	n/a	n/a
429.7841797	n/a	110024.75	A	nontarget	n/a	n/a
431.359375	n/a	110428	A	target	hit	521.9727
431.8813477	n/a	110561.625	rt	n/a	hit	521.9727
432.9301758	n/a	110830.125	C	nontarget	n/a	n/a
434.5048828	n/a	111233.25	B	nontarget	n/a	n/a
436.0795898	n/a	111636.375	A	nontarget	n/a	n/a
437.6635742	n/a	112041.875	A	target	hit	555.1758
438.21875	n/a	112184	rt	n/a	hit	555.1758
439.237793	n/a	112444.875	A	target	hit	528.8086
439.7666016	n/a	112580.25	rt	n/a	hit	528.8086
440.8125	n/a	112848	D	nontarget	n/a	n/a
442.3833008	n/a	113250.125	B	nontarget	n/a	n/a
443.9580078	n/a	113653.25	A	nontarget	n/a	n/a
445.5332031	n/a	114056.5	B	nontarget	n/a	n/a
447.1035156	n/a	114458.5	C	nontarget	n/a	n/a
448.6772461	n/a	114861.375	A	nontarget	n/a	n/a
450.2524414	n/a	115264.625	B	nontarget	n/a	n/a
451.8232422	n/a	115666.75	B	target	hit	695.3125
452.5185547	n/a	115844.75	rt	n/a	hit	695.3125
453.3974609	n/a	116069.75	A	nontarget	n/a	n/a
454.9829102	n/a	116475.625	C	nontarget	n/a	n/a
456.5581055	n/a	116878.875	C	target	hit	525.3906
457.0834961	n/a	117013.375	rt	n/a	hit	525.3906
458.1298828	n/a	117281.25	D	nontarget	n/a	n/a
