onset	duration	sample	value	response_type	congruence	response_time	response_out_of_range	largeletter	smallletter
38.02734375	n/a	9735	largeHSmallH	correct	congruent	1.0352	no	H	H
39.0625	n/a	10000	responseLargeH	correct	n/a	1.0352	no	n/a	n/a
40.1328125	n/a	10274	largeTSmallH	correct	incongruent	1.0469	no	T	H
41.1796875	n/a	10542	responseLargeT	correct	n/a	1.0469	no	n/a	n/a
42.25	n/a	10816	largeHSmallH	correct	congruent	0.55469	no	H	H
42.8046875	n/a	10958	responseLargeH	correct	n/a	0.55469	no	n/a	n/a
43.86328125	n/a	11229	largeTSmallH	correct	incongruent	0.49609	no	T	H
44.359375	n/a	11356	responseLargeT	correct	n/a	0.49609	no	n/a	n/a
45.42578125	n/a	11629	largeTSmallH	correct	incongruent	0.52734	no	T	H
45.953125	n/a	11764	responseLargeT	correct	n/a	0.52734	no	n/a	n/a
47.0234375	n/a	12038	largeHSmallT	correct	incongruent	0.42188	no	H	T
47.4453125	n/a	12146	responseLargeH	correct	n/a	0.42188	no	n/a	n/a
48.51953125	n/a	12421	largeHSmallH	correct	congruent	0.50781	no	H	H
49.02734375	n/a	12551	responseLargeH	correct	n/a	0.50781	no	n/a	n/a
50.08984375	n/a	12823	largeHSmallH	correct	congruent	0.50391	no	H	H
50.59375	n/a	12952	responseLargeH	correct	n/a	0.50391	no	n/a	n/a
51.6640625	n/a	13226	largeTSmallT	correct	congruent	0.47656	no	T	T
52.140625	n/a	13348	responseLargeT	correct	n/a	0.47656	no	n/a	n/a
53.2109375	n/a	13622	largeTSmallH	correct	incongruent	0.41016	no	T	H
53.62109375	n/a	13727	responseLargeT	correct	n/a	0.41016	no	n/a	n/a
54.69140625	n/a	14001	largeHSmallT	correct	incongruent	0.51953	no	H	T
55.2109375	n/a	14134	responseLargeH	correct	n/a	0.51953	no	n/a	n/a
56.2890625	n/a	14410	largeTSmallH	correct	incongruent	0.50391	no	T	H
56.79296875	n/a	14539	responseLargeT	correct	n/a	0.50391	no	n/a	n/a
57.86328125	n/a	14813	largeTSmallT	error	congruent	0.40625	no	T	T
58.26953125	n/a	14917	responseLargeH	error	n/a	0.40625	no	n/a	n/a
59.34375	n/a	15192	largeTSmallT	correct	congruent	0.57031	no	T	T
59.9140625	n/a	15338	responseLargeT	correct	n/a	0.57031	no	n/a	n/a
60.984375	n/a	15612	largeHSmallH	correct	congruent	0.54688	no	H	H
61.53125	n/a	15752	responseLargeH	correct	n/a	0.54688	no	n/a	n/a
62.609375	n/a	16028	largeTSmallT	correct	congruent	0.56641	no	T	T
63.17578125	n/a	16173	responseLargeT	correct	n/a	0.56641	no	n/a	n/a
64.23828125	n/a	16445	largeHSmallT	correct	incongruent	0.61328	no	H	T
64.8515625	n/a	16602	responseLargeH	correct	n/a	0.61328	no	n/a	n/a
65.9296875	n/a	16878	largeHSmallT	correct	incongruent	0.54688	no	H	T
66.4765625	n/a	17018	responseLargeH	correct	n/a	0.54688	no	n/a	n/a
67.54296875	n/a	17291	largeTSmallH	correct	incongruent	0.4375	no	T	H
67.98046875	n/a	17403	responseLargeT	correct	n/a	0.4375	no	n/a	n/a
69.05078125	n/a	17677	largeTSmallT	correct	congruent	0.37109	no	T	T
69.421875	n/a	17772	responseLargeT	correct	n/a	0.37109	no	n/a	n/a
70.50390625	n/a	18049	largeHSmallH	correct	congruent	0.5	no	H	H
71.00390625	n/a	18177	responseLargeH	correct	n/a	0.5	no	n/a	n/a
72.078125	n/a	18452	largeTSmallT	correct	congruent	0.46875	no	T	T
72.546875	n/a	18572	responseLargeT	correct	n/a	0.46875	no	n/a	n/a
73.625	n/a	18848	largeHSmallH	correct	congruent	0.46484	no	H	H
74.08984375	n/a	18967	responseLargeH	correct	n/a	0.46484	no	n/a	n/a
75.15625	n/a	19240	largeTSmallT	correct	congruent	0.48047	no	T	T
75.63671875	n/a	19363	responseLargeT	correct	n/a	0.48047	no	n/a	n/a
76.703125	n/a	19636	largeHSmallT	correct	incongruent	0.74609	no	H	T
77.44921875	n/a	19827	responseLargeH	correct	n/a	0.74609	no	n/a	n/a
78.515625	n/a	20100	largeHSmallT	correct	incongruent	0.63281	no	H	T
79.1484375	n/a	20262	responseLargeH	correct	n/a	0.63281	no	n/a	n/a
80.2109375	n/a	20534	largeHSmallT	correct	incongruent	0.45703	no	H	T
80.66796875	n/a	20651	responseLargeH	correct	n/a	0.45703	no	n/a	n/a
81.73046875	n/a	20923	largeHSmallH	correct	congruent	0.54688	no	H	H
82.27734375	n/a	21063	responseLargeH	correct	n/a	0.54688	no	n/a	n/a
83.35546875	n/a	21339	largeHSmallT	correct	incongruent	0.67188	no	H	T
84.02734375	n/a	21511	responseLargeH	correct	n/a	0.67188	no	n/a	n/a
85.10546875	n/a	21787	largeTSmallH	correct	incongruent	0.50391	no	T	H
85.609375	n/a	21916	responseLargeT	correct	n/a	0.50391	no	n/a	n/a
86.67578125	n/a	22189	largeHSmallT	correct	incongruent	0.46875	no	H	T
87.14453125	n/a	22309	responseLargeH	correct	n/a	0.46875	no	n/a	n/a
88.2109375	n/a	22582	largeHSmallH	correct	congruent	0.52734	no	H	H
88.73828125	n/a	22717	responseLargeH	correct	n/a	0.52734	no	n/a	n/a
89.80859375	n/a	22991	largeTSmallH	correct	incongruent	0.44922	no	T	H
90.2578125	n/a	23106	responseLargeT	correct	n/a	0.44922	no	n/a	n/a
91.33203125	n/a	23381	largeHSmallH	correct	congruent	0.63281	no	H	H
91.96484375	n/a	23543	responseLargeH	correct	n/a	0.63281	no	n/a	n/a
93.03515625	n/a	23817	largeHSmallH	correct	congruent	0.5	no	H	H
93.53515625	n/a	23945	responseLargeH	correct	n/a	0.5	no	n/a	n/a
94.59765625	n/a	24217	largeTSmallH	error	incongruent	0.5	no	T	H
95.09765625	n/a	24345	responseLargeH	error	n/a	0.5	no	n/a	n/a
96.15625	n/a	24616	largeHSmallH	correct	congruent	0.49609	no	H	H
96.65234375	n/a	24743	responseLargeH	correct	n/a	0.49609	no	n/a	n/a
97.71484375	n/a	25015	largeTSmallT	correct	congruent	0.44922	no	T	T
98.1640625	n/a	25130	responseLargeT	correct	n/a	0.44922	no	n/a	n/a
99.23828125	n/a	25405	largeTSmallT	correct	congruent	0.42188	no	T	T
99.66015625	n/a	25513	responseLargeT	correct	n/a	0.42188	no	n/a	n/a
100.7304688	n/a	25787	largeTSmallH	correct	incongruent	0.47656	no	T	H
101.2070312	n/a	25909	responseLargeT	correct	n/a	0.47656	no	n/a	n/a
102.2773438	n/a	26183	largeTSmallH	correct	incongruent	0.4375	no	T	H
102.7148438	n/a	26295	responseLargeT	correct	n/a	0.4375	no	n/a	n/a
103.78125	n/a	26568	largeHSmallH	correct	congruent	0.67188	no	H	H
104.453125	n/a	26740	responseLargeH	correct	n/a	0.67188	no	n/a	n/a
105.515625	n/a	27012	largeHSmallT	correct	incongruent	0.60938	no	H	T
106.125	n/a	27168	responseLargeH	correct	n/a	0.60938	no	n/a	n/a
107.1835938	n/a	27439	largeTSmallH	correct	incongruent	0.51172	no	T	H
107.6953125	n/a	27570	responseLargeT	correct	n/a	0.51172	no	n/a	n/a
108.7695312	n/a	27845	largeTSmallT	correct	congruent	0.45312	no	T	T
109.2226562	n/a	27961	responseLargeT	correct	n/a	0.45312	no	n/a	n/a
110.2890625	n/a	28234	largeTSmallT	correct	congruent	0.58594	no	T	T
110.875	n/a	28384	responseLargeT	correct	n/a	0.58594	no	n/a	n/a
111.9414062	n/a	28657	largeTSmallT	correct	congruent	0.55078	no	T	T
112.4921875	n/a	28798	responseLargeT	correct	n/a	0.55078	no	n/a	n/a
113.5546875	n/a	29070	largeTSmallT	correct	congruent	0.48438	no	T	T
114.0390625	n/a	29194	responseLargeT	correct	n/a	0.48438	no	n/a	n/a
115.1015625	n/a	29466	largeHSmallT	correct	incongruent	0.41016	no	H	T
115.5117188	n/a	29571	responseLargeH	correct	n/a	0.41016	no	n/a	n/a
116.5820312	n/a	29845	largeHSmallH	correct	congruent	0.39453	no	H	H
116.9765625	n/a	29946	responseLargeH	correct	n/a	0.39453	no	n/a	n/a
118.0507812	n/a	30221	largeTSmallH	correct	incongruent	0.44141	no	T	H
118.4921875	n/a	30334	responseLargeT	correct	n/a	0.44141	no	n/a	n/a
119.5546875	n/a	30606	largeTSmallT	correct	congruent	0.40234	no	T	T
119.9570312	n/a	30709	responseLargeT	correct	n/a	0.40234	no	n/a	n/a
121.0234375	n/a	30982	largeTSmallH	correct	incongruent	0.30078	no	T	H
121.3242188	n/a	31059	responseLargeT	correct	n/a	0.30078	no	n/a	n/a
122.3945312	n/a	31333	largeHSmallH	correct	congruent	0.46094	no	H	H
122.8554688	n/a	31451	responseLargeH	correct	n/a	0.46094	no	n/a	n/a
123.9296875	n/a	31726	largeTSmallH	correct	incongruent	0.50781	no	T	H
124.4375	n/a	31856	responseLargeT	correct	n/a	0.50781	no	n/a	n/a
125.5039062	n/a	32129	largeHSmallT	correct	incongruent	0.56641	no	H	T
126.0703125	n/a	32274	responseLargeH	correct	n/a	0.56641	no	n/a	n/a
127.1445312	n/a	32549	largeHSmallH	correct	congruent	0.58984	no	H	H
127.734375	n/a	32700	responseLargeH	correct	n/a	0.58984	no	n/a	n/a
128.796875	n/a	32972	largeTSmallH	correct	incongruent	0.65625	no	T	H
129.453125	n/a	33140	responseLargeT	correct	n/a	0.65625	no	n/a	n/a
130.5273438	n/a	33415	largeTSmallT	correct	congruent	0.46484	no	T	T
130.9921875	n/a	33534	responseLargeT	correct	n/a	0.46484	no	n/a	n/a
132.0507812	n/a	33805	largeHSmallT	correct	incongruent	0.46484	no	H	T
132.515625	n/a	33924	responseLargeH	correct	n/a	0.46484	no	n/a	n/a
133.5820312	n/a	34197	largeHSmallT	correct	incongruent	0.42578	no	H	T
134.0078125	n/a	34306	responseLargeH	correct	n/a	0.42578	no	n/a	n/a
135.0742188	n/a	34579	largeTSmallH	correct	incongruent	0.51562	no	T	H
135.5898438	n/a	34711	responseLargeT	correct	n/a	0.51562	no	n/a	n/a
136.6640625	n/a	34986	largeTSmallT	correct	congruent	0.53516	no	T	T
137.1992188	n/a	35123	responseLargeT	correct	n/a	0.53516	no	n/a	n/a
138.2617188	n/a	35395	largeHSmallT	correct	incongruent	0.44922	no	H	T
138.7109375	n/a	35510	responseLargeH	correct	n/a	0.44922	no	n/a	n/a
139.78125	n/a	35784	largeTSmallT	correct	congruent	0.50781	no	T	T
140.2890625	n/a	35914	responseLargeT	correct	n/a	0.50781	no	n/a	n/a
141.3554688	n/a	36187	largeHSmallT	correct	incongruent	0.35547	no	H	T
141.7109375	n/a	36278	responseLargeH	correct	n/a	0.35547	no	n/a	n/a
142.7695312	n/a	36549	largeHSmallH	error	congruent	0.28125	no	H	H
143.0507812	n/a	36621	responseLargeT	error	n/a	0.28125	no	n/a	n/a
144.1171875	n/a	36894	largeHSmallT	correct	incongruent	0.65234	no	H	T
144.7695312	n/a	37061	responseLargeH	correct	n/a	0.65234	no	n/a	n/a
145.8359375	n/a	37334	largeTSmallT	correct	congruent	0.45703	no	T	T
146.2929688	n/a	37451	responseLargeT	correct	n/a	0.45703	no	n/a	n/a
147.3554688	n/a	37723	largeTSmallT	correct	congruent	0.55469	no	T	T
147.9101562	n/a	37865	responseLargeT	correct	n/a	0.55469	no	n/a	n/a
148.9804688	n/a	38139	largeHSmallT	correct	incongruent	0.57422	no	H	T
149.5546875	n/a	38286	responseLargeH	correct	n/a	0.57422	no	n/a	n/a
150.6210938	n/a	38559	largeHSmallT	correct	incongruent	0.39453	no	H	T
151.015625	n/a	38660	responseLargeH	correct	n/a	0.39453	no	n/a	n/a
152.0898438	n/a	38935	largeHSmallH	correct	congruent	0.41406	no	H	H
152.5039062	n/a	39041	responseLargeH	correct	n/a	0.41406	no	n/a	n/a
153.5703125	n/a	39314	largeTSmallH	correct	incongruent	0.4375	no	T	H
154.0078125	n/a	39426	responseLargeT	correct	n/a	0.4375	no	n/a	n/a
155.0898438	n/a	39703	largeHSmallT	correct	incongruent	0.45703	no	H	T
155.546875	n/a	39820	responseLargeH	correct	n/a	0.45703	no	n/a	n/a
156.609375	n/a	40092	largeTSmallT	correct	congruent	0.375	no	T	T
156.984375	n/a	40188	responseLargeT	correct	n/a	0.375	no	n/a	n/a
158.046875	n/a	40460	largeTSmallH	correct	incongruent	0.49609	no	T	H
158.5429688	n/a	40587	responseLargeT	correct	n/a	0.49609	no	n/a	n/a
159.609375	n/a	40860	largeTSmallT	correct	congruent	0.49219	no	T	T
160.1015625	n/a	40986	responseLargeT	correct	n/a	0.49219	no	n/a	n/a
161.1679688	n/a	41259	largeTSmallH	correct	incongruent	0.44922	no	T	H
161.6171875	n/a	41374	responseLargeT	correct	n/a	0.44922	no	n/a	n/a
162.6757812	n/a	41645	largeTSmallH	correct	incongruent	0.40625	no	T	H
163.0820312	n/a	41749	responseLargeT	correct	n/a	0.40625	no	n/a	n/a
164.140625	n/a	42020	largeTSmallH	correct	incongruent	0.46484	no	T	H
164.6054688	n/a	42139	responseLargeT	correct	n/a	0.46484	no	n/a	n/a
165.6757812	n/a	42413	largeTSmallT	correct	congruent	0.39844	no	T	T
166.0742188	n/a	42515	responseLargeT	correct	n/a	0.39844	no	n/a	n/a
167.140625	n/a	42788	largeTSmallH	correct	incongruent	0.41016	no	T	H
167.5507812	n/a	42893	responseLargeT	correct	n/a	0.41016	no	n/a	n/a
168.6210938	n/a	43167	largeTSmallH	correct	incongruent	0.35156	no	T	H
168.9726562	n/a	43257	responseLargeT	correct	n/a	0.35156	no	n/a	n/a
170.0351562	n/a	43529	largeTSmallT	correct	congruent	0.34766	no	T	T
170.3828125	n/a	43618	responseLargeT	correct	n/a	0.34766	no	n/a	n/a
171.4492188	n/a	43891	largeHSmallH	correct	congruent	0.55859	no	H	H
172.0078125	n/a	44034	responseLargeH	correct	n/a	0.55859	no	n/a	n/a
173.0742188	n/a	44307	largeTSmallH	correct	incongruent	0.4375	no	T	H
173.5117188	n/a	44419	responseLargeT	correct	n/a	0.4375	no	n/a	n/a
174.5820312	n/a	44693	largeTSmallH	correct	incongruent	0.64844	no	T	H
175.2304688	n/a	44859	responseLargeT	correct	n/a	0.64844	no	n/a	n/a
176.3007812	n/a	45133	largeHSmallT	correct	incongruent	0.48047	no	H	T
176.78125	n/a	45256	responseLargeH	correct	n/a	0.48047	no	n/a	n/a
177.8632812	n/a	45533	largeHSmallT	correct	incongruent	0.70703	no	H	T
178.5703125	n/a	45714	responseLargeH	correct	n/a	0.70703	no	n/a	n/a
179.6367188	n/a	45987	largeHSmallH	correct	congruent	0.4375	no	H	H
180.0742188	n/a	46099	responseLargeH	correct	n/a	0.4375	no	n/a	n/a
181.140625	n/a	46372	largeHSmallH	correct	congruent	0.45703	no	H	H
181.5976562	n/a	46489	responseLargeH	correct	n/a	0.45703	no	n/a	n/a
182.6601562	n/a	46761	largeHSmallH	correct	congruent	0.35547	no	H	H
183.015625	n/a	46852	responseLargeH	correct	n/a	0.35547	no	n/a	n/a
184.0898438	n/a	47127	largeHSmallH	correct	congruent	0.36328	no	H	H
184.453125	n/a	47220	responseLargeH	correct	n/a	0.36328	no	n/a	n/a
185.515625	n/a	47492	largeHSmallH	correct	congruent	0.33594	no	H	H
185.8515625	n/a	47578	responseLargeH	correct	n/a	0.33594	no	n/a	n/a
186.9140625	n/a	47850	largeTSmallH	correct	incongruent	0.47656	no	T	H
187.390625	n/a	47972	responseLargeT	correct	n/a	0.47656	no	n/a	n/a
188.4609375	n/a	48246	largeTSmallH	correct	incongruent	0.5	no	T	H
188.9609375	n/a	48374	responseLargeT	correct	n/a	0.5	no	n/a	n/a
190.0234375	n/a	48646	largeTSmallT	correct	congruent	0.42188	no	T	T
190.4453125	n/a	48754	responseLargeT	correct	n/a	0.42188	no	n/a	n/a
191.5	n/a	49024	largeTSmallT	correct	congruent	0.32031	no	T	T
191.8203125	n/a	49106	responseLargeT	correct	n/a	0.32031	no	n/a	n/a
192.9023438	n/a	49383	largeHSmallT	error	incongruent	0.32031	no	H	T
193.2226562	n/a	49465	responseLargeT	error	n/a	0.32031	no	n/a	n/a
194.2890625	n/a	49738	largeTSmallH	correct	incongruent	0.37109	no	T	H
194.6601562	n/a	49833	responseLargeT	correct	n/a	0.37109	no	n/a	n/a
195.7265625	n/a	50106	largeTSmallT	correct	congruent	0.52344	no	T	T
196.25	n/a	50240	responseLargeT	correct	n/a	0.52344	no	n/a	n/a
197.328125	n/a	50516	largeHSmallT	correct	incongruent	0.52344	no	H	T
197.8515625	n/a	50650	responseLargeH	correct	n/a	0.52344	no	n/a	n/a
198.9140625	n/a	50922	largeHSmallT	correct	incongruent	0.53125	no	H	T
199.4453125	n/a	51058	responseLargeH	correct	n/a	0.53125	no	n/a	n/a
200.515625	n/a	51332	largeHSmallT	correct	incongruent	0.40625	no	H	T
200.921875	n/a	51436	responseLargeH	correct	n/a	0.40625	no	n/a	n/a
201.9960938	n/a	51711	largeTSmallT	correct	congruent	0.56641	no	T	T
202.5625	n/a	51856	responseLargeT	correct	n/a	0.56641	no	n/a	n/a
203.6328125	n/a	52130	largeHSmallH	correct	congruent	0.46094	no	H	H
204.09375	n/a	52248	responseLargeH	correct	n/a	0.46094	no	n/a	n/a
205.15625	n/a	52520	largeHSmallH	correct	congruent	0.43359	no	H	H
205.5898438	n/a	52631	responseLargeH	correct	n/a	0.43359	no	n/a	n/a
206.6484375	n/a	52902	largeTSmallT	correct	congruent	0.46875	no	T	T
207.1171875	n/a	53022	responseLargeT	correct	n/a	0.46875	no	n/a	n/a
208.1796875	n/a	53294	largeTSmallT	correct	congruent	0.44922	no	T	T
208.6289062	n/a	53409	responseLargeT	correct	n/a	0.44922	no	n/a	n/a
209.6992188	n/a	53683	largeHSmallH	correct	congruent	0.53125	no	H	H
210.2304688	n/a	53819	responseLargeH	correct	n/a	0.53125	no	n/a	n/a
211.3007812	n/a	54093	largeHSmallH	correct	congruent	0.42188	no	H	H
211.7226562	n/a	54201	responseLargeH	correct	n/a	0.42188	no	n/a	n/a
212.78125	n/a	54472	largeHSmallT	correct	incongruent	0.48828	no	H	T
213.2695312	n/a	54597	responseLargeH	correct	n/a	0.48828	no	n/a	n/a
214.328125	n/a	54868	largeHSmallH	correct	congruent	0.38281	no	H	H
214.7109375	n/a	54966	responseLargeH	correct	n/a	0.38281	no	n/a	n/a
215.78125	n/a	55240	largeTSmallH	correct	incongruent	0.44922	no	T	H
216.2304688	n/a	55355	responseLargeT	correct	n/a	0.44922	no	n/a	n/a
217.2890625	n/a	55626	largeTSmallH	correct	incongruent	0.36719	no	T	H
217.65625	n/a	55720	responseLargeT	correct	n/a	0.36719	no	n/a	n/a
218.7265625	n/a	55994	largeTSmallT	correct	congruent	0.39844	no	T	T
219.125	n/a	56096	responseLargeT	correct	n/a	0.39844	no	n/a	n/a
220.1953125	n/a	56370	largeHSmallT	correct	incongruent	0.53125	no	H	T
220.7265625	n/a	56506	responseLargeH	correct	n/a	0.53125	no	n/a	n/a
221.8085938	n/a	56783	largeHSmallT	correct	incongruent	0.50391	no	H	T
222.3125	n/a	56912	responseLargeH	correct	n/a	0.50391	no	n/a	n/a
223.3789062	n/a	57185	largeHSmallT	correct	incongruent	0.4375	no	H	T
223.8164062	n/a	57297	responseLargeH	correct	n/a	0.4375	no	n/a	n/a
224.8867188	n/a	57571	largeTSmallH	correct	incongruent	0.53125	no	T	H
225.4179688	n/a	57707	responseLargeT	correct	n/a	0.53125	no	n/a	n/a
226.4882812	n/a	57981	largeTSmallT	correct	congruent	0.40625	no	T	T
226.8945312	n/a	58085	responseLargeT	correct	n/a	0.40625	no	n/a	n/a
227.96875	n/a	58360	largeHSmallH	correct	congruent	0.49609	no	H	H
228.4648438	n/a	58487	responseLargeH	correct	n/a	0.49609	no	n/a	n/a
229.5390625	n/a	58762	largeHSmallT	correct	incongruent	0.41406	no	H	T
229.953125	n/a	58868	responseLargeH	correct	n/a	0.41406	no	n/a	n/a
231.0195312	n/a	59141	largeHSmallH	correct	congruent	0.35156	no	H	H
231.3710938	n/a	59231	responseLargeH	correct	n/a	0.35156	no	n/a	n/a
232.4453125	n/a	59506	largeHSmallT	correct	incongruent	0.41016	no	H	T
232.8554688	n/a	59611	responseLargeH	correct	n/a	0.41016	no	n/a	n/a
233.9257812	n/a	59885	largeTSmallT	correct	congruent	0.49219	no	T	T
234.4179688	n/a	60011	responseLargeT	correct	n/a	0.49219	no	n/a	n/a
235.4882812	n/a	60285	largeTSmallT	correct	congruent	0.47656	no	T	T
235.9648438	n/a	60407	responseLargeT	correct	n/a	0.47656	no	n/a	n/a
237.0195312	n/a	60677	largeHSmallH	correct	congruent	0.51953	no	H	H
237.5390625	n/a	60810	responseLargeH	correct	n/a	0.51953	no	n/a	n/a
238.6054688	n/a	61083	largeTSmallH	correct	incongruent	0.48438	no	T	H
239.0898438	n/a	61207	responseLargeT	correct	n/a	0.48438	no	n/a	n/a
240.1679688	n/a	61483	largeHSmallH	correct	congruent	0.43359	no	H	H
240.6015625	n/a	61594	responseLargeH	correct	n/a	0.43359	no	n/a	n/a
241.671875	n/a	61868	largeHSmallH	correct	congruent	0.50781	no	H	H
242.1796875	n/a	61998	responseLargeH	correct	n/a	0.50781	no	n/a	n/a
243.2460938	n/a	62271	largeHSmallH	correct	congruent	0.44922	no	H	H
243.6953125	n/a	62386	responseLargeH	correct	n/a	0.44922	no	n/a	n/a
244.765625	n/a	62660	largeHSmallT	correct	incongruent	0.41797	no	H	T
245.1835938	n/a	62767	responseLargeH	correct	n/a	0.41797	no	n/a	n/a
246.2460938	n/a	63039	largeHSmallH	correct	congruent	0.37891	no	H	H
246.625	n/a	63136	responseLargeH	correct	n/a	0.37891	no	n/a	n/a
247.6992188	n/a	63411	largeHSmallH	correct	congruent	0.42578	no	H	H
248.125	n/a	63520	responseLargeH	correct	n/a	0.42578	no	n/a	n/a
249.1953125	n/a	63794	largeHSmallT	correct	incongruent	0.37109	no	H	T
249.5664062	n/a	63889	responseLargeH	correct	n/a	0.37109	no	n/a	n/a
250.6328125	n/a	64162	largeTSmallT	correct	congruent	0.5625	no	T	T
251.1953125	n/a	64306	responseLargeT	correct	n/a	0.5625	no	n/a	n/a
252.2734375	n/a	64582	largeTSmallT	correct	congruent	0.41406	no	T	T
252.6875	n/a	64688	responseLargeT	correct	n/a	0.41406	no	n/a	n/a
253.7539062	n/a	64961	largeHSmallT	correct	incongruent	0.45703	no	H	T
254.2109375	n/a	65078	responseLargeH	correct	n/a	0.45703	no	n/a	n/a
255.2734375	n/a	65350	largeHSmallT	correct	incongruent	0.41016	no	H	T
255.6835938	n/a	65455	responseLargeH	correct	n/a	0.41016	no	n/a	n/a
256.7539062	n/a	65729	largeTSmallH	correct	incongruent	0.51562	no	T	H
257.2695312	n/a	65861	responseLargeT	correct	n/a	0.51562	no	n/a	n/a
258.3398438	n/a	66135	largeTSmallH	correct	incongruent	0.45312	no	T	H
258.7929688	n/a	66251	responseLargeT	correct	n/a	0.45312	no	n/a	n/a
259.875	n/a	66528	largeHSmallT	correct	incongruent	0.44141	no	H	T
260.3164062	n/a	66641	responseLargeH	correct	n/a	0.44141	no	n/a	n/a
261.3789062	n/a	66913	largeTSmallH	correct	incongruent	0.5	no	T	H
261.8789062	n/a	67041	responseLargeT	correct	n/a	0.5	no	n/a	n/a
262.9414062	n/a	67313	largeHSmallH	correct	congruent	0.36719	no	H	H
263.3085938	n/a	67407	responseLargeH	correct	n/a	0.36719	no	n/a	n/a
264.3789062	n/a	67681	largeHSmallH	correct	congruent	0.39453	no	H	H
264.7734375	n/a	67782	responseLargeH	correct	n/a	0.39453	no	n/a	n/a
265.8476562	n/a	68057	largeHSmallH	correct	congruent	0.42578	no	H	H
266.2734375	n/a	68166	responseLargeH	correct	n/a	0.42578	no	n/a	n/a
267.3398438	n/a	68439	largeTSmallT	correct	congruent	0.5	no	T	T
267.8398438	n/a	68567	responseLargeT	correct	n/a	0.5	no	n/a	n/a
268.8984375	n/a	68838	largeTSmallT	correct	congruent	0.38281	no	T	T
269.28125	n/a	68936	responseLargeT	correct	n/a	0.38281	no	n/a	n/a
270.3515625	n/a	69210	largeTSmallT	correct	congruent	0.43359	no	T	T
270.7851562	n/a	69321	responseLargeT	correct	n/a	0.43359	no	n/a	n/a
271.8476562	n/a	69593	largeHSmallH	correct	congruent	0.49609	no	H	H
272.34375	n/a	69720	responseLargeH	correct	n/a	0.49609	no	n/a	n/a
273.40625	n/a	69992	largeTSmallT	correct	congruent	0.5625	no	T	T
273.96875	n/a	70136	responseLargeT	correct	n/a	0.5625	no	n/a	n/a
275.03125	n/a	70408	largeTSmallH	correct	incongruent	0.54688	no	T	H
275.578125	n/a	70548	responseLargeT	correct	n/a	0.54688	no	n/a	n/a
276.6601562	n/a	70825	largeHSmallT	correct	incongruent	0.50391	no	H	T
277.1640625	n/a	70954	responseLargeH	correct	n/a	0.50391	no	n/a	n/a
278.234375	n/a	71228	largeHSmallH	correct	congruent	0.47656	no	H	H
278.7109375	n/a	71350	responseLargeH	correct	n/a	0.47656	no	n/a	n/a
279.78125	n/a	71624	largeHSmallT	correct	incongruent	0.29688	no	H	T
280.078125	n/a	71700	responseLargeH	correct	n/a	0.29688	no	n/a	n/a
281.140625	n/a	71972	largeHSmallT	correct	incongruent	0.39844	no	H	T
281.5390625	n/a	72074	responseLargeH	correct	n/a	0.39844	no	n/a	n/a
282.6210938	n/a	72351	largeTSmallT	correct	congruent	0.46875	no	T	T
283.0898438	n/a	72471	responseLargeT	correct	n/a	0.46875	no	n/a	n/a
284.1523438	n/a	72743	largeTSmallH	correct	incongruent	0.43359	no	T	H
284.5859375	n/a	72854	responseLargeT	correct	n/a	0.43359	no	n/a	n/a
285.6445312	n/a	73125	largeHSmallT	correct	incongruent	0.54688	no	H	T
286.1914062	n/a	73265	responseLargeH	correct	n/a	0.54688	no	n/a	n/a
287.2578125	n/a	73538	largeHSmallT	correct	incongruent	0.51953	no	H	T
287.7773438	n/a	73671	responseLargeH	correct	n/a	0.51953	no	n/a	n/a
288.8476562	n/a	73945	largeHSmallH	correct	congruent	0.42578	no	H	H
289.2734375	n/a	74054	responseLargeH	correct	n/a	0.42578	no	n/a	n/a
290.3398438	n/a	74327	largeTSmallH	correct	incongruent	0.44922	no	T	H
290.7890625	n/a	74442	responseLargeT	correct	n/a	0.44922	no	n/a	n/a
291.859375	n/a	74716	largeTSmallT	correct	congruent	0.48438	no	T	T
292.34375	n/a	74840	responseLargeT	correct	n/a	0.48438	no	n/a	n/a
293.40625	n/a	75112	largeTSmallH	correct	incongruent	0.41016	no	T	H
293.8164062	n/a	75217	responseLargeT	correct	n/a	0.41016	no	n/a	n/a
294.8867188	n/a	75491	largeHSmallH	correct	congruent	0.46094	no	H	H
295.3476562	n/a	75609	responseLargeH	correct	n/a	0.46094	no	n/a	n/a
296.4179688	n/a	75883	largeTSmallT	correct	congruent	0.61328	no	T	T
297.03125	n/a	76040	responseLargeT	correct	n/a	0.61328	no	n/a	n/a
298.0976562	n/a	76313	largeTSmallH	correct	incongruent	0.42969	no	T	H
298.5273438	n/a	76423	responseLargeT	correct	n/a	0.42969	no	n/a	n/a
299.6054688	n/a	76699	largeHSmallH	correct	congruent	0.53125	no	H	H
300.1367188	n/a	76835	responseLargeH	correct	n/a	0.53125	no	n/a	n/a
301.2070312	n/a	77109	largeHSmallT	correct	incongruent	0.375	no	H	T
301.5820312	n/a	77205	responseLargeH	correct	n/a	0.375	no	n/a	n/a
302.6445312	n/a	77477	largeTSmallH	correct	incongruent	0.52344	no	T	H
303.1679688	n/a	77611	responseLargeT	correct	n/a	0.52344	no	n/a	n/a
304.2304688	n/a	77883	largeHSmallH	correct	congruent	0.42578	no	H	H
304.65625	n/a	77992	responseLargeH	correct	n/a	0.42578	no	n/a	n/a
305.7109375	n/a	78262	largeTSmallT	correct	congruent	0.37891	no	T	T
306.0898438	n/a	78359	responseLargeT	correct	n/a	0.37891	no	n/a	n/a
307.1523438	n/a	78631	largeHSmallT	correct	incongruent	0.57422	no	H	T
307.7265625	n/a	78778	responseLargeH	correct	n/a	0.57422	no	n/a	n/a
308.7929688	n/a	79051	largeHSmallT	correct	incongruent	0.50781	no	H	T
309.3007812	n/a	79181	responseLargeH	correct	n/a	0.50781	no	n/a	n/a
310.3671875	n/a	79454	largeTSmallH	correct	incongruent	0.44531	no	T	H
310.8125	n/a	79568	responseLargeT	correct	n/a	0.44531	no	n/a	n/a
311.8710938	n/a	79839	largeTSmallT	correct	congruent	0.42188	no	T	T
312.2929688	n/a	79947	responseLargeT	correct	n/a	0.42188	no	n/a	n/a
313.3671875	n/a	80222	largeTSmallH	correct	incongruent	0.52734	no	T	H
313.8945312	n/a	80357	responseLargeT	correct	n/a	0.52734	no	n/a	n/a
314.9648438	n/a	80631	largeHSmallT	correct	incongruent	0.49609	no	H	T
315.4609375	n/a	80758	responseLargeH	correct	n/a	0.49609	no	n/a	n/a
316.5273438	n/a	81031	largeHSmallH	correct	congruent	0.47266	no	H	H
317	n/a	81152	responseLargeH	correct	n/a	0.47266	no	n/a	n/a
318.0703125	n/a	81426	largeTSmallT	correct	congruent	0.48828	no	T	T
318.5585938	n/a	81551	responseLargeT	correct	n/a	0.48828	no	n/a	n/a
319.6328125	n/a	81826	largeTSmallH	correct	incongruent	0.4375	no	T	H
320.0703125	n/a	81938	responseLargeT	correct	n/a	0.4375	no	n/a	n/a
321.1367188	n/a	82211	largeTSmallH	correct	incongruent	0.41016	no	T	H
321.546875	n/a	82316	responseLargeT	correct	n/a	0.41016	no	n/a	n/a
322.6054688	n/a	82587	largeTSmallT	correct	congruent	0.40625	no	T	T
323.0117188	n/a	82691	responseLargeT	correct	n/a	0.40625	no	n/a	n/a
324.0703125	n/a	82962	largeHSmallT	correct	incongruent	0.5	no	H	T
324.5703125	n/a	83090	responseLargeH	correct	n/a	0.5	no	n/a	n/a
325.6328125	n/a	83362	largeHSmallT	correct	incongruent	0.41406	no	H	T
326.046875	n/a	83468	responseLargeH	correct	n/a	0.41406	no	n/a	n/a
327.125	n/a	83744	largeHSmallT	correct	incongruent	0.42578	no	H	T
327.5507812	n/a	83853	responseLargeH	correct	n/a	0.42578	no	n/a	n/a
328.6171875	n/a	84126	largeTSmallT	correct	congruent	0.51953	no	T	T
329.1367188	n/a	84259	responseLargeT	correct	n/a	0.51953	no	n/a	n/a
330.2070312	n/a	84533	largeTSmallH	correct	incongruent	0.39062	no	T	H
330.5976562	n/a	84633	responseLargeT	correct	n/a	0.39062	no	n/a	n/a
331.671875	n/a	84908	largeTSmallH	correct	incongruent	0.40625	no	T	H
332.078125	n/a	85012	responseLargeT	correct	n/a	0.40625	no	n/a	n/a
333.21875	n/a	85304	largeHSmallT	correct	incongruent	0.50391	no	H	T
333.7226562	n/a	85433	responseLargeH	correct	n/a	0.50391	no	n/a	n/a
334.7929688	n/a	85707	largeTSmallT	correct	congruent	0.42188	no	T	T
335.2148438	n/a	85815	responseLargeT	correct	n/a	0.42188	no	n/a	n/a
336.2734375	n/a	86086	largeTSmallT	correct	congruent	0.62891	no	T	T
336.9023438	n/a	86247	responseLargeT	correct	n/a	0.62891	no	n/a	n/a
337.9765625	n/a	86522	largeHSmallH	correct	congruent	0.44922	no	H	H
338.4257812	n/a	86637	responseLargeH	correct	n/a	0.44922	no	n/a	n/a
339.484375	n/a	86908	largeTSmallT	correct	congruent	0.47266	no	T	T
339.9570312	n/a	87029	responseLargeT	correct	n/a	0.47266	no	n/a	n/a
341.0195312	n/a	87301	largeTSmallH	correct	incongruent	0.58203	no	T	H
341.6015625	n/a	87450	responseLargeT	correct	n/a	0.58203	no	n/a	n/a
342.671875	n/a	87724	largeHSmallH	correct	congruent	0.46484	no	H	H
343.1367188	n/a	87843	responseLargeH	correct	n/a	0.46484	no	n/a	n/a
344.203125	n/a	88116	largeTSmallH	correct	incongruent	0.75391	no	T	H
344.9570312	n/a	88309	responseLargeT	correct	n/a	0.75391	no	n/a	n/a
346.03125	n/a	88584	largeHSmallH	correct	congruent	0.46484	no	H	H
346.4960938	n/a	88703	responseLargeH	correct	n/a	0.46484	no	n/a	n/a
352.8828125	n/a	90338	largeHSmallH	correct	congruent	0.89453	no	H	H
353.7773438	n/a	90567	responseSmallH	correct	n/a	0.89453	no	n/a	n/a
354.84375	n/a	90840	largeTSmallH	error	incongruent	0.64062	no	T	H
355.484375	n/a	91004	responseSmallT	error	n/a	0.64062	no	n/a	n/a
356.5507812	n/a	91277	largeHSmallH	correct	congruent	0.58984	no	H	H
357.140625	n/a	91428	responseSmallH	correct	n/a	0.58984	no	n/a	n/a
358.203125	n/a	91700	largeTSmallH	correct	incongruent	0.46875	no	T	H
358.671875	n/a	91820	responseSmallH	correct	n/a	0.46875	no	n/a	n/a
359.7382812	n/a	92093	largeTSmallH	correct	incongruent	0.47656	no	T	H
360.2148438	n/a	92215	responseSmallH	correct	n/a	0.47656	no	n/a	n/a
361.2851562	n/a	92489	largeHSmallH	correct	congruent	0.53906	no	H	H
361.8242188	n/a	92627	responseSmallH	correct	n/a	0.53906	no	n/a	n/a
362.8984375	n/a	92902	largeHSmallT	correct	incongruent	0.44531	no	H	T
363.34375	n/a	93016	responseSmallT	correct	n/a	0.44531	no	n/a	n/a
364.4179688	n/a	93291	largeHSmallH	correct	congruent	0.49609	no	H	H
364.9140625	n/a	93418	responseSmallH	correct	n/a	0.49609	no	n/a	n/a
365.9765625	n/a	93690	largeTSmallH	correct	incongruent	0.63281	no	T	H
366.609375	n/a	93852	responseSmallH	correct	n/a	0.63281	no	n/a	n/a
367.6835938	n/a	94127	largeHSmallT	correct	incongruent	0.64062	no	H	T
368.3242188	n/a	94291	responseSmallT	correct	n/a	0.64062	no	n/a	n/a
369.390625	n/a	94564	largeHSmallT	correct	incongruent	0.63672	no	H	T
370.0273438	n/a	94727	responseSmallT	correct	n/a	0.63672	no	n/a	n/a
371.0976562	n/a	95001	largeHSmallH	correct	congruent	0.47656	no	H	H
371.5742188	n/a	95123	responseSmallH	correct	n/a	0.47656	no	n/a	n/a
372.6445312	n/a	95397	largeTSmallT	correct	congruent	0.55469	no	T	T
373.1992188	n/a	95539	responseSmallT	correct	n/a	0.55469	no	n/a	n/a
374.2578125	n/a	95810	largeHSmallH	correct	congruent	0.53516	no	H	H
374.7929688	n/a	95947	responseSmallH	correct	n/a	0.53516	no	n/a	n/a
375.859375	n/a	96220	largeTSmallH	correct	incongruent	0.62891	no	T	H
376.4882812	n/a	96381	responseSmallH	correct	n/a	0.62891	no	n/a	n/a
377.5507812	n/a	96653	largeTSmallT	correct	congruent	0.55469	no	T	T
378.1054688	n/a	96795	responseSmallT	correct	n/a	0.55469	no	n/a	n/a
379.1757812	n/a	97069	largeHSmallH	correct	congruent	0.51172	no	H	H
379.6875	n/a	97200	responseSmallH	correct	n/a	0.51172	no	n/a	n/a
380.75	n/a	97472	largeHSmallT	correct	incongruent	0.46875	no	H	T
381.21875	n/a	97592	responseSmallT	correct	n/a	0.46875	no	n/a	n/a
382.2851562	n/a	97865	largeTSmallT	correct	congruent	0.50391	no	T	T
382.7890625	n/a	97994	responseSmallT	correct	n/a	0.50391	no	n/a	n/a
383.8554688	n/a	98267	largeHSmallH	correct	congruent	0.50391	no	H	H
384.359375	n/a	98396	responseSmallH	correct	n/a	0.50391	no	n/a	n/a
385.4296875	n/a	98670	largeTSmallT	correct	congruent	0.53906	no	T	T
385.96875	n/a	98808	responseSmallT	correct	n/a	0.53906	no	n/a	n/a
387.0429688	n/a	99083	largeTSmallT	correct	congruent	0.52344	no	T	T
387.5664062	n/a	99217	responseSmallT	correct	n/a	0.52344	no	n/a	n/a
388.6289062	n/a	99489	largeHSmallH	correct	congruent	0.47656	no	H	H
389.1054688	n/a	99611	responseSmallH	correct	n/a	0.47656	no	n/a	n/a
390.1757812	n/a	99885	largeTSmallT	correct	congruent	0.58984	no	T	T
390.765625	n/a	100036	responseSmallT	correct	n/a	0.58984	no	n/a	n/a
391.8320312	n/a	100309	largeTSmallH	correct	incongruent	0.76562	no	T	H
392.5976562	n/a	100505	responseSmallH	correct	n/a	0.76562	no	n/a	n/a
393.671875	n/a	100780	largeTSmallT	correct	congruent	0.54297	no	T	T
394.2148438	n/a	100919	responseSmallT	correct	n/a	0.54297	no	n/a	n/a
395.2695312	n/a	101189	largeHSmallH	correct	congruent	0.5	no	H	H
395.7695312	n/a	101317	responseSmallH	correct	n/a	0.5	no	n/a	n/a
396.8320312	n/a	101589	largeTSmallH	correct	incongruent	0.44531	no	T	H
397.2773438	n/a	101703	responseSmallH	correct	n/a	0.44531	no	n/a	n/a
398.3515625	n/a	101978	largeHSmallT	correct	incongruent	0.52734	no	H	T
398.8789062	n/a	102113	responseSmallT	correct	n/a	0.52734	no	n/a	n/a
399.9492188	n/a	102387	largeHSmallH	correct	congruent	0.50391	no	H	H
400.453125	n/a	102516	responseSmallH	correct	n/a	0.50391	no	n/a	n/a
401.5117188	n/a	102787	largeHSmallH	correct	congruent	0.51562	no	H	H
402.0273438	n/a	102919	responseSmallH	correct	n/a	0.51562	no	n/a	n/a
403.0976562	n/a	103193	largeTSmallH	correct	incongruent	0.45703	no	T	H
403.5546875	n/a	103310	responseSmallH	correct	n/a	0.45703	no	n/a	n/a
404.6171875	n/a	103582	largeHSmallT	correct	incongruent	0.5	no	H	T
405.1171875	n/a	103710	responseSmallT	correct	n/a	0.5	no	n/a	n/a
406.1757812	n/a	103981	largeTSmallH	correct	incongruent	0.53906	no	T	H
406.7148438	n/a	104119	responseSmallH	correct	n/a	0.53906	no	n/a	n/a
407.7890625	n/a	104394	largeHSmallH	correct	congruent	0.44922	no	H	H
408.2382812	n/a	104509	responseSmallH	correct	n/a	0.44922	no	n/a	n/a
409.296875	n/a	104780	largeHSmallH	correct	congruent	1.0508	no	H	H
410.3476562	n/a	105049	responseSmallH	correct	n/a	1.0508	no	n/a	n/a
411.4179688	n/a	105323	largeHSmallH	correct	congruent	0.41016	no	H	H
411.828125	n/a	105428	responseSmallH	correct	n/a	0.41016	no	n/a	n/a
412.9101562	n/a	105705	largeTSmallH	correct	incongruent	0.42578	no	T	H
413.3359375	n/a	105814	responseSmallH	correct	n/a	0.42578	no	n/a	n/a
414.4023438	n/a	106087	largeHSmallH	correct	congruent	0.42188	no	H	H
414.8242188	n/a	106195	responseSmallH	correct	n/a	0.42188	no	n/a	n/a
415.8984375	n/a	106470	largeTSmallT	correct	congruent	0.38672	no	T	T
416.2851562	n/a	106569	responseSmallT	correct	n/a	0.38672	no	n/a	n/a
417.3515625	n/a	106842	largeTSmallH	correct	incongruent	0.51953	no	T	H
417.8710938	n/a	106975	responseSmallH	correct	n/a	0.51953	no	n/a	n/a
418.9375	n/a	107248	largeHSmallH	correct	congruent	0.45312	no	H	H
419.390625	n/a	107364	responseSmallH	correct	n/a	0.45312	no	n/a	n/a
420.4570312	n/a	107637	largeTSmallT	correct	congruent	0.49609	no	T	T
420.953125	n/a	107764	responseSmallT	correct	n/a	0.49609	no	n/a	n/a
422.015625	n/a	108036	largeHSmallT	correct	incongruent	0.46094	no	H	T
422.4765625	n/a	108154	responseSmallT	correct	n/a	0.46094	no	n/a	n/a
423.5351562	n/a	108425	largeTSmallT	correct	congruent	0.40625	no	T	T
423.9414062	n/a	108529	responseSmallT	correct	n/a	0.40625	no	n/a	n/a
425.0039062	n/a	108801	largeHSmallT	correct	incongruent	0.47656	no	H	T
425.4804688	n/a	108923	responseSmallT	correct	n/a	0.47656	no	n/a	n/a
426.5507812	n/a	109197	largeTSmallH	correct	incongruent	0.46094	no	T	H
427.0117188	n/a	109315	responseSmallH	correct	n/a	0.46094	no	n/a	n/a
428.0820312	n/a	109589	largeTSmallH	correct	incongruent	0.44531	no	T	H
428.5273438	n/a	109703	responseSmallH	correct	n/a	0.44531	no	n/a	n/a
429.5898438	n/a	109975	largeHSmallH	correct	congruent	0.43359	no	H	H
430.0234375	n/a	110086	responseSmallH	correct	n/a	0.43359	no	n/a	n/a
431.0976562	n/a	110361	largeTSmallT	error	congruent	0.41797	no	T	T
431.515625	n/a	110468	responseSmallH	error	n/a	0.41797	no	n/a	n/a
432.5898438	n/a	110743	largeHSmallH	correct	congruent	0.53125	no	H	H
433.1210938	n/a	110879	responseSmallH	correct	n/a	0.53125	no	n/a	n/a
434.203125	n/a	111156	largeHSmallT	correct	incongruent	0.40234	no	H	T
434.6054688	n/a	111259	responseSmallT	correct	n/a	0.40234	no	n/a	n/a
435.6679688	n/a	111531	largeHSmallH	correct	congruent	0.58203	no	H	H
436.25	n/a	111680	responseSmallH	correct	n/a	0.58203	no	n/a	n/a
437.3242188	n/a	111955	largeHSmallH	correct	congruent	0.76172	no	H	H
438.0859375	n/a	112150	responseSmallH	correct	n/a	0.76172	no	n/a	n/a
439.1640625	n/a	112426	largeTSmallT	correct	congruent	0.55469	no	T	T
439.71875	n/a	112568	responseSmallT	correct	n/a	0.55469	no	n/a	n/a
440.7773438	n/a	112839	largeTSmallH	correct	incongruent	0.61719	no	T	H
441.3945312	n/a	112997	responseSmallH	correct	n/a	0.61719	no	n/a	n/a
442.46875	n/a	113272	largeHSmallH	correct	congruent	0.44922	no	H	H
442.9179688	n/a	113387	responseSmallH	correct	n/a	0.44922	no	n/a	n/a
443.9765625	n/a	113658	largeTSmallT	correct	congruent	0.59766	no	T	T
444.5742188	n/a	113811	responseSmallT	correct	n/a	0.59766	no	n/a	n/a
445.6445312	n/a	114085	largeTSmallH	correct	incongruent	0.43359	no	T	H
446.078125	n/a	114196	responseSmallH	correct	n/a	0.43359	no	n/a	n/a
447.1484375	n/a	114470	largeTSmallT	correct	congruent	0.63281	no	T	T
447.78125	n/a	114632	responseSmallT	correct	n/a	0.63281	no	n/a	n/a
448.84375	n/a	114904	largeHSmallT	correct	incongruent	0.50781	no	H	T
449.3515625	n/a	115034	responseSmallT	correct	n/a	0.50781	no	n/a	n/a
450.4296875	n/a	115310	largeTSmallT	correct	congruent	0.41797	no	T	T
450.8476562	n/a	115417	responseSmallT	correct	n/a	0.41797	no	n/a	n/a
451.921875	n/a	115692	largeTSmallT	correct	congruent	0.44531	no	T	T
452.3671875	n/a	115806	responseSmallT	correct	n/a	0.44531	no	n/a	n/a
453.4296875	n/a	116078	largeTSmallH	correct	incongruent	0.46094	no	T	H
453.890625	n/a	116196	responseSmallH	correct	n/a	0.46094	no	n/a	n/a
454.9609375	n/a	116470	largeHSmallH	correct	congruent	0.46875	no	H	H
455.4296875	n/a	116590	responseSmallH	correct	n/a	0.46875	no	n/a	n/a
456.5078125	n/a	116866	largeHSmallT	correct	incongruent	0.45703	no	H	T
456.9648438	n/a	116983	responseSmallT	correct	n/a	0.45703	no	n/a	n/a
458.0273438	n/a	117255	largeHSmallT	correct	incongruent	0.42578	no	H	T
458.453125	n/a	117364	responseSmallT	correct	n/a	0.42578	no	n/a	n/a
459.5078125	n/a	117634	largeHSmallT	correct	incongruent	0.34375	no	H	T
459.8515625	n/a	117722	responseSmallT	correct	n/a	0.34375	no	n/a	n/a
460.921875	n/a	117996	largeHSmallT	correct	incongruent	0.35547	no	H	T
461.2773438	n/a	118087	responseSmallT	correct	n/a	0.35547	no	n/a	n/a
462.3359375	n/a	118358	largeTSmallT	correct	congruent	0.39062	no	T	T
462.7265625	n/a	118458	responseSmallT	correct	n/a	0.39062	no	n/a	n/a
463.7890625	n/a	118730	largeTSmallT	correct	congruent	0.35938	no	T	T
464.1484375	n/a	118822	responseSmallT	correct	n/a	0.35938	no	n/a	n/a
465.2148438	n/a	119095	largeHSmallT	correct	incongruent	0.40625	no	H	T
465.6210938	n/a	119199	responseSmallT	correct	n/a	0.40625	no	n/a	n/a
466.6953125	n/a	119474	largeTSmallT	correct	congruent	0.44531	no	T	T
467.140625	n/a	119588	responseSmallT	correct	n/a	0.44531	no	n/a	n/a
468.203125	n/a	119860	largeHSmallT	correct	incongruent	0.45703	no	H	T
468.6601562	n/a	119977	responseSmallT	correct	n/a	0.45703	no	n/a	n/a
469.734375	n/a	120252	largeTSmallT	correct	congruent	0.47266	no	T	T
470.2070312	n/a	120373	responseSmallT	correct	n/a	0.47266	no	n/a	n/a
471.28125	n/a	120648	largeHSmallT	correct	incongruent	0.49219	no	H	T
471.7734375	n/a	120774	responseSmallT	correct	n/a	0.49219	no	n/a	n/a
472.84375	n/a	121048	largeHSmallT	correct	incongruent	0.41797	no	H	T
473.2617188	n/a	121155	responseSmallT	correct	n/a	0.41797	no	n/a	n/a
474.3359375	n/a	121430	largeTSmallH	correct	incongruent	0.53906	no	T	H
474.875	n/a	121568	responseSmallH	correct	n/a	0.53906	no	n/a	n/a
475.9492188	n/a	121843	largeHSmallT	correct	incongruent	0.48047	no	H	T
476.4296875	n/a	121966	responseSmallT	correct	n/a	0.48047	no	n/a	n/a
477.4804688	n/a	122235	largeHSmallH	correct	congruent	0.53516	no	H	H
478.015625	n/a	122372	responseSmallH	correct	n/a	0.53516	no	n/a	n/a
479.0820312	n/a	122645	largeHSmallT	correct	incongruent	0.45312	no	H	T
479.5351562	n/a	122761	responseSmallT	correct	n/a	0.45312	no	n/a	n/a
480.6015625	n/a	123034	largeHSmallH	correct	congruent	0.55469	no	H	H
481.15625	n/a	123176	responseSmallH	correct	n/a	0.55469	no	n/a	n/a
482.2265625	n/a	123450	largeTSmallH	correct	incongruent	0.51172	no	T	H
482.7382812	n/a	123581	responseSmallH	correct	n/a	0.51172	no	n/a	n/a
483.8007812	n/a	123853	largeTSmallH	correct	incongruent	0.40625	no	T	H
484.2070312	n/a	123957	responseSmallH	correct	n/a	0.40625	no	n/a	n/a
485.2695312	n/a	124229	largeHSmallH	correct	congruent	0.50391	no	H	H
485.7734375	n/a	124358	responseSmallH	correct	n/a	0.50391	no	n/a	n/a
486.828125	n/a	124628	largeTSmallH	correct	incongruent	0.52344	no	T	H
487.3515625	n/a	124762	responseSmallH	correct	n/a	0.52344	no	n/a	n/a
488.4296875	n/a	125038	largeTSmallT	correct	congruent	0.55859	no	T	T
488.9882812	n/a	125181	responseSmallT	correct	n/a	0.55859	no	n/a	n/a
490.0546875	n/a	125454	largeHSmallH	correct	congruent	0.45312	no	H	H
490.5078125	n/a	125570	responseSmallH	correct	n/a	0.45312	no	n/a	n/a
491.5742188	n/a	125843	largeHSmallT	error	incongruent	0.49219	no	H	T
492.0664062	n/a	125969	responseSmallH	error	n/a	0.49219	no	n/a	n/a
493.1367188	n/a	126243	largeTSmallH	correct	incongruent	0.63281	no	T	H
493.7695312	n/a	126405	responseSmallH	correct	n/a	0.63281	no	n/a	n/a
494.8398438	n/a	126679	largeTSmallH	correct	incongruent	0.48438	no	T	H
495.3242188	n/a	126803	responseSmallH	correct	n/a	0.48438	no	n/a	n/a
496.3867188	n/a	127075	largeHSmallT	correct	incongruent	0.53906	no	H	T
496.9257812	n/a	127213	responseSmallT	correct	n/a	0.53906	no	n/a	n/a
497.9882812	n/a	127485	largeHSmallT	correct	incongruent	0.41406	no	H	T
498.4023438	n/a	127591	responseSmallT	correct	n/a	0.41406	no	n/a	n/a
499.46875	n/a	127864	largeTSmallT	correct	congruent	0.39453	no	T	T
499.8632812	n/a	127965	responseSmallT	correct	n/a	0.39453	no	n/a	n/a
500.9335938	n/a	128239	largeTSmallT	correct	congruent	0.36719	no	T	T
501.3007812	n/a	128333	responseSmallT	correct	n/a	0.36719	no	n/a	n/a
502.375	n/a	128608	largeHSmallT	correct	incongruent	0.49609	no	H	T
502.8710938	n/a	128735	responseSmallT	correct	n/a	0.49609	no	n/a	n/a
503.9492188	n/a	129011	largeHSmallT	correct	incongruent	0.38281	no	H	T
504.3320312	n/a	129109	responseSmallT	correct	n/a	0.38281	no	n/a	n/a
505.4023438	n/a	129383	largeHSmallT	correct	incongruent	0.42578	no	H	T
505.828125	n/a	129492	responseSmallT	correct	n/a	0.42578	no	n/a	n/a
506.8945312	n/a	129765	largeTSmallT	correct	congruent	0.42578	no	T	T
507.3203125	n/a	129874	responseSmallT	correct	n/a	0.42578	no	n/a	n/a
508.3867188	n/a	130147	largeTSmallH	correct	incongruent	0.46094	no	T	H
508.8476562	n/a	130265	responseSmallH	correct	n/a	0.46094	no	n/a	n/a
509.921875	n/a	130540	largeHSmallH	correct	congruent	0.46875	no	H	H
510.390625	n/a	130660	responseSmallH	correct	n/a	0.46875	no	n/a	n/a
511.46875	n/a	130936	largeHSmallT	correct	incongruent	0.50781	no	H	T
511.9765625	n/a	131066	responseSmallT	correct	n/a	0.50781	no	n/a	n/a
513.0429688	n/a	131339	largeTSmallH	correct	incongruent	0.51953	no	T	H
513.5625	n/a	131472	responseSmallH	correct	n/a	0.51953	no	n/a	n/a
514.6289062	n/a	131745	largeTSmallH	correct	incongruent	0.46094	no	T	H
515.0898438	n/a	131863	responseSmallH	correct	n/a	0.46094	no	n/a	n/a
516.1601562	n/a	132137	largeHSmallH	correct	congruent	0.53516	no	H	H
516.6953125	n/a	132274	responseSmallH	correct	n/a	0.53516	no	n/a	n/a
517.7617188	n/a	132547	largeTSmallH	correct	incongruent	0.48047	no	T	H
518.2421875	n/a	132670	responseSmallH	correct	n/a	0.48047	no	n/a	n/a
519.3085938	n/a	132943	largeHSmallH	correct	congruent	0.45312	no	H	H
519.7617188	n/a	133059	responseSmallH	correct	n/a	0.45312	no	n/a	n/a
520.828125	n/a	133332	largeTSmallT	correct	congruent	0.5	no	T	T
521.328125	n/a	133460	responseSmallT	correct	n/a	0.5	no	n/a	n/a
522.4023438	n/a	133735	largeTSmallH	correct	incongruent	0.44531	no	T	H
522.8476562	n/a	133849	responseSmallH	correct	n/a	0.44531	no	n/a	n/a
523.90625	n/a	134120	largeTSmallT	correct	congruent	0.47656	no	T	T
524.3828125	n/a	134242	responseSmallT	correct	n/a	0.47656	no	n/a	n/a
525.4414062	n/a	134513	largeHSmallH	correct	congruent	0.43359	no	H	H
525.875	n/a	134624	responseSmallH	correct	n/a	0.43359	no	n/a	n/a
526.9492188	n/a	134899	largeHSmallT	correct	incongruent	0.52344	no	H	T
527.4726562	n/a	135033	responseSmallT	correct	n/a	0.52344	no	n/a	n/a
528.546875	n/a	135308	largeHSmallT	correct	incongruent	0.41797	no	H	T
528.9648438	n/a	135415	responseSmallT	correct	n/a	0.41797	no	n/a	n/a
530.0273438	n/a	135687	largeTSmallT	correct	congruent	0.43359	no	T	T
530.4609375	n/a	135798	responseSmallT	correct	n/a	0.43359	no	n/a	n/a
531.5195312	n/a	136069	largeTSmallT	correct	congruent	0.34766	no	T	T
531.8671875	n/a	136158	responseSmallT	correct	n/a	0.34766	no	n/a	n/a
532.9335938	n/a	136431	largeTSmallT	correct	congruent	0.36719	no	T	T
533.3007812	n/a	136525	responseSmallT	correct	n/a	0.36719	no	n/a	n/a
534.359375	n/a	136796	largeHSmallH	correct	congruent	0.44922	no	H	H
534.8085938	n/a	136911	responseSmallH	correct	n/a	0.44922	no	n/a	n/a
535.8789062	n/a	137185	largeTSmallH	correct	incongruent	0.44922	no	T	H
536.328125	n/a	137300	responseSmallH	correct	n/a	0.44922	no	n/a	n/a
537.3867188	n/a	137571	largeTSmallH	correct	incongruent	0.41016	no	T	H
537.796875	n/a	137676	responseSmallH	correct	n/a	0.41016	no	n/a	n/a
538.8554688	n/a	137947	largeTSmallH	correct	incongruent	0.36328	no	T	H
539.21875	n/a	138040	responseSmallH	correct	n/a	0.36328	no	n/a	n/a
540.2929688	n/a	138315	largeTSmallH	correct	incongruent	0.39062	no	T	H
540.6835938	n/a	138415	responseSmallH	correct	n/a	0.39062	no	n/a	n/a
541.7617188	n/a	138691	largeTSmallT	correct	congruent	0.94531	no	T	T
542.7070312	n/a	138933	responseSmallT	correct	n/a	0.94531	no	n/a	n/a
543.7734375	n/a	139206	largeHSmallT	correct	incongruent	0.51172	no	H	T
544.2851562	n/a	139337	responseSmallT	correct	n/a	0.51172	no	n/a	n/a
545.3476562	n/a	139609	largeTSmallT	correct	congruent	0.50781	no	T	T
545.8554688	n/a	139739	responseSmallT	correct	n/a	0.50781	no	n/a	n/a
546.921875	n/a	140012	largeTSmallT	correct	congruent	0.40625	no	T	T
547.328125	n/a	140116	responseSmallT	correct	n/a	0.40625	no	n/a	n/a
548.3867188	n/a	140387	largeHSmallT	correct	incongruent	0.46484	no	H	T
548.8515625	n/a	140506	responseSmallT	correct	n/a	0.46484	no	n/a	n/a
549.921875	n/a	140780	largeHSmallH	correct	congruent	0.47656	no	H	H
550.3984375	n/a	140902	responseSmallH	correct	n/a	0.47656	no	n/a	n/a
551.46875	n/a	141176	largeHSmallH	correct	congruent	0.44531	no	H	H
551.9140625	n/a	141290	responseSmallH	correct	n/a	0.44531	no	n/a	n/a
552.9726562	n/a	141561	largeTSmallT	correct	congruent	0.4375	no	T	T
553.4101562	n/a	141673	responseSmallT	correct	n/a	0.4375	no	n/a	n/a
554.4804688	n/a	141947	largeHSmallT	correct	incongruent	0.44922	no	H	T
554.9296875	n/a	142062	responseSmallT	correct	n/a	0.44922	no	n/a	n/a
556	n/a	142336	largeTSmallH	correct	incongruent	0.50391	no	T	H
556.5039062	n/a	142465	responseSmallH	correct	n/a	0.50391	no	n/a	n/a
557.5742188	n/a	142739	largeTSmallT	correct	congruent	0.80469	no	T	T
558.3789062	n/a	142945	responseSmallT	correct	n/a	0.80469	no	n/a	n/a
559.453125	n/a	143220	largeHSmallH	correct	congruent	0.4375	no	H	H
559.890625	n/a	143332	responseSmallH	correct	n/a	0.4375	no	n/a	n/a
560.9609375	n/a	143606	largeTSmallH	correct	incongruent	0.44531	no	T	H
561.40625	n/a	143720	responseSmallH	correct	n/a	0.44531	no	n/a	n/a
562.4804688	n/a	143995	largeHSmallT	correct	incongruent	0.57422	no	H	T
563.0546875	n/a	144142	responseSmallT	correct	n/a	0.57422	no	n/a	n/a
564.1210938	n/a	144415	largeTSmallH	correct	incongruent	0.5625	no	T	H
564.6835938	n/a	144559	responseSmallH	correct	n/a	0.5625	no	n/a	n/a
565.7460938	n/a	144831	largeHSmallH	correct	congruent	0.49609	no	H	H
566.2421875	n/a	144958	responseSmallH	correct	n/a	0.49609	no	n/a	n/a
567.3085938	n/a	145231	largeTSmallH	correct	incongruent	0.42188	no	T	H
567.7304688	n/a	145339	responseSmallH	correct	n/a	0.42188	no	n/a	n/a
568.8007812	n/a	145613	largeHSmallT	correct	incongruent	0.53906	no	H	T
569.3398438	n/a	145751	responseSmallT	correct	n/a	0.53906	no	n/a	n/a
570.3984375	n/a	146022	largeTSmallT	correct	congruent	0.39844	no	T	T
570.796875	n/a	146124	responseSmallT	correct	n/a	0.39844	no	n/a	n/a
571.8671875	n/a	146398	largeHSmallH	correct	congruent	0.48828	no	H	H
572.3554688	n/a	146523	responseSmallH	correct	n/a	0.48828	no	n/a	n/a
573.4257812	n/a	146797	largeHSmallH	correct	congruent	0.5	no	H	H
573.9257812	n/a	146925	responseSmallH	correct	n/a	0.5	no	n/a	n/a
574.9882812	n/a	147197	largeHSmallT	correct	incongruent	0.53906	no	H	T
575.5273438	n/a	147335	responseSmallT	correct	n/a	0.53906	no	n/a	n/a
576.6015625	n/a	147610	largeTSmallH	correct	incongruent	0.46875	no	T	H
577.0703125	n/a	147730	responseSmallH	correct	n/a	0.46875	no	n/a	n/a
578.1484375	n/a	148006	largeHSmallH	correct	congruent	0.4375	no	H	H
578.5859375	n/a	148118	responseSmallH	correct	n/a	0.4375	no	n/a	n/a
579.6523438	n/a	148391	largeHSmallH	correct	congruent	0.41797	no	H	H
580.0703125	n/a	148498	responseSmallH	correct	n/a	0.41797	no	n/a	n/a
581.1328125	n/a	148770	largeHSmallH	correct	congruent	0.42578	no	H	H
581.5585938	n/a	148879	responseSmallH	correct	n/a	0.42578	no	n/a	n/a
582.625	n/a	149152	largeHSmallT	correct	incongruent	0.48438	no	H	T
583.109375	n/a	149276	responseSmallT	correct	n/a	0.48438	no	n/a	n/a
584.171875	n/a	149548	largeHSmallH	correct	congruent	0.42578	no	H	H
584.5976562	n/a	149657	responseSmallH	correct	n/a	0.42578	no	n/a	n/a
585.6523438	n/a	149927	largeHSmallT	correct	incongruent	0.46875	no	H	T
586.1210938	n/a	150047	responseSmallT	correct	n/a	0.46875	no	n/a	n/a
587.1875	n/a	150320	largeHSmallH	correct	congruent	0.50781	no	H	H
587.6953125	n/a	150450	responseSmallH	correct	n/a	0.50781	no	n/a	n/a
588.7578125	n/a	150722	largeTSmallH	correct	incongruent	0.54688	no	T	H
589.3046875	n/a	150862	responseSmallH	correct	n/a	0.54688	no	n/a	n/a
590.3710938	n/a	151135	largeHSmallT	correct	incongruent	0.46875	no	H	T
590.8398438	n/a	151255	responseSmallT	correct	n/a	0.46875	no	n/a	n/a
591.9179688	n/a	151531	largeHSmallT	correct	incongruent	0.42578	no	H	T
592.34375	n/a	151640	responseSmallT	correct	n/a	0.42578	no	n/a	n/a
593.4140625	n/a	151914	largeHSmallT	correct	incongruent	0.35938	no	H	T
593.7734375	n/a	152006	responseSmallT	correct	n/a	0.35938	no	n/a	n/a
594.8515625	n/a	152282	largeTSmallH	correct	incongruent	0.51172	no	T	H
595.3632812	n/a	152413	responseSmallH	correct	n/a	0.51172	no	n/a	n/a
596.4414062	n/a	152689	largeTSmallT	correct	congruent	0.44922	no	T	T
596.890625	n/a	152804	responseSmallT	correct	n/a	0.44922	no	n/a	n/a
597.9609375	n/a	153078	largeTSmallT	correct	congruent	0.5625	no	T	T
598.5234375	n/a	153222	responseSmallT	correct	n/a	0.5625	no	n/a	n/a
599.5859375	n/a	153494	largeHSmallT	correct	incongruent	0.4375	no	H	T
600.0234375	n/a	153606	responseSmallT	correct	n/a	0.4375	no	n/a	n/a
601.09375	n/a	153880	largeHSmallH	correct	congruent	0.49219	no	H	H
601.5859375	n/a	154006	responseSmallH	correct	n/a	0.49219	no	n/a	n/a
602.6523438	n/a	154279	largeHSmallH	correct	congruent	0.48828	no	H	H
603.140625	n/a	154404	responseSmallH	correct	n/a	0.48828	no	n/a	n/a
604.2109375	n/a	154678	largeTSmallH	correct	incongruent	0.50391	no	T	H
604.7148438	n/a	154807	responseSmallH	correct	n/a	0.50391	no	n/a	n/a
605.7851562	n/a	155081	largeTSmallT	correct	congruent	0.53125	no	T	T
606.3164062	n/a	155217	responseSmallT	correct	n/a	0.53125	no	n/a	n/a
607.3867188	n/a	155491	largeTSmallT	correct	congruent	0.875	no	T	T
608.2617188	n/a	155715	responseSmallT	correct	n/a	0.875	no	n/a	n/a
609.3203125	n/a	155986	largeTSmallH	correct	incongruent	0.47266	no	T	H
609.7929688	n/a	156107	responseSmallH	correct	n/a	0.47266	no	n/a	n/a
610.8515625	n/a	156378	largeHSmallT	correct	incongruent	0.47266	no	H	T
611.3242188	n/a	156499	responseSmallT	correct	n/a	0.47266	no	n/a	n/a
612.3984375	n/a	156774	largeHSmallT	correct	incongruent	0.46094	no	H	T
612.859375	n/a	156892	responseSmallT	correct	n/a	0.46094	no	n/a	n/a
613.9179688	n/a	157163	largeTSmallT	correct	congruent	0.41406	no	T	T
614.3320312	n/a	157269	responseSmallT	correct	n/a	0.41406	no	n/a	n/a
615.4140625	n/a	157546	largeHSmallH	correct	congruent	0.45703	no	H	H
615.8710938	n/a	157663	responseSmallH	correct	n/a	0.45703	no	n/a	n/a
616.9335938	n/a	157935	largeHSmallT	correct	incongruent	0.44922	no	H	T
617.3828125	n/a	158050	responseSmallT	correct	n/a	0.44922	no	n/a	n/a
618.453125	n/a	158324	largeTSmallT	correct	congruent	0.54688	no	T	T
619	n/a	158464	responseSmallT	correct	n/a	0.54688	no	n/a	n/a
620.078125	n/a	158740	largeTSmallH	correct	incongruent	0.50781	no	T	H
620.5859375	n/a	158870	responseSmallH	correct	n/a	0.50781	no	n/a	n/a
621.6523438	n/a	159143	largeTSmallT	correct	congruent	0.48047	no	T	T
622.1328125	n/a	159266	responseSmallT	correct	n/a	0.48047	no	n/a	n/a
623.1992188	n/a	159539	largeHSmallT	correct	incongruent	0.51953	no	H	T
623.71875	n/a	159672	responseSmallT	correct	n/a	0.51953	no	n/a	n/a
624.7851562	n/a	159945	largeTSmallH	correct	incongruent	0.48438	no	T	H
625.2695312	n/a	160069	responseSmallH	correct	n/a	0.48438	no	n/a	n/a
626.3476562	n/a	160345	largeHSmallT	correct	incongruent	0.64453	no	H	T
626.9921875	n/a	160510	responseSmallT	correct	n/a	0.64453	no	n/a	n/a
628.0664062	n/a	160785	largeHSmallT	correct	incongruent	0.41016	no	H	T
628.4765625	n/a	160890	responseSmallT	correct	n/a	0.41016	no	n/a	n/a
629.546875	n/a	161164	largeTSmallT	correct	congruent	0.48828	no	T	T
630.0351562	n/a	161289	responseSmallT	correct	n/a	0.48828	no	n/a	n/a
631.1054688	n/a	161563	largeTSmallT	correct	congruent	0.37891	no	T	T
631.484375	n/a	161660	responseSmallT	correct	n/a	0.37891	no	n/a	n/a
632.5585938	n/a	161935	largeHSmallT	correct	incongruent	0.44531	no	H	T
633.0039062	n/a	162049	responseSmallT	correct	n/a	0.44531	no	n/a	n/a
634.0664062	n/a	162321	largeTSmallT	correct	congruent	0.35156	no	T	T
634.4179688	n/a	162411	responseSmallT	correct	n/a	0.35156	no	n/a	n/a
635.4804688	n/a	162683	largeTSmallH	correct	incongruent	0.43359	no	T	H
635.9140625	n/a	162794	responseSmallH	correct	n/a	0.43359	no	n/a	n/a
636.984375	n/a	163068	largeHSmallT	correct	incongruent	0.44141	no	H	T
637.4257812	n/a	163181	responseSmallT	correct	n/a	0.44141	no	n/a	n/a
638.4921875	n/a	163454	largeHSmallT	correct	incongruent	0.47656	no	H	T
638.96875	n/a	163576	responseSmallT	correct	n/a	0.47656	no	n/a	n/a
640.0390625	n/a	163850	largeHSmallH	correct	congruent	0.45703	no	H	H
640.4960938	n/a	163967	responseSmallH	correct	n/a	0.45703	no	n/a	n/a
641.5703125	n/a	164242	largeTSmallH	correct	incongruent	0.44531	no	T	H
642.015625	n/a	164356	responseSmallH	correct	n/a	0.44531	no	n/a	n/a
643.078125	n/a	164628	largeHSmallH	correct	congruent	0.45703	no	H	H
643.5351562	n/a	164745	responseSmallH	correct	n/a	0.45703	no	n/a	n/a
644.5976562	n/a	165017	largeHSmallH	correct	congruent	0.43359	no	H	H
645.03125	n/a	165128	responseSmallH	correct	n/a	0.43359	no	n/a	n/a
646.09375	n/a	165400	largeTSmallT	correct	congruent	0.46875	no	T	T
646.5625	n/a	165520	responseSmallT	correct	n/a	0.46875	no	n/a	n/a
647.6367188	n/a	165795	largeTSmallH	correct	incongruent	0.44922	no	T	H
648.0859375	n/a	165910	responseSmallH	correct	n/a	0.44922	no	n/a	n/a
649.1601562	n/a	166185	largeTSmallH	correct	incongruent	0.49219	no	T	H
649.6523438	n/a	166311	responseSmallH	correct	n/a	0.49219	no	n/a	n/a
650.703125	n/a	166580	largeTSmallH	correct	incongruent	0.41797	no	T	H
651.1210938	n/a	166687	responseSmallH	correct	n/a	0.41797	no	n/a	n/a
652.1835938	n/a	166959	largeTSmallH	correct	incongruent	0.47266	no	T	H
652.65625	n/a	167080	responseSmallH	correct	n/a	0.47266	no	n/a	n/a
653.71875	n/a	167352	largeTSmallT	error	congruent	0.47266	no	T	T
654.1914062	n/a	167473	responseSmallH	error	n/a	0.47266	no	n/a	n/a
655.265625	n/a	167748	largeTSmallT	correct	congruent	0.45703	no	T	T
655.7226562	n/a	167865	responseSmallT	correct	n/a	0.45703	no	n/a	n/a
656.796875	n/a	168140	largeTSmallH	correct	incongruent	0.61719	no	T	H
657.4140625	n/a	168298	responseSmallH	correct	n/a	0.61719	no	n/a	n/a
658.4765625	n/a	168570	largeTSmallT	correct	congruent	0.38672	no	T	T
658.8632812	n/a	168669	responseSmallT	correct	n/a	0.38672	no	n/a	n/a
659.9296875	n/a	168942	largeHSmallH	correct	congruent	0.54297	no	H	H
660.4726562	n/a	169081	responseSmallH	correct	n/a	0.54297	no	n/a	n/a
661.53125	n/a	169352	largeTSmallT	correct	congruent	0.46094	no	T	T
661.9921875	n/a	169470	responseSmallT	correct	n/a	0.46094	no	n/a	n/a
663.0664062	n/a	169745	largeTSmallH	correct	incongruent	0.45703	no	T	H
663.5234375	n/a	169862	responseSmallH	correct	n/a	0.45703	no	n/a	n/a
671.0898438	n/a	171799	largeTSmallH	correct	incongruent	1.4648	no	T	H
672.5546875	n/a	172174	responseLargeT	correct	n/a	1.4648	no	n/a	n/a
673.625	n/a	172448	largeHSmallH	correct	congruent	0.42188	no	H	H
674.046875	n/a	172556	responseLargeH	correct	n/a	0.42188	no	n/a	n/a
675.1054688	n/a	172827	largeHSmallT	correct	incongruent	0.50781	no	H	T
675.6132812	n/a	172957	responseLargeH	correct	n/a	0.50781	no	n/a	n/a
676.6914062	n/a	173233	largeHSmallT	correct	incongruent	0.4375	no	H	T
677.1289062	n/a	173345	responseLargeH	correct	n/a	0.4375	no	n/a	n/a
678.1992188	n/a	173619	largeTSmallH	correct	incongruent	0.47266	no	T	H
678.671875	n/a	173740	responseLargeT	correct	n/a	0.47266	no	n/a	n/a
679.7460938	n/a	174015	largeHSmallT	correct	incongruent	0.48047	no	H	T
680.2265625	n/a	174138	responseLargeH	correct	n/a	0.48047	no	n/a	n/a
681.3046875	n/a	174414	largeHSmallH	correct	congruent	0.39453	no	H	H
681.6992188	n/a	174515	responseLargeH	correct	n/a	0.39453	no	n/a	n/a
682.7695312	n/a	174789	largeTSmallT	correct	congruent	0.47266	no	T	T
683.2421875	n/a	174910	responseLargeT	correct	n/a	0.47266	no	n/a	n/a
684.3164062	n/a	175185	largeTSmallT	correct	congruent	0.52344	no	T	T
684.8398438	n/a	175319	responseLargeT	correct	n/a	0.52344	no	n/a	n/a
685.9023438	n/a	175591	largeTSmallH	correct	incongruent	0.46484	no	T	H
686.3671875	n/a	175710	responseLargeT	correct	n/a	0.46484	no	n/a	n/a
687.4375	n/a	175984	largeHSmallT	correct	incongruent	0.55859	no	H	T
687.9960938	n/a	176127	responseLargeH	correct	n/a	0.55859	no	n/a	n/a
689.0507812	n/a	176397	largeHSmallT	correct	incongruent	0.52734	no	H	T
689.578125	n/a	176532	responseLargeH	correct	n/a	0.52734	no	n/a	n/a
690.6523438	n/a	176807	largeHSmallT	correct	incongruent	0.38672	no	H	T
691.0390625	n/a	176906	responseLargeH	correct	n/a	0.38672	no	n/a	n/a
692.1171875	n/a	177182	largeTSmallT	correct	congruent	0.51172	no	T	T
692.6289062	n/a	177313	responseLargeT	correct	n/a	0.51172	no	n/a	n/a
693.6914062	n/a	177585	largeTSmallT	correct	congruent	0.46484	no	T	T
694.15625	n/a	177704	responseLargeT	correct	n/a	0.46484	no	n/a	n/a
695.2226562	n/a	177977	largeTSmallT	correct	congruent	0.38281	no	T	T
695.6054688	n/a	178075	responseLargeT	correct	n/a	0.38281	no	n/a	n/a
696.6640625	n/a	178346	largeTSmallT	correct	congruent	0.37109	no	T	T
697.0351562	n/a	178441	responseLargeT	correct	n/a	0.37109	no	n/a	n/a
698.1054688	n/a	178715	largeHSmallH	correct	congruent	0.58594	no	H	H
698.6914062	n/a	178865	responseLargeH	correct	n/a	0.58594	no	n/a	n/a
699.7578125	n/a	179138	largeTSmallH	correct	incongruent	0.44922	no	T	H
700.2070312	n/a	179253	responseLargeT	correct	n/a	0.44922	no	n/a	n/a
701.2773438	n/a	179527	largeHSmallT	correct	incongruent	0.39062	no	H	T
701.6679688	n/a	179627	responseLargeH	correct	n/a	0.39062	no	n/a	n/a
702.7304688	n/a	179899	largeTSmallH	correct	incongruent	0.36719	no	T	H
703.0976562	n/a	179993	responseLargeT	correct	n/a	0.36719	no	n/a	n/a
704.171875	n/a	180268	largeTSmallH	error	incongruent	0.39062	no	T	H
704.5625	n/a	180368	responseLargeH	error	n/a	0.39062	no	n/a	n/a
705.625	n/a	180640	largeHSmallT	correct	incongruent	0.59375	no	H	T
706.21875	n/a	180792	responseLargeH	correct	n/a	0.59375	no	n/a	n/a
707.2890625	n/a	181066	largeHSmallH	correct	congruent	0.52344	no	H	H
707.8125	n/a	181200	responseLargeH	correct	n/a	0.52344	no	n/a	n/a
708.890625	n/a	181476	largeHSmallH	correct	congruent	0.53906	no	H	H
709.4296875	n/a	181614	responseLargeH	correct	n/a	0.53906	no	n/a	n/a
710.5039062	n/a	181889	largeHSmallT	correct	incongruent	0.42578	no	H	T
710.9296875	n/a	181998	responseLargeH	correct	n/a	0.42578	no	n/a	n/a
712.0117188	n/a	182275	largeTSmallH	correct	incongruent	0.55859	no	T	H
712.5703125	n/a	182418	responseLargeT	correct	n/a	0.55859	no	n/a	n/a
713.6367188	n/a	182691	largeTSmallT	correct	congruent	0.42578	no	T	T
714.0625	n/a	182800	responseLargeT	correct	n/a	0.42578	no	n/a	n/a
715.1445312	n/a	183077	largeTSmallT	correct	congruent	0.38672	no	T	T
715.53125	n/a	183176	responseLargeT	correct	n/a	0.38672	no	n/a	n/a
716.609375	n/a	183452	largeTSmallH	correct	incongruent	0.34375	no	T	H
716.953125	n/a	183540	responseLargeT	correct	n/a	0.34375	no	n/a	n/a
718.0234375	n/a	183814	largeTSmallH	correct	incongruent	0.45312	no	T	H
718.4765625	n/a	183930	responseLargeT	correct	n/a	0.45312	no	n/a	n/a
719.5429688	n/a	184203	largeHSmallH	correct	congruent	0.52344	no	H	H
720.0664062	n/a	184337	responseLargeH	correct	n/a	0.52344	no	n/a	n/a
721.1289062	n/a	184609	largeTSmallH	correct	incongruent	0.51562	no	T	H
721.6445312	n/a	184741	responseLargeT	correct	n/a	0.51562	no	n/a	n/a
722.703125	n/a	185012	largeHSmallH	correct	congruent	0.37891	no	H	H
723.0820312	n/a	185109	responseLargeH	correct	n/a	0.37891	no	n/a	n/a
724.15625	n/a	185384	largeHSmallT	correct	incongruent	0.40625	no	H	T
724.5625	n/a	185488	responseLargeH	correct	n/a	0.40625	no	n/a	n/a
725.625	n/a	185760	largeHSmallT	correct	incongruent	0.58594	no	H	T
726.2109375	n/a	185910	responseLargeH	correct	n/a	0.58594	no	n/a	n/a
727.2773438	n/a	186183	largeHSmallT	correct	incongruent	0.40625	no	H	T
727.6835938	n/a	186287	responseLargeH	correct	n/a	0.40625	no	n/a	n/a
728.7421875	n/a	186558	largeTSmallH	correct	incongruent	0.56641	no	T	H
729.3085938	n/a	186703	responseLargeT	correct	n/a	0.56641	no	n/a	n/a
730.3828125	n/a	186978	largeTSmallT	correct	congruent	0.43359	no	T	T
730.8164062	n/a	187089	responseLargeT	correct	n/a	0.43359	no	n/a	n/a
731.875	n/a	187360	largeTSmallH	correct	incongruent	0.33984	no	T	H
732.2148438	n/a	187447	responseLargeT	correct	n/a	0.33984	no	n/a	n/a
733.2890625	n/a	187722	largeTSmallT	correct	congruent	0.34766	no	T	T
733.6367188	n/a	187811	responseLargeT	correct	n/a	0.34766	no	n/a	n/a
734.703125	n/a	188084	largeTSmallT	correct	congruent	0.45703	no	T	T
735.1601562	n/a	188201	responseLargeT	correct	n/a	0.45703	no	n/a	n/a
736.2382812	n/a	188477	largeTSmallH	correct	incongruent	0.52734	no	T	H
736.765625	n/a	188612	responseLargeT	correct	n/a	0.52734	no	n/a	n/a
737.8359375	n/a	188886	largeTSmallT	correct	congruent	0.50391	no	T	T
738.3398438	n/a	189015	responseLargeT	correct	n/a	0.50391	no	n/a	n/a
739.4101562	n/a	189289	largeTSmallT	correct	congruent	0.41797	no	T	T
739.828125	n/a	189396	responseLargeT	correct	n/a	0.41797	no	n/a	n/a
740.890625	n/a	189668	largeTSmallH	correct	incongruent	0.46875	no	T	H
741.359375	n/a	189788	responseLargeT	correct	n/a	0.46875	no	n/a	n/a
742.421875	n/a	190060	largeHSmallT	correct	incongruent	0.38672	no	H	T
742.8085938	n/a	190159	responseLargeH	correct	n/a	0.38672	no	n/a	n/a
743.875	n/a	190432	largeTSmallH	correct	incongruent	0.46484	no	T	H
744.3398438	n/a	190551	responseLargeT	correct	n/a	0.46484	no	n/a	n/a
745.3984375	n/a	190822	largeHSmallT	correct	incongruent	0.44922	no	H	T
745.8476562	n/a	190937	responseLargeH	correct	n/a	0.44922	no	n/a	n/a
746.9179688	n/a	191211	largeHSmallT	correct	incongruent	0.41016	no	H	T
747.328125	n/a	191316	responseLargeH	correct	n/a	0.41016	no	n/a	n/a
748.3945312	n/a	191589	largeTSmallT	correct	congruent	0.59766	no	T	T
748.9921875	n/a	191742	responseLargeT	correct	n/a	0.59766	no	n/a	n/a
750.0625	n/a	192016	largeTSmallH	correct	incongruent	0.39062	no	T	H
750.453125	n/a	192116	responseLargeT	correct	n/a	0.39062	no	n/a	n/a
751.515625	n/a	192388	largeHSmallT	correct	incongruent	0.48047	no	H	T
751.9960938	n/a	192511	responseLargeH	correct	n/a	0.48047	no	n/a	n/a
753.0625	n/a	192784	largeHSmallH	correct	congruent	0.48438	no	H	H
753.546875	n/a	192908	responseLargeH	correct	n/a	0.48438	no	n/a	n/a
754.609375	n/a	193180	largeHSmallH	correct	congruent	0.42969	no	H	H
755.0390625	n/a	193290	responseLargeH	correct	n/a	0.42969	no	n/a	n/a
756.1015625	n/a	193562	largeHSmallT	correct	incongruent	0.41406	no	H	T
756.515625	n/a	193668	responseLargeH	correct	n/a	0.41406	no	n/a	n/a
757.5820312	n/a	193941	largeTSmallT	correct	congruent	0.51953	no	T	T
758.1015625	n/a	194074	responseLargeT	correct	n/a	0.51953	no	n/a	n/a
759.15625	n/a	194344	largeTSmallH	correct	incongruent	0.37109	no	T	H
759.5273438	n/a	194439	responseLargeT	correct	n/a	0.37109	no	n/a	n/a
760.5976562	n/a	194713	largeTSmallH	correct	incongruent	0.48047	no	T	H
761.078125	n/a	194836	responseLargeT	correct	n/a	0.48047	no	n/a	n/a
762.1445312	n/a	195109	largeTSmallT	correct	congruent	0.36719	no	T	T
762.5117188	n/a	195203	responseLargeT	correct	n/a	0.36719	no	n/a	n/a
763.5820312	n/a	195477	largeTSmallT	correct	congruent	0.37891	no	T	T
763.9609375	n/a	195574	responseLargeT	correct	n/a	0.37891	no	n/a	n/a
765.0234375	n/a	195846	largeHSmallH	correct	congruent	0.46094	no	H	H
765.484375	n/a	195964	responseLargeH	correct	n/a	0.46094	no	n/a	n/a
766.5546875	n/a	196238	largeHSmallT	correct	incongruent	0.43359	no	H	T
766.9882812	n/a	196349	responseLargeH	correct	n/a	0.43359	no	n/a	n/a
768.0507812	n/a	196621	largeTSmallT	correct	congruent	0.45312	no	T	T
768.5039062	n/a	196737	responseLargeT	correct	n/a	0.45312	no	n/a	n/a
769.5703125	n/a	197010	largeTSmallH	correct	incongruent	0.53125	no	T	H
770.1015625	n/a	197146	responseLargeT	correct	n/a	0.53125	no	n/a	n/a
771.1679688	n/a	197419	largeTSmallT	correct	congruent	0.39062	no	T	T
771.5585938	n/a	197519	responseLargeT	correct	n/a	0.39062	no	n/a	n/a
772.6210938	n/a	197791	largeTSmallT	correct	congruent	0.35938	no	T	T
772.9804688	n/a	197883	responseLargeT	correct	n/a	0.35938	no	n/a	n/a
774.0507812	n/a	198157	largeHSmallH	correct	congruent	0.47656	no	H	H
774.5273438	n/a	198279	responseLargeH	correct	n/a	0.47656	no	n/a	n/a
775.5976562	n/a	198553	largeHSmallH	correct	congruent	0.40625	no	H	H
776.0039062	n/a	198657	responseLargeH	correct	n/a	0.40625	no	n/a	n/a
777.0742188	n/a	198931	largeHSmallT	correct	incongruent	0.39453	no	H	T
777.46875	n/a	199032	responseLargeH	correct	n/a	0.39453	no	n/a	n/a
778.5429688	n/a	199307	largeTSmallT	correct	congruent	0.48438	no	T	T
779.0273438	n/a	199431	responseLargeT	correct	n/a	0.48438	no	n/a	n/a
780.1015625	n/a	199706	largeHSmallH	correct	congruent	0.44922	no	H	H
780.5507812	n/a	199821	responseLargeH	correct	n/a	0.44922	no	n/a	n/a
781.609375	n/a	200092	largeTSmallT	correct	congruent	0.53125	no	T	T
782.140625	n/a	200228	responseLargeT	correct	n/a	0.53125	no	n/a	n/a
783.2070312	n/a	200501	largeTSmallH	correct	incongruent	0.50391	no	T	H
783.7109375	n/a	200630	responseLargeT	correct	n/a	0.50391	no	n/a	n/a
784.78125	n/a	200904	largeHSmallT	correct	incongruent	0.44922	no	H	T
785.2304688	n/a	201019	responseLargeH	correct	n/a	0.44922	no	n/a	n/a
786.2890625	n/a	201290	largeTSmallH	correct	incongruent	0.36328	no	T	H
786.6523438	n/a	201383	responseLargeT	correct	n/a	0.36328	no	n/a	n/a
787.7304688	n/a	201659	largeTSmallH	correct	incongruent	0.42578	no	T	H
788.15625	n/a	201768	responseLargeT	correct	n/a	0.42578	no	n/a	n/a
789.2226562	n/a	202041	largeHSmallH	correct	congruent	0.58594	no	H	H
789.8085938	n/a	202191	responseLargeH	correct	n/a	0.58594	no	n/a	n/a
790.875	n/a	202464	largeHSmallT	error	incongruent	0.26562	no	H	T
791.140625	n/a	202532	responseLargeT	error	n/a	0.26562	no	n/a	n/a
792.2070312	n/a	202805	largeTSmallT	correct	congruent	0.91797	no	T	T
793.125	n/a	203040	responseLargeT	correct	n/a	0.91797	no	n/a	n/a
794.2070312	n/a	203317	largeTSmallH	correct	incongruent	0.60938	no	T	H
794.8164062	n/a	203473	responseLargeT	correct	n/a	0.60938	no	n/a	n/a
795.890625	n/a	203748	largeHSmallH	correct	congruent	0.48047	no	H	H
796.3710938	n/a	203871	responseLargeH	correct	n/a	0.48047	no	n/a	n/a
797.4492188	n/a	204147	largeTSmallT	correct	congruent	0.53906	no	T	T
797.9882812	n/a	204285	responseLargeT	correct	n/a	0.53906	no	n/a	n/a
799.046875	n/a	204556	largeTSmallT	correct	congruent	0.41016	no	T	T
799.4570312	n/a	204661	responseLargeT	correct	n/a	0.41016	no	n/a	n/a
800.515625	n/a	204932	largeTSmallH	correct	incongruent	0.40234	no	T	H
800.9179688	n/a	205035	responseLargeT	correct	n/a	0.40234	no	n/a	n/a
801.9804688	n/a	205307	largeHSmallT	correct	incongruent	0.875	no	H	T
802.8554688	n/a	205531	responseLargeH	correct	n/a	0.875	no	n/a	n/a
803.9140625	n/a	205802	largeTSmallT	correct	congruent	0.51172	no	T	T
804.4257812	n/a	205933	responseLargeT	correct	n/a	0.51172	no	n/a	n/a
805.4882812	n/a	206205	largeTSmallT	correct	congruent	0.36719	no	T	T
805.8554688	n/a	206299	responseLargeT	correct	n/a	0.36719	no	n/a	n/a
806.9296875	n/a	206574	largeTSmallT	correct	congruent	0.40625	no	T	T
807.3359375	n/a	206678	responseLargeT	correct	n/a	0.40625	no	n/a	n/a
808.3945312	n/a	206949	largeTSmallT	correct	congruent	0.37891	no	T	T
808.7734375	n/a	207046	responseLargeT	correct	n/a	0.37891	no	n/a	n/a
809.8476562	n/a	207321	largeHSmallH	correct	congruent	0.53516	no	H	H
810.3828125	n/a	207458	responseLargeH	correct	n/a	0.53516	no	n/a	n/a
811.4609375	n/a	207734	largeHSmallH	correct	congruent	0.44531	no	H	H
811.90625	n/a	207848	responseLargeH	correct	n/a	0.44531	no	n/a	n/a
812.96875	n/a	208120	largeHSmallH	correct	congruent	0.41797	no	H	H
813.3867188	n/a	208227	responseLargeH	correct	n/a	0.41797	no	n/a	n/a
814.4492188	n/a	208499	largeTSmallT	correct	congruent	0.45312	no	T	T
814.9023438	n/a	208615	responseLargeT	correct	n/a	0.45312	no	n/a	n/a
815.9804688	n/a	208891	largeHSmallT	correct	incongruent	0.34766	no	H	T
816.328125	n/a	208980	responseLargeH	correct	n/a	0.34766	no	n/a	n/a
817.3945312	n/a	209253	largeHSmallT	correct	incongruent	0.5	no	H	T
817.8945312	n/a	209381	responseLargeH	correct	n/a	0.5	no	n/a	n/a
818.953125	n/a	209652	largeTSmallH	correct	incongruent	0.42969	no	T	H
819.3828125	n/a	209762	responseLargeT	correct	n/a	0.42969	no	n/a	n/a
820.4609375	n/a	210038	largeTSmallT	correct	congruent	0.42578	no	T	T
820.8867188	n/a	210147	responseLargeT	correct	n/a	0.42578	no	n/a	n/a
821.953125	n/a	210420	largeTSmallT	correct	congruent	0.46094	no	T	T
822.4140625	n/a	210538	responseLargeT	correct	n/a	0.46094	no	n/a	n/a
823.4882812	n/a	210813	largeTSmallT	correct	congruent	0.36719	no	T	T
823.8554688	n/a	210907	responseLargeT	correct	n/a	0.36719	no	n/a	n/a
824.9140625	n/a	211178	largeTSmallH	correct	incongruent	0.42188	no	T	H
825.3359375	n/a	211286	responseLargeT	correct	n/a	0.42188	no	n/a	n/a
826.3945312	n/a	211557	largeHSmallT	error	incongruent	0.3125	no	H	T
826.7070312	n/a	211637	responseLargeT	error	n/a	0.3125	no	n/a	n/a
827.7695312	n/a	211909	largeTSmallH	error	incongruent	0.45703	no	T	H
828.2265625	n/a	212026	responseLargeH	error	n/a	0.45703	no	n/a	n/a
829.3007812	n/a	212301	largeHSmallH	correct	congruent	0.50781	no	H	H
829.8085938	n/a	212431	responseLargeH	correct	n/a	0.50781	no	n/a	n/a
830.875	n/a	212704	largeTSmallT	correct	congruent	0.50781	no	T	T
831.3828125	n/a	212834	responseLargeT	correct	n/a	0.50781	no	n/a	n/a
832.4492188	n/a	213107	largeTSmallH	correct	incongruent	0.35547	no	T	H
832.8046875	n/a	213198	responseLargeT	correct	n/a	0.35547	no	n/a	n/a
833.875	n/a	213472	largeHSmallT	correct	incongruent	0.47656	no	H	T
834.3515625	n/a	213594	responseLargeH	correct	n/a	0.47656	no	n/a	n/a
835.421875	n/a	213868	largeTSmallT	correct	congruent	0.47266	no	T	T
835.8945312	n/a	213989	responseLargeT	correct	n/a	0.47266	no	n/a	n/a
836.953125	n/a	214260	largeTSmallH	correct	incongruent	0.44531	no	T	H
837.3984375	n/a	214374	responseLargeT	correct	n/a	0.44531	no	n/a	n/a
838.4726562	n/a	214649	largeTSmallH	correct	incongruent	0.36328	no	T	H
838.8359375	n/a	214742	responseLargeT	correct	n/a	0.36328	no	n/a	n/a
839.9023438	n/a	215015	largeTSmallH	correct	incongruent	0.39062	no	T	H
840.2929688	n/a	215115	responseLargeT	correct	n/a	0.39062	no	n/a	n/a
841.3554688	n/a	215387	largeTSmallT	correct	congruent	0.36328	no	T	T
841.71875	n/a	215480	responseLargeT	correct	n/a	0.36328	no	n/a	n/a
842.7929688	n/a	215755	largeHSmallH	error	congruent	0.35938	no	H	H
843.1523438	n/a	215847	responseLargeT	error	n/a	0.35938	no	n/a	n/a
844.2226562	n/a	216121	largeTSmallH	correct	incongruent	0.51172	no	T	H
844.734375	n/a	216252	responseLargeT	correct	n/a	0.51172	no	n/a	n/a
845.8085938	n/a	216527	largeHSmallT	correct	incongruent	0.67188	no	H	T
846.4804688	n/a	216699	responseLargeH	correct	n/a	0.67188	no	n/a	n/a
847.5546875	n/a	216974	largeTSmallH	correct	incongruent	0.4375	no	T	H
847.9921875	n/a	217086	responseLargeT	correct	n/a	0.4375	no	n/a	n/a
849.0625	n/a	217360	largeHSmallT	correct	incongruent	0.58984	no	H	T
849.6523438	n/a	217511	responseLargeH	correct	n/a	0.58984	no	n/a	n/a
850.7148438	n/a	217783	largeHSmallH	correct	congruent	0.46875	no	H	H
851.1835938	n/a	217903	responseLargeH	correct	n/a	0.46875	no	n/a	n/a
852.2460938	n/a	218175	largeHSmallH	correct	congruent	0.44922	no	H	H
852.6953125	n/a	218290	responseLargeH	correct	n/a	0.44922	no	n/a	n/a
853.7539062	n/a	218561	largeHSmallH	correct	congruent	0.42188	no	H	H
854.1757812	n/a	218669	responseLargeH	correct	n/a	0.42188	no	n/a	n/a
855.2460938	n/a	218943	largeHSmallT	correct	incongruent	0.42969	no	H	T
855.6757812	n/a	219053	responseLargeH	correct	n/a	0.42969	no	n/a	n/a
856.7421875	n/a	219326	largeTSmallT	correct	congruent	0.44531	no	T	T
857.1875	n/a	219440	responseLargeT	correct	n/a	0.44531	no	n/a	n/a
858.2617188	n/a	219715	largeTSmallH	correct	incongruent	0.41016	no	T	H
858.671875	n/a	219820	responseLargeT	correct	n/a	0.41016	no	n/a	n/a
859.7421875	n/a	220094	largeHSmallT	correct	incongruent	0.53906	no	H	T
860.28125	n/a	220232	responseLargeH	correct	n/a	0.53906	no	n/a	n/a
861.3398438	n/a	220503	largeHSmallT	correct	incongruent	0.48047	no	H	T
861.8203125	n/a	220626	responseLargeH	correct	n/a	0.48047	no	n/a	n/a
862.8867188	n/a	220899	largeHSmallT	correct	incongruent	0.48828	no	H	T
863.375	n/a	221024	responseLargeH	correct	n/a	0.48828	no	n/a	n/a
864.4453125	n/a	221298	largeHSmallT	correct	incongruent	0.35938	no	H	T
864.8046875	n/a	221390	responseLargeH	correct	n/a	0.35938	no	n/a	n/a
865.859375	n/a	221660	largeHSmallT	correct	incongruent	0.37891	no	H	T
866.2382812	n/a	221757	responseLargeH	correct	n/a	0.37891	no	n/a	n/a
867.3007812	n/a	222029	largeHSmallH	correct	congruent	0.37109	no	H	H
867.671875	n/a	222124	responseLargeH	correct	n/a	0.37109	no	n/a	n/a
868.7421875	n/a	222398	largeHSmallH	correct	congruent	0.43359	no	H	H
869.1757812	n/a	222509	responseLargeH	correct	n/a	0.43359	no	n/a	n/a
870.2460938	n/a	222783	largeTSmallT	correct	congruent	0.67969	no	T	T
870.9257812	n/a	222957	responseLargeT	correct	n/a	0.67969	no	n/a	n/a
871.9921875	n/a	223230	largeTSmallH	correct	incongruent	0.35938	no	T	H
872.3515625	n/a	223322	responseLargeT	correct	n/a	0.35938	no	n/a	n/a
873.421875	n/a	223596	largeHSmallH	correct	congruent	0.50391	no	H	H
873.9257812	n/a	223725	responseLargeH	correct	n/a	0.50391	no	n/a	n/a
874.9921875	n/a	223998	largeTSmallT	correct	congruent	0.35938	no	T	T
875.3515625	n/a	224090	responseLargeT	correct	n/a	0.35938	no	n/a	n/a
876.40625	n/a	224360	largeTSmallT	correct	congruent	0.375	no	T	T
876.78125	n/a	224456	responseLargeT	correct	n/a	0.375	no	n/a	n/a
877.8476562	n/a	224729	largeHSmallH	correct	congruent	0.44141	no	H	H
878.2890625	n/a	224842	responseLargeH	correct	n/a	0.44141	no	n/a	n/a
879.3671875	n/a	225118	largeTSmallH	correct	incongruent	0.43359	no	T	H
879.8007812	n/a	225229	responseLargeT	correct	n/a	0.43359	no	n/a	n/a
880.875	n/a	225504	largeHSmallH	correct	congruent	0.35547	no	H	H
881.2304688	n/a	225595	responseLargeH	correct	n/a	0.35547	no	n/a	n/a
882.3007812	n/a	225869	largeHSmallH	correct	congruent	0.48438	no	H	H
882.7851562	n/a	225993	responseLargeH	correct	n/a	0.48438	no	n/a	n/a
883.859375	n/a	226268	largeTSmallH	correct	incongruent	0.61328	no	T	H
884.4726562	n/a	226425	responseLargeT	correct	n/a	0.61328	no	n/a	n/a
885.5390625	n/a	226698	largeHSmallH	correct	congruent	0.36328	no	H	H
885.9023438	n/a	226791	responseLargeH	correct	n/a	0.36328	no	n/a	n/a
886.9648438	n/a	227063	largeTSmallT	correct	congruent	0.49219	no	T	T
887.4570312	n/a	227189	responseLargeT	correct	n/a	0.49219	no	n/a	n/a
888.5117188	n/a	227459	largeTSmallT	correct	congruent	0.39062	no	T	T
888.9023438	n/a	227559	responseLargeT	correct	n/a	0.39062	no	n/a	n/a
889.9648438	n/a	227831	largeTSmallH	correct	incongruent	0.46484	no	T	H
890.4296875	n/a	227950	responseLargeT	correct	n/a	0.46484	no	n/a	n/a
891.5	n/a	228224	largeHSmallH	correct	congruent	0.61328	no	H	H
892.1132812	n/a	228381	responseLargeH	correct	n/a	0.61328	no	n/a	n/a
893.1796875	n/a	228654	largeHSmallT	correct	incongruent	0.47266	no	H	T
893.6523438	n/a	228775	responseLargeH	correct	n/a	0.47266	no	n/a	n/a
894.7265625	n/a	229050	largeHSmallH	correct	congruent	0.38281	no	H	H
895.109375	n/a	229148	responseLargeH	correct	n/a	0.38281	no	n/a	n/a
896.1796875	n/a	229422	largeHSmallT	correct	incongruent	0.40234	no	H	T
896.5820312	n/a	229525	responseLargeH	correct	n/a	0.40234	no	n/a	n/a
897.6484375	n/a	229798	largeTSmallT	correct	congruent	0.47266	no	T	T
898.1210938	n/a	229919	responseLargeT	correct	n/a	0.47266	no	n/a	n/a
899.1914062	n/a	230193	largeHSmallH	correct	congruent	0.53125	no	H	H
899.7226562	n/a	230329	responseLargeH	correct	n/a	0.53125	no	n/a	n/a
900.7929688	n/a	230603	largeTSmallH	correct	incongruent	0.52344	no	T	H
901.3164062	n/a	230737	responseLargeT	correct	n/a	0.52344	no	n/a	n/a
902.3945312	n/a	231013	largeHSmallH	correct	congruent	0.42969	no	H	H
902.8242188	n/a	231123	responseLargeH	correct	n/a	0.42969	no	n/a	n/a
903.8867188	n/a	231395	largeTSmallH	correct	incongruent	0.55469	no	T	H
904.4414062	n/a	231537	responseLargeT	correct	n/a	0.55469	no	n/a	n/a
905.5117188	n/a	231811	largeTSmallH	correct	incongruent	0.45312	no	T	H
905.9648438	n/a	231927	responseLargeT	correct	n/a	0.45312	no	n/a	n/a
907.03125	n/a	232200	largeTSmallT	correct	congruent	0.45703	no	T	T
907.4882812	n/a	232317	responseLargeT	correct	n/a	0.45703	no	n/a	n/a
908.5546875	n/a	232590	largeHSmallH	correct	congruent	0.57031	no	H	H
909.125	n/a	232736	responseLargeH	correct	n/a	0.57031	no	n/a	n/a
910.1914062	n/a	233009	largeHSmallT	correct	incongruent	0.44141	no	H	T
910.6328125	n/a	233122	responseLargeH	correct	n/a	0.44141	no	n/a	n/a
911.6992188	n/a	233395	largeHSmallT	correct	incongruent	0.46484	no	H	T
912.1640625	n/a	233514	responseLargeH	correct	n/a	0.46484	no	n/a	n/a
913.234375	n/a	233788	largeTSmallT	correct	congruent	0.4375	no	T	T
913.671875	n/a	233900	responseLargeT	correct	n/a	0.4375	no	n/a	n/a
914.7382812	n/a	234173	largeHSmallH	correct	congruent	0.46875	no	H	H
915.2070312	n/a	234293	responseLargeH	correct	n/a	0.46875	no	n/a	n/a
916.2734375	n/a	234566	largeHSmallT	error	incongruent	0.36328	no	H	T
916.6367188	n/a	234659	responseLargeT	error	n/a	0.36328	no	n/a	n/a
917.6992188	n/a	234931	largeHSmallH	correct	congruent	0.43359	no	H	H
918.1328125	n/a	235042	responseLargeH	correct	n/a	0.43359	no	n/a	n/a
919.2070312	n/a	235317	largeTSmallT	correct	congruent	0.46094	no	T	T
919.6679688	n/a	235435	responseLargeT	correct	n/a	0.46094	no	n/a	n/a
920.7265625	n/a	235706	largeHSmallH	correct	congruent	0.58594	no	H	H
921.3125	n/a	235856	responseLargeH	correct	n/a	0.58594	no	n/a	n/a
922.3789062	n/a	236129	largeTSmallH	correct	incongruent	1.2148	no	T	H
923.59375	n/a	236440	responseLargeT	correct	n/a	1.2148	no	n/a	n/a
924.6601562	n/a	236713	largeTSmallT	correct	congruent	0.39062	no	T	T
925.0507812	n/a	236813	responseLargeT	correct	n/a	0.39062	no	n/a	n/a
926.1132812	n/a	237085	largeTSmallH	correct	incongruent	0.51562	no	T	H
926.6289062	n/a	237217	responseLargeT	correct	n/a	0.51562	no	n/a	n/a
927.6875	n/a	237488	largeHSmallT	correct	incongruent	0.52344	no	H	T
928.2109375	n/a	237622	responseLargeH	correct	n/a	0.52344	no	n/a	n/a
929.2851562	n/a	237897	largeHSmallT	correct	incongruent	0.44531	no	H	T
929.7304688	n/a	238011	responseLargeH	correct	n/a	0.44531	no	n/a	n/a
930.7929688	n/a	238283	largeTSmallT	correct	congruent	0.54688	no	T	T
931.3398438	n/a	238423	responseLargeT	correct	n/a	0.54688	no	n/a	n/a
932.40625	n/a	238696	largeHSmallT	correct	incongruent	0.52344	no	H	T
932.9296875	n/a	238830	responseLargeH	correct	n/a	0.52344	no	n/a	n/a
933.9921875	n/a	239102	largeTSmallH	correct	incongruent	0.4375	no	T	H
934.4296875	n/a	239214	responseLargeT	correct	n/a	0.4375	no	n/a	n/a
935.484375	n/a	239484	largeHSmallH	correct	congruent	0.50781	no	H	H
935.9921875	n/a	239614	responseLargeH	correct	n/a	0.50781	no	n/a	n/a
937.0585938	n/a	239887	largeHSmallH	correct	congruent	0.46875	no	H	H
937.5273438	n/a	240007	responseLargeH	correct	n/a	0.46875	no	n/a	n/a
938.59375	n/a	240280	largeTSmallH	correct	incongruent	0.4375	no	T	H
939.03125	n/a	240392	responseLargeT	correct	n/a	0.4375	no	n/a	n/a
940.0859375	n/a	240662	largeHSmallH	correct	congruent	0.52734	no	H	H
940.6132812	n/a	240797	responseLargeH	correct	n/a	0.52734	no	n/a	n/a
941.6875	n/a	241072	largeTSmallT	correct	congruent	0.61328	no	T	T
942.3007812	n/a	241229	responseLargeT	correct	n/a	0.61328	no	n/a	n/a
943.3671875	n/a	241502	largeHSmallH	correct	congruent	0.48438	no	H	H
943.8515625	n/a	241626	responseLargeH	correct	n/a	0.48438	no	n/a	n/a
944.9140625	n/a	241898	largeHSmallH	correct	congruent	0.56641	no	H	H
945.4804688	n/a	242043	responseLargeH	correct	n/a	0.56641	no	n/a	n/a
946.5507812	n/a	242317	largeHSmallH	correct	congruent	0.47656	no	H	H
947.0273438	n/a	242439	responseLargeH	correct	n/a	0.47656	no	n/a	n/a
948.0976562	n/a	242713	largeHSmallH	correct	congruent	0.39453	no	H	H
948.4921875	n/a	242814	responseLargeH	correct	n/a	0.39453	no	n/a	n/a
949.5664062	n/a	243089	largeHSmallH	correct	congruent	0.44141	no	H	H
950.0078125	n/a	243202	responseLargeH	correct	n/a	0.44141	no	n/a	n/a
951.0703125	n/a	243474	largeTSmallH	error	incongruent	0.48047	no	T	H
951.5507812	n/a	243597	responseLargeH	error	n/a	0.48047	no	n/a	n/a
952.6171875	n/a	243870	largeHSmallH	correct	congruent	0.5	no	H	H
953.1171875	n/a	243998	responseLargeH	correct	n/a	0.5	no	n/a	n/a
954.1796875	n/a	244270	largeHSmallH	correct	congruent	0.55078	no	H	H
954.7304688	n/a	244411	responseLargeH	correct	n/a	0.55078	no	n/a	n/a
955.8046875	n/a	244686	largeHSmallH	correct	congruent	0.44141	no	H	H
956.2460938	n/a	244799	responseLargeH	correct	n/a	0.44141	no	n/a	n/a
957.3125	n/a	245072	largeHSmallH	correct	congruent	0.375	no	H	H
957.6875	n/a	245168	responseLargeH	correct	n/a	0.375	no	n/a	n/a
958.75	n/a	245440	largeTSmallT	correct	congruent	0.63281	no	T	T
959.3828125	n/a	245602	responseLargeT	correct	n/a	0.63281	no	n/a	n/a
960.4453125	n/a	245874	largeHSmallT	correct	incongruent	0.45312	no	H	T
960.8984375	n/a	245990	responseLargeH	correct	n/a	0.45312	no	n/a	n/a
961.9648438	n/a	246263	largeHSmallT	correct	incongruent	0.44141	no	H	T
962.40625	n/a	246376	responseLargeH	correct	n/a	0.44141	no	n/a	n/a
963.4726562	n/a	246649	largeTSmallH	correct	incongruent	0.41016	no	T	H
963.8828125	n/a	246754	responseLargeT	correct	n/a	0.41016	no	n/a	n/a
964.9375	n/a	247024	largeHSmallT	correct	incongruent	0.61328	no	H	T
965.5507812	n/a	247181	responseLargeH	correct	n/a	0.61328	no	n/a	n/a
966.6054688	n/a	247451	largeTSmallH	correct	incongruent	0.48438	no	T	H
967.0898438	n/a	247575	responseLargeT	correct	n/a	0.48438	no	n/a	n/a
968.1640625	n/a	247850	largeHSmallT	correct	incongruent	0.45312	no	H	T
968.6171875	n/a	247966	responseLargeH	correct	n/a	0.45312	no	n/a	n/a
969.6835938	n/a	248239	largeHSmallT	correct	incongruent	0.43359	no	H	T
970.1171875	n/a	248350	responseLargeH	correct	n/a	0.43359	no	n/a	n/a
971.1796875	n/a	248622	largeTSmallH	correct	incongruent	0.60938	no	T	H
971.7890625	n/a	248778	responseLargeT	correct	n/a	0.60938	no	n/a	n/a
972.84375	n/a	249048	largeHSmallT	correct	incongruent	0.49609	no	H	T
973.3398438	n/a	249175	responseLargeH	correct	n/a	0.49609	no	n/a	n/a
974.4179688	n/a	249451	largeHSmallT	correct	incongruent	0.40234	no	H	T
974.8203125	n/a	249554	responseLargeH	correct	n/a	0.40234	no	n/a	n/a
975.8984375	n/a	249830	largeTSmallH	correct	incongruent	0.49219	no	T	H
976.390625	n/a	249956	responseLargeT	correct	n/a	0.49219	no	n/a	n/a
977.4570312	n/a	250229	largeHSmallT	correct	incongruent	0.56641	no	H	T
978.0234375	n/a	250374	responseLargeH	correct	n/a	0.56641	no	n/a	n/a
982.1367188	n/a	251427	largeTSmallH	correct	incongruent	0.49219	no	T	H
982.6289062	n/a	251553	responseSmallH	correct	n/a	0.49219	no	n/a	n/a
983.6992188	n/a	251827	largeHSmallH	correct	congruent	0.49609	no	H	H
984.1953125	n/a	251954	responseSmallH	correct	n/a	0.49609	no	n/a	n/a
985.2695312	n/a	252229	largeTSmallH	correct	incongruent	0.41406	no	T	H
985.6835938	n/a	252335	responseSmallH	correct	n/a	0.41406	no	n/a	n/a
986.75	n/a	252608	largeHSmallH	correct	congruent	0.45703	no	H	H
987.2070312	n/a	252725	responseSmallH	correct	n/a	0.45703	no	n/a	n/a
988.2851562	n/a	253001	largeHSmallH	correct	congruent	0.44922	no	H	H
988.734375	n/a	253116	responseSmallH	correct	n/a	0.44922	no	n/a	n/a
989.8046875	n/a	253390	largeTSmallT	correct	congruent	0.48047	no	T	T
990.2851562	n/a	253513	responseSmallT	correct	n/a	0.48047	no	n/a	n/a
991.3515625	n/a	253786	largeTSmallT	correct	congruent	0.38672	no	T	T
991.7382812	n/a	253885	responseSmallT	correct	n/a	0.38672	no	n/a	n/a
992.8046875	n/a	254158	largeTSmallT	correct	congruent	0.35156	no	T	T
993.15625	n/a	254248	responseSmallT	correct	n/a	0.35156	no	n/a	n/a
994.21875	n/a	254520	largeTSmallT	correct	congruent	0.38672	no	T	T
994.6054688	n/a	254619	responseSmallT	correct	n/a	0.38672	no	n/a	n/a
995.671875	n/a	254892	largeTSmallT	correct	congruent	0.44141	no	T	T
996.1132812	n/a	255005	responseSmallT	correct	n/a	0.44141	no	n/a	n/a
997.1796875	n/a	255278	largeHSmallH	correct	congruent	0.48438	no	H	H
997.6640625	n/a	255402	responseSmallH	correct	n/a	0.48438	no	n/a	n/a
998.7382812	n/a	255677	largeTSmallH	correct	incongruent	0.44922	no	T	H
999.1875	n/a	255792	responseSmallH	correct	n/a	0.44922	no	n/a	n/a
1000.257812	n/a	256066	largeTSmallT	correct	congruent	0.46484	no	T	T
1000.722656	n/a	256185	responseSmallT	correct	n/a	0.46484	no	n/a	n/a
1001.789062	n/a	256458	largeTSmallH	correct	incongruent	0.51953	no	T	H
1002.308594	n/a	256591	responseSmallH	correct	n/a	0.51953	no	n/a	n/a
1003.378906	n/a	256865	largeHSmallH	correct	congruent	0.41016	no	H	H
1003.789062	n/a	256970	responseSmallH	correct	n/a	0.41016	no	n/a	n/a
1004.871094	n/a	257247	largeHSmallT	correct	incongruent	0.50781	no	H	T
1005.378906	n/a	257377	responseSmallT	correct	n/a	0.50781	no	n/a	n/a
1006.445312	n/a	257650	largeHSmallT	correct	incongruent	0.39062	no	H	T
1006.835938	n/a	257750	responseSmallT	correct	n/a	0.39062	no	n/a	n/a
1007.910156	n/a	258025	largeHSmallH	correct	congruent	0.45312	no	H	H
1008.363281	n/a	258141	responseSmallH	correct	n/a	0.45312	no	n/a	n/a
1009.429688	n/a	258414	largeHSmallT	error	incongruent	0.37109	no	H	T
1009.800781	n/a	258509	responseSmallH	error	n/a	0.37109	no	n/a	n/a
1010.871094	n/a	258783	largeHSmallH	correct	congruent	0.49609	no	H	H
1011.367188	n/a	258910	responseSmallH	correct	n/a	0.49609	no	n/a	n/a
1012.429688	n/a	259182	largeTSmallT	correct	congruent	0.41797	no	T	T
1012.847656	n/a	259289	responseSmallT	correct	n/a	0.41797	no	n/a	n/a
1013.910156	n/a	259561	largeHSmallH	correct	congruent	0.44922	no	H	H
1014.359375	n/a	259676	responseSmallH	correct	n/a	0.44922	no	n/a	n/a
1015.429688	n/a	259950	largeHSmallT	correct	incongruent	0.42578	no	H	T
1015.855469	n/a	260059	responseSmallT	correct	n/a	0.42578	no	n/a	n/a
1016.925781	n/a	260333	largeTSmallH	correct	incongruent	0.46484	no	T	H
1017.390625	n/a	260452	responseSmallH	correct	n/a	0.46484	no	n/a	n/a
1018.445312	n/a	260722	largeTSmallT	correct	congruent	0.47266	no	T	T
1018.917969	n/a	260843	responseSmallT	correct	n/a	0.47266	no	n/a	n/a
1019.976562	n/a	261114	largeTSmallH	correct	incongruent	0.45312	no	T	H
1020.429688	n/a	261230	responseSmallH	correct	n/a	0.45312	no	n/a	n/a
1021.496094	n/a	261503	largeTSmallH	correct	incongruent	0.37109	no	T	H
1021.867188	n/a	261598	responseSmallH	correct	n/a	0.37109	no	n/a	n/a
1022.925781	n/a	261869	largeHSmallT	correct	incongruent	0.42188	no	H	T
1023.347656	n/a	261977	responseSmallT	correct	n/a	0.42188	no	n/a	n/a
1024.417969	n/a	262251	largeHSmallH	correct	congruent	0.53906	no	H	H
1024.957031	n/a	262389	responseSmallH	correct	n/a	0.53906	no	n/a	n/a
1026.015625	n/a	262660	largeTSmallT	correct	congruent	0.44141	no	T	T
1026.457031	n/a	262773	responseSmallT	correct	n/a	0.44141	no	n/a	n/a
1027.523438	n/a	263046	largeHSmallH	correct	congruent	0.41797	no	H	H
1027.941406	n/a	263153	responseSmallH	correct	n/a	0.41797	no	n/a	n/a
1029.015625	n/a	263428	largeHSmallT	correct	incongruent	0.47266	no	H	T
1029.488281	n/a	263549	responseSmallT	correct	n/a	0.47266	no	n/a	n/a
1030.5625	n/a	263824	largeTSmallT	correct	congruent	0.45312	no	T	T
1031.015625	n/a	263940	responseSmallT	correct	n/a	0.45312	no	n/a	n/a
1032.082031	n/a	264213	largeHSmallT	correct	incongruent	0.45703	no	H	T
1032.539062	n/a	264330	responseSmallT	correct	n/a	0.45703	no	n/a	n/a
1033.605469	n/a	264603	largeTSmallH	correct	incongruent	0.52344	no	T	H
1034.128906	n/a	264737	responseSmallH	correct	n/a	0.52344	no	n/a	n/a
1035.191406	n/a	265009	largeTSmallT	correct	congruent	0.46875	no	T	T
1035.660156	n/a	265129	responseSmallT	correct	n/a	0.46875	no	n/a	n/a
1036.738281	n/a	265405	largeTSmallH	correct	incongruent	0.62109	no	T	H
1037.359375	n/a	265564	responseSmallH	correct	n/a	0.62109	no	n/a	n/a
1038.417969	n/a	265835	largeTSmallT	correct	congruent	0.37109	no	T	T
1038.789062	n/a	265930	responseSmallT	correct	n/a	0.37109	no	n/a	n/a
1039.855469	n/a	266203	largeTSmallT	correct	congruent	0.44922	no	T	T
1040.304688	n/a	266318	responseSmallT	correct	n/a	0.44922	no	n/a	n/a
1041.363281	n/a	266589	largeHSmallH	correct	congruent	0.44922	no	H	H
1041.8125	n/a	266704	responseSmallH	correct	n/a	0.44922	no	n/a	n/a
1042.882812	n/a	266978	largeHSmallT	correct	incongruent	0.69531	no	H	T
1043.578125	n/a	267156	responseSmallT	correct	n/a	0.69531	no	n/a	n/a
1044.644531	n/a	267429	largeHSmallT	correct	incongruent	0.34375	no	H	T
1044.988281	n/a	267517	responseSmallT	correct	n/a	0.34375	no	n/a	n/a
1046.042969	n/a	267787	largeTSmallT	correct	congruent	0.44141	no	T	T
1046.484375	n/a	267900	responseSmallT	correct	n/a	0.44141	no	n/a	n/a
1047.550781	n/a	268173	largeTSmallT	correct	congruent	0.40234	no	T	T
1047.953125	n/a	268276	responseSmallT	correct	n/a	0.40234	no	n/a	n/a
1049.03125	n/a	268552	largeTSmallH	correct	incongruent	0.46875	no	T	H
1049.5	n/a	268672	responseSmallH	correct	n/a	0.46875	no	n/a	n/a
1050.578125	n/a	268948	largeHSmallH	error	congruent	0.48047	no	H	H
1051.058594	n/a	269071	responseSmallT	error	n/a	0.48047	no	n/a	n/a
1052.136719	n/a	269347	largeHSmallT	correct	incongruent	0.51953	no	H	T
1052.65625	n/a	269480	responseSmallT	correct	n/a	0.51953	no	n/a	n/a
1053.722656	n/a	269753	largeTSmallT	correct	congruent	0.5	no	T	T
1054.222656	n/a	269881	responseSmallT	correct	n/a	0.5	no	n/a	n/a
1055.28125	n/a	270152	largeHSmallH	correct	congruent	0.46484	no	H	H
1055.746094	n/a	270271	responseSmallH	correct	n/a	0.46484	no	n/a	n/a
1056.816406	n/a	270545	largeHSmallH	correct	congruent	0.60156	no	H	H
1057.417969	n/a	270699	responseSmallH	correct	n/a	0.60156	no	n/a	n/a
1058.484375	n/a	270972	largeHSmallH	correct	congruent	0.35938	no	H	H
1058.84375	n/a	271064	responseSmallH	correct	n/a	0.35938	no	n/a	n/a
1059.910156	n/a	271337	largeTSmallT	correct	congruent	0.76953	no	T	T
1060.679688	n/a	271534	responseSmallT	correct	n/a	0.76953	no	n/a	n/a
1061.734375	n/a	271804	largeTSmallT	correct	congruent	0.42188	no	T	T
1062.15625	n/a	271912	responseSmallT	correct	n/a	0.42188	no	n/a	n/a
1063.230469	n/a	272187	largeHSmallH	correct	congruent	0.44922	no	H	H
1063.679688	n/a	272302	responseSmallH	correct	n/a	0.44922	no	n/a	n/a
1064.75	n/a	272576	largeHSmallT	correct	incongruent	0.41406	no	H	T
1065.164062	n/a	272682	responseSmallT	correct	n/a	0.41406	no	n/a	n/a
1066.230469	n/a	272955	largeTSmallT	correct	congruent	0.67969	no	T	T
1066.910156	n/a	273129	responseSmallT	correct	n/a	0.67969	no	n/a	n/a
1067.988281	n/a	273405	largeTSmallT	correct	congruent	0.41016	no	T	T
1068.398438	n/a	273510	responseSmallT	correct	n/a	0.41016	no	n/a	n/a
1069.46875	n/a	273784	largeTSmallH	error	incongruent	0.31641	no	T	H
1069.785156	n/a	273865	responseSmallT	error	n/a	0.31641	no	n/a	n/a
1070.855469	n/a	274139	largeHSmallH	correct	congruent	0.41797	no	H	H
1071.273438	n/a	274246	responseSmallH	correct	n/a	0.41797	no	n/a	n/a
1072.335938	n/a	274518	largeHSmallH	correct	congruent	0.39844	no	H	H
1072.734375	n/a	274620	responseSmallH	correct	n/a	0.39844	no	n/a	n/a
1073.804688	n/a	274894	largeHSmallT	correct	incongruent	0.58203	no	H	T
1074.386719	n/a	275043	responseSmallT	correct	n/a	0.58203	no	n/a	n/a
1075.457031	n/a	275317	largeHSmallT	correct	incongruent	0.42578	no	H	T
1075.882812	n/a	275426	responseSmallT	correct	n/a	0.42578	no	n/a	n/a
1076.949219	n/a	275699	largeHSmallT	correct	incongruent	0.40625	no	H	T
1077.355469	n/a	275803	responseSmallT	correct	n/a	0.40625	no	n/a	n/a
1078.417969	n/a	276075	largeHSmallH	correct	congruent	0.50391	no	H	H
1078.921875	n/a	276204	responseSmallH	correct	n/a	0.50391	no	n/a	n/a
1079.988281	n/a	276477	largeHSmallT	correct	incongruent	0.66016	no	H	T
1080.648438	n/a	276646	responseSmallT	correct	n/a	0.66016	no	n/a	n/a
1081.710938	n/a	276918	largeTSmallH	correct	incongruent	0.39453	no	T	H
1082.105469	n/a	277019	responseSmallH	correct	n/a	0.39453	no	n/a	n/a
1083.175781	n/a	277293	largeTSmallT	correct	congruent	0.46875	no	T	T
1083.644531	n/a	277413	responseSmallT	correct	n/a	0.46875	no	n/a	n/a
1084.710938	n/a	277686	largeHSmallT	correct	incongruent	0.47266	no	H	T
1085.183594	n/a	277807	responseSmallT	correct	n/a	0.47266	no	n/a	n/a
1086.253906	n/a	278081	largeHSmallT	correct	incongruent	0.41797	no	H	T
1086.671875	n/a	278188	responseSmallT	correct	n/a	0.41797	no	n/a	n/a
1087.734375	n/a	278460	largeHSmallT	correct	incongruent	0.34375	no	H	T
1088.078125	n/a	278548	responseSmallT	correct	n/a	0.34375	no	n/a	n/a
1089.148438	n/a	278822	largeHSmallT	correct	incongruent	0.34766	no	H	T
1089.496094	n/a	278911	responseSmallT	correct	n/a	0.34766	no	n/a	n/a
1090.574219	n/a	279187	largeTSmallT	correct	congruent	0.40625	no	T	T
1090.980469	n/a	279291	responseSmallT	correct	n/a	0.40625	no	n/a	n/a
1092.054688	n/a	279566	largeHSmallT	error	incongruent	0.42578	no	H	T
1092.480469	n/a	279675	responseSmallH	error	n/a	0.42578	no	n/a	n/a
1093.550781	n/a	279949	largeTSmallT	correct	congruent	0.38672	no	T	T
1093.9375	n/a	280048	responseSmallT	correct	n/a	0.38672	no	n/a	n/a
1095.003906	n/a	280321	largeTSmallT	correct	congruent	0.39453	no	T	T
1095.398438	n/a	280422	responseSmallT	correct	n/a	0.39453	no	n/a	n/a
1096.46875	n/a	280696	largeHSmallH	correct	congruent	0.52344	no	H	H
1096.992188	n/a	280830	responseSmallH	correct	n/a	0.52344	no	n/a	n/a
1098.054688	n/a	281102	largeTSmallH	error	incongruent	0.375	no	T	H
1098.429688	n/a	281198	responseSmallT	error	n/a	0.375	no	n/a	n/a
1099.496094	n/a	281471	largeHSmallH	correct	congruent	0.62109	no	H	H
1100.117188	n/a	281630	responseSmallH	correct	n/a	0.62109	no	n/a	n/a
1101.175781	n/a	281901	largeTSmallT	correct	congruent	0.55469	no	T	T
1101.730469	n/a	282043	responseSmallT	correct	n/a	0.55469	no	n/a	n/a
1102.800781	n/a	282317	largeHSmallT	correct	incongruent	0.87891	no	H	T
1103.679688	n/a	282542	responseSmallT	correct	n/a	0.87891	no	n/a	n/a
1104.75	n/a	282816	largeTSmallH	error	incongruent	0.33984	no	T	H
1105.089844	n/a	282903	responseSmallT	error	n/a	0.33984	no	n/a	n/a
1106.164062	n/a	283178	largeHSmallT	correct	incongruent	0.50781	no	H	T
1106.671875	n/a	283308	responseSmallT	correct	n/a	0.50781	no	n/a	n/a
1107.75	n/a	283584	largeHSmallT	correct	incongruent	0.46484	no	H	T
1108.214844	n/a	283703	responseSmallT	correct	n/a	0.46484	no	n/a	n/a
1109.28125	n/a	283976	largeHSmallH	correct	congruent	0.44531	no	H	H
1109.726562	n/a	284090	responseSmallH	correct	n/a	0.44531	no	n/a	n/a
1110.789062	n/a	284362	largeTSmallT	correct	congruent	0.47656	no	T	T
1111.265625	n/a	284484	responseSmallT	correct	n/a	0.47656	no	n/a	n/a
1112.335938	n/a	284758	largeTSmallH	correct	incongruent	0.59766	no	T	H
1112.933594	n/a	284911	responseSmallH	correct	n/a	0.59766	no	n/a	n/a
1114.003906	n/a	285185	largeHSmallT	correct	incongruent	0.52734	no	H	T
1114.53125	n/a	285320	responseSmallT	correct	n/a	0.52734	no	n/a	n/a
1115.589844	n/a	285591	largeHSmallT	correct	incongruent	0.43359	no	H	T
1116.023438	n/a	285702	responseSmallT	correct	n/a	0.43359	no	n/a	n/a
1117.09375	n/a	285976	largeHSmallH	correct	congruent	0.46875	no	H	H
1117.5625	n/a	286096	responseSmallH	correct	n/a	0.46875	no	n/a	n/a
1118.628906	n/a	286369	largeHSmallH	correct	congruent	0.42578	no	H	H
1119.054688	n/a	286478	responseSmallH	correct	n/a	0.42578	no	n/a	n/a
1120.121094	n/a	286751	largeTSmallT	correct	congruent	0.42188	no	T	T
1120.542969	n/a	286859	responseSmallT	correct	n/a	0.42188	no	n/a	n/a
1121.613281	n/a	287133	largeHSmallT	error	incongruent	0.55078	no	H	T
1122.164062	n/a	287274	responseSmallH	error	n/a	0.55078	no	n/a	n/a
1123.242188	n/a	287550	largeTSmallH	correct	incongruent	0.85547	no	T	H
1124.097656	n/a	287769	responseSmallH	correct	n/a	0.85547	no	n/a	n/a
1125.160156	n/a	288041	largeTSmallT	correct	congruent	0.42578	no	T	T
1125.585938	n/a	288150	responseSmallT	correct	n/a	0.42578	no	n/a	n/a
1126.65625	n/a	288424	largeHSmallH	correct	congruent	1.2227	no	H	H
1127.878906	n/a	288737	responseSmallH	correct	n/a	1.2227	no	n/a	n/a
1128.949219	n/a	289011	largeHSmallH	correct	congruent	0.49609	no	H	H
1129.445312	n/a	289138	responseSmallH	correct	n/a	0.49609	no	n/a	n/a
1130.507812	n/a	289410	largeTSmallH	correct	incongruent	0.43359	no	T	H
1130.941406	n/a	289521	responseSmallH	correct	n/a	0.43359	no	n/a	n/a
1132	n/a	289792	largeHSmallT	correct	incongruent	0.53516	no	H	T
1132.535156	n/a	289929	responseSmallT	correct	n/a	0.53516	no	n/a	n/a
1133.601562	n/a	290202	largeTSmallT	correct	congruent	0.45312	no	T	T
1134.054688	n/a	290318	responseSmallT	correct	n/a	0.45312	no	n/a	n/a
1135.121094	n/a	290591	largeHSmallH	correct	congruent	0.71484	no	H	H
1135.835938	n/a	290774	responseSmallH	correct	n/a	0.71484	no	n/a	n/a
1136.910156	n/a	291049	largeHSmallT	correct	incongruent	0.55859	no	H	T
1137.46875	n/a	291192	responseSmallT	correct	n/a	0.55859	no	n/a	n/a
1138.535156	n/a	291465	largeHSmallT	correct	incongruent	0.37891	no	H	T
1138.914062	n/a	291562	responseSmallT	correct	n/a	0.37891	no	n/a	n/a
1139.976562	n/a	291834	largeHSmallH	error	congruent	0.32422	no	H	H
1140.300781	n/a	291917	responseSmallT	error	n/a	0.32422	no	n/a	n/a
1141.363281	n/a	292189	largeHSmallT	correct	incongruent	0.42188	no	H	T
1141.785156	n/a	292297	responseSmallT	correct	n/a	0.42188	no	n/a	n/a
1142.839844	n/a	292567	largeTSmallT	correct	congruent	0.41797	no	T	T
1143.257812	n/a	292674	responseSmallT	correct	n/a	0.41797	no	n/a	n/a
1144.320312	n/a	292946	largeTSmallT	correct	congruent	0.36328	no	T	T
1144.683594	n/a	293039	responseSmallT	correct	n/a	0.36328	no	n/a	n/a
1145.746094	n/a	293311	largeTSmallT	correct	congruent	0.42578	no	T	T
1146.171875	n/a	293420	responseSmallT	correct	n/a	0.42578	no	n/a	n/a
1147.242188	n/a	293694	largeTSmallH	correct	incongruent	0.43359	no	T	H
1147.675781	n/a	293805	responseSmallH	correct	n/a	0.43359	no	n/a	n/a
1148.746094	n/a	294079	largeHSmallH	correct	congruent	0.4375	no	H	H
1149.183594	n/a	294191	responseSmallH	correct	n/a	0.4375	no	n/a	n/a
1150.253906	n/a	294465	largeTSmallH	correct	incongruent	0.58594	no	T	H
1150.839844	n/a	294615	responseSmallH	correct	n/a	0.58594	no	n/a	n/a
1151.90625	n/a	294888	largeTSmallT	correct	congruent	0.46875	no	T	T
1152.375	n/a	295008	responseSmallT	correct	n/a	0.46875	no	n/a	n/a
1153.441406	n/a	295281	largeTSmallT	correct	congruent	0.43359	no	T	T
1153.875	n/a	295392	responseSmallT	correct	n/a	0.43359	no	n/a	n/a
1154.933594	n/a	295663	largeTSmallH	correct	incongruent	0.57812	no	T	H
1155.511719	n/a	295811	responseSmallH	correct	n/a	0.57812	no	n/a	n/a
1156.574219	n/a	296083	largeTSmallH	correct	incongruent	0.69922	no	T	H
1157.273438	n/a	296262	responseSmallH	correct	n/a	0.69922	no	n/a	n/a
1158.335938	n/a	296534	largeHSmallH	correct	congruent	0.47266	no	H	H
1158.808594	n/a	296655	responseSmallH	correct	n/a	0.47266	no	n/a	n/a
1159.882812	n/a	296930	largeTSmallH	correct	incongruent	0.47266	no	T	H
1160.355469	n/a	297051	responseSmallH	correct	n/a	0.47266	no	n/a	n/a
1161.425781	n/a	297325	largeHSmallT	correct	incongruent	0.59766	no	H	T
1162.023438	n/a	297478	responseSmallT	correct	n/a	0.59766	no	n/a	n/a
1163.09375	n/a	297752	largeTSmallT	correct	congruent	0.36328	no	T	T
1163.457031	n/a	297845	responseSmallT	correct	n/a	0.36328	no	n/a	n/a
1164.535156	n/a	298121	largeTSmallT	correct	congruent	0.34766	no	T	T
1164.882812	n/a	298210	responseSmallT	correct	n/a	0.34766	no	n/a	n/a
1165.949219	n/a	298483	largeTSmallH	correct	incongruent	0.5	no	T	H
1166.449219	n/a	298611	responseSmallH	correct	n/a	0.5	no	n/a	n/a
1167.507812	n/a	298882	largeTSmallH	correct	incongruent	0.40625	no	T	H
1167.914062	n/a	298986	responseSmallH	correct	n/a	0.40625	no	n/a	n/a
1168.972656	n/a	299257	largeTSmallT	correct	congruent	0.42188	no	T	T
1169.394531	n/a	299365	responseSmallT	correct	n/a	0.42188	no	n/a	n/a
1170.453125	n/a	299636	largeHSmallT	correct	incongruent	0.51172	no	H	T
1170.964844	n/a	299767	responseSmallT	correct	n/a	0.51172	no	n/a	n/a
1172.027344	n/a	300039	largeHSmallH	correct	congruent	0.45703	no	H	H
1172.484375	n/a	300156	responseSmallH	correct	n/a	0.45703	no	n/a	n/a
1173.546875	n/a	300428	largeTSmallH	correct	incongruent	0.38672	no	T	H
1173.933594	n/a	300527	responseSmallH	correct	n/a	0.38672	no	n/a	n/a
1175	n/a	300800	largeTSmallT	correct	congruent	0.44922	no	T	T
1175.449219	n/a	300915	responseSmallT	correct	n/a	0.44922	no	n/a	n/a
1176.507812	n/a	301186	largeTSmallH	correct	incongruent	0.43359	no	T	H
1176.941406	n/a	301297	responseSmallH	correct	n/a	0.43359	no	n/a	n/a
1178.015625	n/a	301572	largeHSmallH	correct	congruent	0.48047	no	H	H
1178.496094	n/a	301695	responseSmallH	correct	n/a	0.48047	no	n/a	n/a
1179.574219	n/a	301971	largeHSmallH	correct	congruent	0.47266	no	H	H
