onset	duration	sample	value	response_type	congruence	response_time	response_out_of_range	largeletter	smallletter
16.203125	n/a	4148	largeHSmallH	correct	congruent	2.3359	yes	H	H
18.5390625	n/a	4746	responseLargeH	correct	n/a	2.3359	yes	n/a	n/a
19.62109375	n/a	5023	largeTSmallT	correct	congruent	0.64062	no	T	T
20.26171875	n/a	5187	responseLargeT	correct	n/a	0.64062	no	n/a	n/a
21.328125	n/a	5460	largeTSmallT	correct	congruent	0.53125	no	T	T
21.859375	n/a	5596	responseLargeT	correct	n/a	0.53125	no	n/a	n/a
22.94140625	n/a	5873	largeHSmallH	correct	congruent	0.51562	no	H	H
23.45703125	n/a	6005	responseLargeH	correct	n/a	0.51562	no	n/a	n/a
24.52734375	n/a	6279	largeHSmallT	correct	incongruent	0.44922	no	H	T
24.9765625	n/a	6394	responseLargeH	correct	n/a	0.44922	no	n/a	n/a
26.03515625	n/a	6665	largeTSmallH	correct	incongruent	0.44141	no	T	H
26.4765625	n/a	6778	responseLargeT	correct	n/a	0.44141	no	n/a	n/a
27.5546875	n/a	7054	largeHSmallT	correct	incongruent	0.42969	no	H	T
27.984375	n/a	7164	responseLargeH	correct	n/a	0.42969	no	n/a	n/a
29.046875	n/a	7436	largeTSmallT	correct	congruent	0.49609	no	T	T
29.54296875	n/a	7563	responseLargeT	correct	n/a	0.49609	no	n/a	n/a
30.609375	n/a	7836	largeTSmallT	correct	congruent	0.37891	no	T	T
30.98828125	n/a	7933	responseLargeT	correct	n/a	0.37891	no	n/a	n/a
32.0625	n/a	8208	largeHSmallT	error	incongruent	0.36719	no	H	T
32.4296875	n/a	8302	responseLargeT	error	n/a	0.36719	no	n/a	n/a
33.5	n/a	8576	largeTSmallT	correct	congruent	0.46875	no	T	T
33.96875	n/a	8696	responseLargeT	correct	n/a	0.46875	no	n/a	n/a
35.03515625	n/a	8969	largeTSmallT	correct	congruent	0.47266	no	T	T
35.5078125	n/a	9090	responseLargeT	correct	n/a	0.47266	no	n/a	n/a
36.58203125	n/a	9365	largeTSmallT	correct	congruent	0.4375	no	T	T
37.01953125	n/a	9477	responseLargeT	correct	n/a	0.4375	no	n/a	n/a
38.1015625	n/a	9754	largeHSmallH	correct	congruent	0.38281	no	H	H
38.484375	n/a	9852	responseLargeH	correct	n/a	0.38281	no	n/a	n/a
39.56640625	n/a	10129	largeHSmallT	correct	incongruent	0.42188	no	H	T
39.98828125	n/a	10237	responseLargeH	correct	n/a	0.42188	no	n/a	n/a
41.0625	n/a	10512	largeTSmallH	correct	incongruent	0.41797	no	T	H
41.48046875	n/a	10619	responseLargeT	correct	n/a	0.41797	no	n/a	n/a
42.5546875	n/a	10894	largeHSmallT	correct	incongruent	0.4375	no	H	T
42.9921875	n/a	11006	responseLargeH	correct	n/a	0.4375	no	n/a	n/a
44.05859375	n/a	11279	largeHSmallT	error	incongruent	0.42578	no	H	T
44.484375	n/a	11388	responseLargeT	error	n/a	0.42578	no	n/a	n/a
45.5546875	n/a	11662	largeHSmallT	correct	incongruent	0.44531	no	H	T
46	n/a	11776	responseLargeH	correct	n/a	0.44531	no	n/a	n/a
47.05859375	n/a	12047	largeTSmallT	correct	congruent	0.48828	no	T	T
47.546875	n/a	12172	responseLargeT	correct	n/a	0.48828	no	n/a	n/a
48.60546875	n/a	12443	largeHSmallH	correct	congruent	0.42969	no	H	H
49.03515625	n/a	12553	responseLargeH	correct	n/a	0.42969	no	n/a	n/a
50.11328125	n/a	12829	largeHSmallH	correct	congruent	0.4375	no	H	H
50.55078125	n/a	12941	responseLargeH	correct	n/a	0.4375	no	n/a	n/a
51.62109375	n/a	13215	largeHSmallT	correct	incongruent	0.37109	no	H	T
51.9921875	n/a	13310	responseLargeH	correct	n/a	0.37109	no	n/a	n/a
53.05859375	n/a	13583	largeTSmallH	correct	incongruent	0.42578	no	T	H
53.484375	n/a	13692	responseLargeT	correct	n/a	0.42578	no	n/a	n/a
54.5546875	n/a	13966	largeTSmallT	correct	congruent	0.47266	no	T	T
55.02734375	n/a	14087	responseLargeT	correct	n/a	0.47266	no	n/a	n/a
56.1015625	n/a	14362	largeTSmallT	correct	congruent	0.49609	no	T	T
56.59765625	n/a	14489	responseLargeT	correct	n/a	0.49609	no	n/a	n/a
57.671875	n/a	14764	largeHSmallH	correct	congruent	0.41797	no	H	H
58.08984375	n/a	14871	responseLargeH	correct	n/a	0.41797	no	n/a	n/a
59.15234375	n/a	15143	largeTSmallH	correct	incongruent	0.37891	no	T	H
59.53125	n/a	15240	responseLargeT	correct	n/a	0.37891	no	n/a	n/a
60.60546875	n/a	15515	largeHSmallH	correct	congruent	0.39062	no	H	H
60.99609375	n/a	15615	responseLargeH	correct	n/a	0.39062	no	n/a	n/a
62.07421875	n/a	15891	largeHSmallH	correct	congruent	0.36719	no	H	H
62.44140625	n/a	15985	responseLargeH	correct	n/a	0.36719	no	n/a	n/a
63.51171875	n/a	16259	largeHSmallT	correct	incongruent	0.44922	no	H	T
63.9609375	n/a	16374	responseLargeH	correct	n/a	0.44922	no	n/a	n/a
65.03515625	n/a	16649	largeHSmallT	correct	incongruent	0.44531	no	H	T
65.48046875	n/a	16763	responseLargeH	correct	n/a	0.44531	no	n/a	n/a
66.5546875	n/a	17038	largeTSmallH	correct	incongruent	0.38672	no	T	H
66.94140625	n/a	17137	responseLargeT	correct	n/a	0.38672	no	n/a	n/a
68.01953125	n/a	17413	largeTSmallH	correct	incongruent	0.45312	no	T	H
68.47265625	n/a	17529	responseLargeT	correct	n/a	0.45312	no	n/a	n/a
69.5546875	n/a	17806	largeTSmallT	correct	congruent	0.49219	no	T	T
70.046875	n/a	17932	responseLargeT	correct	n/a	0.49219	no	n/a	n/a
71.125	n/a	18208	largeHSmallT	correct	incongruent	0.44922	no	H	T
71.57421875	n/a	18323	responseLargeH	correct	n/a	0.44922	no	n/a	n/a
72.6484375	n/a	18598	largeHSmallH	correct	congruent	0.39062	no	H	H
73.0390625	n/a	18698	responseLargeH	correct	n/a	0.39062	no	n/a	n/a
74.1015625	n/a	18970	largeTSmallH	correct	incongruent	0.41797	no	T	H
74.51953125	n/a	19077	responseLargeT	correct	n/a	0.41797	no	n/a	n/a
75.578125	n/a	19348	largeHSmallH	correct	congruent	0.34766	no	H	H
75.92578125	n/a	19437	responseLargeH	correct	n/a	0.34766	no	n/a	n/a
77.0078125	n/a	19714	largeTSmallT	correct	congruent	0.42969	no	T	T
77.4375	n/a	19824	responseLargeT	correct	n/a	0.42969	no	n/a	n/a
78.5	n/a	20096	largeHSmallH	correct	congruent	0.44922	no	H	H
78.94921875	n/a	20211	responseLargeH	correct	n/a	0.44922	no	n/a	n/a
80.01953125	n/a	20485	largeTSmallT	correct	congruent	0.51562	no	T	T
80.53515625	n/a	20617	responseLargeT	correct	n/a	0.51562	no	n/a	n/a
81.60546875	n/a	20891	largeTSmallH	error	incongruent	0.45703	no	T	H
82.0625	n/a	21008	responseLargeH	error	n/a	0.45703	no	n/a	n/a
83.140625	n/a	21284	largeHSmallT	correct	incongruent	0.40625	no	H	T
83.546875	n/a	21388	responseLargeH	correct	n/a	0.40625	no	n/a	n/a
84.62109375	n/a	21663	largeTSmallT	correct	congruent	0.5	no	T	T
85.12109375	n/a	21791	responseLargeT	correct	n/a	0.5	no	n/a	n/a
86.19140625	n/a	22065	largeTSmallH	correct	incongruent	0.42578	no	T	H
86.6171875	n/a	22174	responseLargeT	correct	n/a	0.42578	no	n/a	n/a
87.6875	n/a	22448	largeHSmallH	correct	congruent	0.44922	no	H	H
88.13671875	n/a	22563	responseLargeH	correct	n/a	0.44922	no	n/a	n/a
89.20703125	n/a	22837	largeHSmallH	correct	congruent	0.48047	no	H	H
89.6875	n/a	22960	responseLargeH	correct	n/a	0.48047	no	n/a	n/a
90.765625	n/a	23236	largeHSmallT	correct	incongruent	0.53125	no	H	T
91.296875	n/a	23372	responseLargeH	correct	n/a	0.53125	no	n/a	n/a
92.3671875	n/a	23646	largeTSmallH	correct	incongruent	0.35938	no	T	H
92.7265625	n/a	23738	responseLargeT	correct	n/a	0.35938	no	n/a	n/a
93.8046875	n/a	24014	largeTSmallH	correct	incongruent	0.48047	no	T	H
94.28515625	n/a	24137	responseLargeT	correct	n/a	0.48047	no	n/a	n/a
95.3515625	n/a	24410	largeTSmallH	correct	incongruent	0.36719	no	T	H
95.71875	n/a	24504	responseLargeT	correct	n/a	0.36719	no	n/a	n/a
96.78125	n/a	24776	largeHSmallT	correct	incongruent	0.35938	no	H	T
97.140625	n/a	24868	responseLargeH	correct	n/a	0.35938	no	n/a	n/a
98.20703125	n/a	25141	largeTSmallH	correct	incongruent	0.42188	no	T	H
98.62890625	n/a	25249	responseLargeT	correct	n/a	0.42188	no	n/a	n/a
99.69921875	n/a	25523	largeHSmallT	correct	incongruent	0.43359	no	H	T
100.1328125	n/a	25634	responseLargeH	correct	n/a	0.43359	no	n/a	n/a
101.2070312	n/a	25909	largeTSmallH	correct	incongruent	0.35156	no	T	H
101.5585938	n/a	25999	responseLargeT	correct	n/a	0.35156	no	n/a	n/a
102.6328125	n/a	26274	largeTSmallH	correct	incongruent	0.52344	no	T	H
103.15625	n/a	26408	responseLargeT	correct	n/a	0.52344	no	n/a	n/a
104.234375	n/a	26684	largeHSmallH	correct	congruent	0.45312	no	H	H
104.6875	n/a	26800	responseLargeH	correct	n/a	0.45312	no	n/a	n/a
105.7539062	n/a	27073	largeTSmallT	correct	congruent	0.42578	no	T	T
106.1796875	n/a	27182	responseLargeT	correct	n/a	0.42578	no	n/a	n/a
107.2578125	n/a	27458	largeHSmallT	correct	incongruent	0.35547	no	H	T
107.6132812	n/a	27549	responseLargeH	correct	n/a	0.35547	no	n/a	n/a
108.6875	n/a	27824	largeTSmallT	correct	congruent	0.51953	no	T	T
109.2070312	n/a	27957	responseLargeT	correct	n/a	0.51953	no	n/a	n/a
110.2851562	n/a	28233	largeTSmallH	correct	incongruent	0.42578	no	T	H
110.7109375	n/a	28342	responseLargeT	correct	n/a	0.42578	no	n/a	n/a
111.7773438	n/a	28615	largeTSmallH	correct	incongruent	0.46094	no	T	H
112.2382812	n/a	28733	responseLargeT	correct	n/a	0.46094	no	n/a	n/a
113.3007812	n/a	29005	largeHSmallH	correct	congruent	0.41406	no	H	H
113.7148438	n/a	29111	responseLargeH	correct	n/a	0.41406	no	n/a	n/a
114.7929688	n/a	29387	largeHSmallH	correct	congruent	0.44141	no	H	H
115.234375	n/a	29500	responseLargeH	correct	n/a	0.44141	no	n/a	n/a
116.296875	n/a	29772	largeTSmallH	correct	incongruent	0.40234	no	T	H
116.6992188	n/a	29875	responseLargeT	correct	n/a	0.40234	no	n/a	n/a
117.765625	n/a	30148	largeHSmallT	correct	incongruent	0.50781	no	H	T
118.2734375	n/a	30278	responseLargeH	correct	n/a	0.50781	no	n/a	n/a
119.3398438	n/a	30551	largeHSmallH	correct	congruent	0.46094	no	H	H
119.8007812	n/a	30669	responseLargeH	correct	n/a	0.46094	no	n/a	n/a
120.8710938	n/a	30943	largeTSmallT	correct	congruent	0.44922	no	T	T
121.3203125	n/a	31058	responseLargeT	correct	n/a	0.44922	no	n/a	n/a
122.390625	n/a	31332	largeTSmallT	correct	congruent	0.40625	no	T	T
122.796875	n/a	31436	responseLargeT	correct	n/a	0.40625	no	n/a	n/a
123.8710938	n/a	31711	largeHSmallH	correct	congruent	0.41406	no	H	H
124.2851562	n/a	31817	responseLargeH	correct	n/a	0.41406	no	n/a	n/a
125.3515625	n/a	32090	largeTSmallT	correct	congruent	0.35156	no	T	T
125.703125	n/a	32180	responseLargeT	correct	n/a	0.35156	no	n/a	n/a
126.765625	n/a	32452	largeTSmallT	error	congruent	0.37109	no	T	T
127.1367188	n/a	32547	responseLargeH	error	n/a	0.37109	no	n/a	n/a
128.2070312	n/a	32821	largeHSmallH	correct	congruent	0.35938	no	H	H
128.5664062	n/a	32913	responseLargeH	correct	n/a	0.35938	no	n/a	n/a
129.6328125	n/a	33186	largeTSmallT	correct	congruent	0.41016	no	T	T
130.0429688	n/a	33291	responseLargeT	correct	n/a	0.41016	no	n/a	n/a
131.125	n/a	33568	largeHSmallH	correct	congruent	0.36328	no	H	H
131.4882812	n/a	33661	responseLargeH	correct	n/a	0.36328	no	n/a	n/a
132.5507812	n/a	33933	largeTSmallH	correct	incongruent	0.47266	no	T	H
133.0234375	n/a	34054	responseLargeT	correct	n/a	0.47266	no	n/a	n/a
134.0976562	n/a	34329	largeTSmallH	correct	incongruent	0.40625	no	T	H
134.5039062	n/a	34433	responseLargeT	correct	n/a	0.40625	no	n/a	n/a
135.578125	n/a	34708	largeHSmallT	correct	incongruent	0.34375	no	H	T
135.921875	n/a	34796	responseLargeH	correct	n/a	0.34375	no	n/a	n/a
136.9921875	n/a	35070	largeHSmallH	correct	congruent	0.38281	no	H	H
137.375	n/a	35168	responseLargeH	correct	n/a	0.38281	no	n/a	n/a
138.4570312	n/a	35445	largeHSmallH	correct	congruent	0.51562	no	H	H
138.9726562	n/a	35577	responseLargeH	correct	n/a	0.51562	no	n/a	n/a
140.0429688	n/a	35851	largeHSmallH	correct	congruent	0.47266	no	H	H
140.515625	n/a	35972	responseLargeH	correct	n/a	0.47266	no	n/a	n/a
141.5898438	n/a	36247	largeTSmallH	correct	incongruent	0.41797	no	T	H
142.0078125	n/a	36354	responseLargeT	correct	n/a	0.41797	no	n/a	n/a
143.0859375	n/a	36630	largeTSmallT	correct	congruent	0.375	no	T	T
143.4609375	n/a	36726	responseLargeT	correct	n/a	0.375	no	n/a	n/a
144.5390625	n/a	37002	largeTSmallT	correct	congruent	0.45312	no	T	T
144.9921875	n/a	37118	responseLargeT	correct	n/a	0.45312	no	n/a	n/a
146.0703125	n/a	37394	largeTSmallH	correct	incongruent	0.34375	no	T	H
146.4140625	n/a	37482	responseLargeT	correct	n/a	0.34375	no	n/a	n/a
147.484375	n/a	37756	largeTSmallT	correct	congruent	0.39844	no	T	T
147.8828125	n/a	37858	responseLargeT	correct	n/a	0.39844	no	n/a	n/a
148.953125	n/a	38132	largeHSmallT	correct	incongruent	0.48828	no	H	T
149.4414062	n/a	38257	responseLargeH	correct	n/a	0.48828	no	n/a	n/a
150.5117188	n/a	38531	largeTSmallH	error	incongruent	0.43359	no	T	H
150.9453125	n/a	38642	responseLargeH	error	n/a	0.43359	no	n/a	n/a
152.0195312	n/a	38917	largeHSmallH	correct	congruent	0.52734	no	H	H
152.546875	n/a	39052	responseLargeH	correct	n/a	0.52734	no	n/a	n/a
153.6171875	n/a	39326	largeHSmallT	correct	incongruent	0.45312	no	H	T
154.0703125	n/a	39442	responseLargeH	correct	n/a	0.45312	no	n/a	n/a
155.1367188	n/a	39715	largeTSmallH	correct	incongruent	0.41797	no	T	H
155.5546875	n/a	39822	responseLargeT	correct	n/a	0.41797	no	n/a	n/a
156.6328125	n/a	40098	largeHSmallH	correct	congruent	0.42578	no	H	H
157.0585938	n/a	40207	responseLargeH	correct	n/a	0.42578	no	n/a	n/a
158.125	n/a	40480	largeTSmallH	correct	incongruent	0.40234	no	T	H
158.5273438	n/a	40583	responseLargeT	correct	n/a	0.40234	no	n/a	n/a
159.5898438	n/a	40855	largeTSmallH	correct	incongruent	0.42969	no	T	H
160.0195312	n/a	40965	responseLargeT	correct	n/a	0.42969	no	n/a	n/a
161.0859375	n/a	41238	largeTSmallT	correct	congruent	0.41406	no	T	T
161.5	n/a	41344	responseLargeT	correct	n/a	0.41406	no	n/a	n/a
162.578125	n/a	41620	largeHSmallT	correct	incongruent	0.37109	no	H	T
162.9492188	n/a	41715	responseLargeH	correct	n/a	0.37109	no	n/a	n/a
164.0195312	n/a	41989	largeHSmallT	correct	incongruent	0.40234	no	H	T
164.421875	n/a	42092	responseLargeH	correct	n/a	0.40234	no	n/a	n/a
165.484375	n/a	42364	largeTSmallH	correct	incongruent	0.35547	no	T	H
165.8398438	n/a	42455	responseLargeT	correct	n/a	0.35547	no	n/a	n/a
166.9101562	n/a	42729	largeTSmallH	correct	incongruent	0.36719	no	T	H
167.2773438	n/a	42823	responseLargeT	correct	n/a	0.36719	no	n/a	n/a
168.3359375	n/a	43094	largeTSmallT	correct	congruent	0.37109	no	T	T
168.7070312	n/a	43189	responseLargeT	correct	n/a	0.37109	no	n/a	n/a
169.7773438	n/a	43463	largeHSmallH	correct	congruent	0.33203	no	H	H
170.109375	n/a	43548	responseLargeH	correct	n/a	0.33203	no	n/a	n/a
171.1757812	n/a	43821	largeTSmallH	correct	incongruent	0.46484	no	T	H
171.640625	n/a	43940	responseLargeT	correct	n/a	0.46484	no	n/a	n/a
172.7109375	n/a	44214	largeTSmallT	correct	congruent	0.4375	no	T	T
173.1484375	n/a	44326	responseLargeT	correct	n/a	0.4375	no	n/a	n/a
174.21875	n/a	44600	largeTSmallT	correct	congruent	0.37109	no	T	T
174.5898438	n/a	44695	responseLargeT	correct	n/a	0.37109	no	n/a	n/a
175.65625	n/a	44968	largeHSmallH	correct	congruent	0.38281	no	H	H
176.0390625	n/a	45066	responseLargeH	correct	n/a	0.38281	no	n/a	n/a
177.109375	n/a	45340	largeTSmallT	correct	congruent	0.33984	no	T	T
177.4492188	n/a	45427	responseLargeT	correct	n/a	0.33984	no	n/a	n/a
178.5117188	n/a	45699	largeTSmallT	correct	congruent	0.46094	no	T	T
178.9726562	n/a	45817	responseLargeT	correct	n/a	0.46094	no	n/a	n/a
180.0429688	n/a	46091	largeHSmallT	error	incongruent	0.33203	no	H	T
180.375	n/a	46176	responseLargeT	error	n/a	0.33203	no	n/a	n/a
181.4453125	n/a	46450	largeTSmallT	correct	congruent	0.37109	no	T	T
181.8164062	n/a	46545	responseLargeT	correct	n/a	0.37109	no	n/a	n/a
182.8828125	n/a	46818	largeHSmallT	correct	incongruent	0.40234	no	H	T
183.2851562	n/a	46921	responseLargeH	correct	n/a	0.40234	no	n/a	n/a
184.3632812	n/a	47197	largeHSmallH	error	congruent	0.36328	no	H	H
184.7265625	n/a	47290	responseLargeT	error	n/a	0.36328	no	n/a	n/a
185.8046875	n/a	47566	largeHSmallT	correct	incongruent	0.43359	no	H	T
186.2382812	n/a	47677	responseLargeH	correct	n/a	0.43359	no	n/a	n/a
187.3125	n/a	47952	largeHSmallT	correct	incongruent	0.35938	no	H	T
187.671875	n/a	48044	responseLargeH	correct	n/a	0.35938	no	n/a	n/a
188.75	n/a	48320	largeHSmallT	error	incongruent	0.32812	no	H	T
189.078125	n/a	48404	responseLargeT	error	n/a	0.32812	no	n/a	n/a
190.1523438	n/a	48679	largeHSmallT	correct	incongruent	0.36719	no	H	T
190.5195312	n/a	48773	responseLargeH	correct	n/a	0.36719	no	n/a	n/a
191.5898438	n/a	49047	largeTSmallH	correct	incongruent	0.49609	no	T	H
192.0859375	n/a	49174	responseLargeT	correct	n/a	0.49609	no	n/a	n/a
193.1640625	n/a	49450	largeHSmallH	correct	congruent	0.45312	no	H	H
193.6171875	n/a	49566	responseLargeH	correct	n/a	0.45312	no	n/a	n/a
194.6835938	n/a	49839	largeHSmallT	correct	incongruent	0.42188	no	H	T
195.1054688	n/a	49947	responseLargeH	correct	n/a	0.42188	no	n/a	n/a
196.1757812	n/a	50221	largeTSmallH	correct	incongruent	0.51562	no	T	H
196.6914062	n/a	50353	responseLargeT	correct	n/a	0.51562	no	n/a	n/a
197.765625	n/a	50628	largeHSmallT	correct	incongruent	0.37109	no	H	T
198.1367188	n/a	50723	responseLargeH	correct	n/a	0.37109	no	n/a	n/a
199.21875	n/a	51000	largeHSmallH	correct	congruent	0.47656	no	H	H
199.6953125	n/a	51122	responseLargeH	correct	n/a	0.47656	no	n/a	n/a
200.7617188	n/a	51395	largeHSmallT	correct	incongruent	0.46484	no	H	T
201.2265625	n/a	51514	responseLargeH	correct	n/a	0.46484	no	n/a	n/a
202.296875	n/a	51788	largeTSmallH	correct	incongruent	0.48828	no	T	H
202.7851562	n/a	51913	responseLargeT	correct	n/a	0.48828	no	n/a	n/a
203.8710938	n/a	52191	largeHSmallH	correct	congruent	0.42969	no	H	H
204.3007812	n/a	52301	responseLargeH	correct	n/a	0.42969	no	n/a	n/a
205.375	n/a	52576	largeHSmallT	correct	incongruent	0.42188	no	H	T
205.796875	n/a	52684	responseLargeH	correct	n/a	0.42188	no	n/a	n/a
206.8554688	n/a	52955	largeHSmallH	correct	congruent	0.41016	no	H	H
207.265625	n/a	53060	responseLargeH	correct	n/a	0.41016	no	n/a	n/a
208.3359375	n/a	53334	largeTSmallH	error	incongruent	0.42188	no	T	H
208.7578125	n/a	53442	responseLargeH	error	n/a	0.42188	no	n/a	n/a
209.8320312	n/a	53717	largeHSmallT	correct	incongruent	0.45703	no	H	T
210.2890625	n/a	53834	responseLargeH	correct	n/a	0.45703	no	n/a	n/a
211.3515625	n/a	54106	largeHSmallH	correct	congruent	0.4375	no	H	H
211.7890625	n/a	54218	responseLargeH	correct	n/a	0.4375	no	n/a	n/a
212.8710938	n/a	54495	largeHSmallT	correct	incongruent	0.44922	no	H	T
213.3203125	n/a	54610	responseLargeH	correct	n/a	0.44922	no	n/a	n/a
214.390625	n/a	54884	largeTSmallT	correct	congruent	0.33203	no	T	T
214.7226562	n/a	54969	responseLargeT	correct	n/a	0.33203	no	n/a	n/a
215.8046875	n/a	55246	largeTSmallH	correct	incongruent	0.42969	no	T	H
216.234375	n/a	55356	responseLargeT	correct	n/a	0.42969	no	n/a	n/a
217.3085938	n/a	55631	largeTSmallH	error	incongruent	0.33203	no	T	H
217.640625	n/a	55716	responseLargeH	error	n/a	0.33203	no	n/a	n/a
218.7109375	n/a	55990	largeTSmallH	correct	incongruent	0.45312	no	T	H
219.1640625	n/a	56106	responseLargeT	correct	n/a	0.45312	no	n/a	n/a
220.2304688	n/a	56379	largeTSmallH	correct	incongruent	0.37109	no	T	H
220.6015625	n/a	56474	responseLargeT	correct	n/a	0.37109	no	n/a	n/a
221.65625	n/a	56744	largeTSmallH	correct	incongruent	0.39453	no	T	H
222.0507812	n/a	56845	responseLargeT	correct	n/a	0.39453	no	n/a	n/a
223.109375	n/a	57116	largeHSmallH	correct	congruent	0.47266	no	H	H
223.5820312	n/a	57237	responseLargeH	correct	n/a	0.47266	no	n/a	n/a
224.65625	n/a	57512	largeHSmallH	correct	congruent	0.39453	no	H	H
225.0507812	n/a	57613	responseLargeH	correct	n/a	0.39453	no	n/a	n/a
226.1210938	n/a	57887	largeHSmallT	correct	incongruent	0.4375	no	H	T
226.5585938	n/a	57999	responseLargeH	correct	n/a	0.4375	no	n/a	n/a
227.6171875	n/a	58270	largeTSmallT	correct	congruent	0.44922	no	T	T
228.0664062	n/a	58385	responseLargeT	correct	n/a	0.44922	no	n/a	n/a
229.1367188	n/a	58659	largeTSmallT	correct	congruent	0.42969	no	T	T
229.5664062	n/a	58769	responseLargeT	correct	n/a	0.42969	no	n/a	n/a
230.6289062	n/a	59041	largeTSmallT	correct	congruent	0.44141	no	T	T
231.0703125	n/a	59154	responseLargeT	correct	n/a	0.44141	no	n/a	n/a
232.1484375	n/a	59430	largeTSmallH	correct	incongruent	0.44531	no	T	H
232.59375	n/a	59544	responseLargeT	correct	n/a	0.44531	no	n/a	n/a
233.65625	n/a	59816	largeHSmallH	error	congruent	0.41797	no	H	H
234.0742188	n/a	59923	responseLargeT	error	n/a	0.41797	no	n/a	n/a
235.1367188	n/a	60195	largeHSmallT	correct	incongruent	0.55469	no	H	T
235.6914062	n/a	60337	responseLargeH	correct	n/a	0.55469	no	n/a	n/a
236.7617188	n/a	60611	largeHSmallT	correct	incongruent	0.375	no	H	T
237.1367188	n/a	60707	responseLargeH	correct	n/a	0.375	no	n/a	n/a
238.2148438	n/a	60983	largeTSmallH	correct	incongruent	0.46875	no	T	H
238.6835938	n/a	61103	responseLargeT	correct	n/a	0.46875	no	n/a	n/a
239.7617188	n/a	61379	largeHSmallT	error	incongruent	0.41016	no	H	T
240.171875	n/a	61484	responseLargeT	error	n/a	0.41016	no	n/a	n/a
241.2421875	n/a	61758	largeHSmallH	correct	congruent	0.70703	no	H	H
241.9492188	n/a	61939	responseLargeH	correct	n/a	0.70703	no	n/a	n/a
243.015625	n/a	62212	largeTSmallH	correct	incongruent	0.42969	no	T	H
243.4453125	n/a	62322	responseLargeT	correct	n/a	0.42969	no	n/a	n/a
244.5234375	n/a	62598	largeHSmallH	correct	congruent	0.42188	no	H	H
244.9453125	n/a	62706	responseLargeH	correct	n/a	0.42188	no	n/a	n/a
246.015625	n/a	62980	largeTSmallT	correct	congruent	0.39453	no	T	T
246.4101562	n/a	63081	responseLargeT	correct	n/a	0.39453	no	n/a	n/a
247.484375	n/a	63356	largeHSmallH	correct	congruent	0.53516	no	H	H
248.0195312	n/a	63493	responseLargeH	correct	n/a	0.53516	no	n/a	n/a
249.0820312	n/a	63765	largeTSmallH	correct	incongruent	0.5	no	T	H
249.5820312	n/a	63893	responseLargeT	correct	n/a	0.5	no	n/a	n/a
250.640625	n/a	64164	largeTSmallT	correct	congruent	0.48438	no	T	T
251.125	n/a	64288	responseLargeT	correct	n/a	0.48438	no	n/a	n/a
252.1875	n/a	64560	largeTSmallT	correct	congruent	0.46094	no	T	T
252.6484375	n/a	64678	responseLargeT	correct	n/a	0.46094	no	n/a	n/a
253.7226562	n/a	64953	largeTSmallH	correct	incongruent	0.41406	no	T	H
254.1367188	n/a	65059	responseLargeT	correct	n/a	0.41406	no	n/a	n/a
255.203125	n/a	65332	largeTSmallH	correct	incongruent	0.44141	no	T	H
255.6445312	n/a	65445	responseLargeT	correct	n/a	0.44141	no	n/a	n/a
256.7226562	n/a	65721	largeTSmallH	correct	incongruent	0.48438	no	T	H
257.2070312	n/a	65845	responseLargeT	correct	n/a	0.48438	no	n/a	n/a
258.28125	n/a	66120	largeTSmallT	correct	congruent	0.38672	no	T	T
258.6679688	n/a	66219	responseLargeT	correct	n/a	0.38672	no	n/a	n/a
259.75	n/a	66496	largeTSmallT	correct	congruent	0.36719	no	T	T
260.1171875	n/a	66590	responseLargeT	correct	n/a	0.36719	no	n/a	n/a
261.203125	n/a	66868	largeTSmallT	correct	congruent	0.40234	no	T	T
261.6054688	n/a	66971	responseLargeT	correct	n/a	0.40234	no	n/a	n/a
262.6835938	n/a	67247	largeTSmallT	correct	congruent	0.37109	no	T	T
263.0546875	n/a	67342	responseLargeT	correct	n/a	0.37109	no	n/a	n/a
264.1210938	n/a	67615	largeHSmallT	correct	incongruent	0.39844	no	H	T
264.5195312	n/a	67717	responseLargeH	correct	n/a	0.39844	no	n/a	n/a
265.5898438	n/a	67991	largeHSmallT	correct	incongruent	0.40234	no	H	T
265.9921875	n/a	68094	responseLargeH	correct	n/a	0.40234	no	n/a	n/a
267.0546875	n/a	68366	largeTSmallT	correct	congruent	0.42578	no	T	T
267.4804688	n/a	68475	responseLargeT	correct	n/a	0.42578	no	n/a	n/a
268.5625	n/a	68752	largeHSmallT	correct	incongruent	0.36328	no	H	T
268.9257812	n/a	68845	responseLargeH	correct	n/a	0.36328	no	n/a	n/a
269.9882812	n/a	69117	largeHSmallT	correct	incongruent	0.44531	no	H	T
270.4335938	n/a	69231	responseLargeH	correct	n/a	0.44531	no	n/a	n/a
271.5078125	n/a	69506	largeHSmallT	correct	incongruent	0.4375	no	H	T
271.9453125	n/a	69618	responseLargeH	correct	n/a	0.4375	no	n/a	n/a
273.015625	n/a	69892	largeHSmallT	error	incongruent	0.33594	no	H	T
273.3515625	n/a	69978	responseLargeT	error	n/a	0.33594	no	n/a	n/a
274.4296875	n/a	70254	largeHSmallH	correct	congruent	0.45312	no	H	H
274.8828125	n/a	70370	responseLargeH	correct	n/a	0.45312	no	n/a	n/a
275.9492188	n/a	70643	largeTSmallT	error	congruent	0.40234	no	T	T
276.3515625	n/a	70746	responseLargeH	error	n/a	0.40234	no	n/a	n/a
277.4140625	n/a	71018	largeTSmallT	correct	congruent	0.55859	no	T	T
277.9726562	n/a	71161	responseLargeT	correct	n/a	0.55859	no	n/a	n/a
279.0429688	n/a	71435	largeHSmallT	correct	incongruent	0.43359	no	H	T
279.4765625	n/a	71546	responseLargeH	correct	n/a	0.43359	no	n/a	n/a
280.546875	n/a	71820	largeHSmallH	correct	congruent	0.44531	no	H	H
280.9921875	n/a	71934	responseLargeH	correct	n/a	0.44531	no	n/a	n/a
282.0664062	n/a	72209	largeHSmallT	correct	incongruent	0.44531	no	H	T
282.5117188	n/a	72323	responseLargeH	correct	n/a	0.44531	no	n/a	n/a
283.5742188	n/a	72595	largeTSmallH	correct	incongruent	0.51562	no	T	H
284.0898438	n/a	72727	responseLargeT	correct	n/a	0.51562	no	n/a	n/a
285.1601562	n/a	73001	largeHSmallT	correct	incongruent	0.44531	no	H	T
285.6054688	n/a	73115	responseLargeH	correct	n/a	0.44531	no	n/a	n/a
286.6796875	n/a	73390	largeTSmallT	correct	congruent	0.36328	no	T	T
287.0429688	n/a	73483	responseLargeT	correct	n/a	0.36328	no	n/a	n/a
288.1210938	n/a	73759	largeTSmallT	correct	congruent	0.39062	no	T	T
288.5117188	n/a	73859	responseLargeT	correct	n/a	0.39062	no	n/a	n/a
289.5898438	n/a	74135	largeTSmallT	correct	congruent	0.42969	no	T	T
290.0195312	n/a	74245	responseLargeT	correct	n/a	0.42969	no	n/a	n/a
291.0820312	n/a	74517	largeHSmallH	correct	congruent	0.41016	no	H	H
291.4921875	n/a	74622	responseLargeH	correct	n/a	0.41016	no	n/a	n/a
292.5625	n/a	74896	largeHSmallH	correct	congruent	0.44531	no	H	H
293.0078125	n/a	75010	responseLargeH	correct	n/a	0.44531	no	n/a	n/a
294.0820312	n/a	75285	largeTSmallT	correct	congruent	0.44531	no	T	T
294.5273438	n/a	75399	responseLargeT	correct	n/a	0.44531	no	n/a	n/a
295.5859375	n/a	75670	largeHSmallH	correct	congruent	0.42578	no	H	H
296.0117188	n/a	75779	responseLargeH	correct	n/a	0.42578	no	n/a	n/a
297.0664062	n/a	76049	largeHSmallT	correct	incongruent	0.46484	no	H	T
297.53125	n/a	76168	responseLargeH	correct	n/a	0.46484	no	n/a	n/a
298.6015625	n/a	76442	largeTSmallH	correct	incongruent	0.40234	no	T	H
299.0039062	n/a	76545	responseLargeT	correct	n/a	0.40234	no	n/a	n/a
300.0664062	n/a	76817	largeTSmallH	correct	incongruent	0.44922	no	T	H
300.515625	n/a	76932	responseLargeT	correct	n/a	0.44922	no	n/a	n/a
301.5859375	n/a	77206	largeHSmallH	correct	congruent	0.48438	no	H	H
302.0703125	n/a	77330	responseLargeH	correct	n/a	0.48438	no	n/a	n/a
303.1484375	n/a	77606	largeHSmallH	correct	congruent	0.45312	no	H	H
303.6015625	n/a	77722	responseLargeH	correct	n/a	0.45312	no	n/a	n/a
304.6679688	n/a	77995	largeHSmallT	correct	incongruent	0.41797	no	H	T
305.0859375	n/a	78102	responseLargeH	correct	n/a	0.41797	no	n/a	n/a
306.1601562	n/a	78377	largeHSmallT	error	incongruent	0.37109	no	H	T
306.53125	n/a	78472	responseLargeT	error	n/a	0.37109	no	n/a	n/a
307.6015625	n/a	78746	largeTSmallH	correct	incongruent	0.375	no	T	H
307.9765625	n/a	78842	responseLargeT	correct	n/a	0.375	no	n/a	n/a
309.0390625	n/a	79114	largeTSmallH	correct	incongruent	0.39062	no	T	H
309.4296875	n/a	79214	responseLargeT	correct	n/a	0.39062	no	n/a	n/a
310.5078125	n/a	79490	largeHSmallH	correct	congruent	0.39844	no	H	H
310.90625	n/a	79592	responseLargeH	correct	n/a	0.39844	no	n/a	n/a
311.9726562	n/a	79865	largeHSmallH	correct	congruent	0.4375	no	H	H
312.4101562	n/a	79977	responseLargeH	correct	n/a	0.4375	no	n/a	n/a
313.4804688	n/a	80251	largeHSmallH	correct	congruent	0.41016	no	H	H
313.890625	n/a	80356	responseLargeH	correct	n/a	0.41016	no	n/a	n/a
314.9726562	n/a	80633	largeTSmallT	error	congruent	0.38672	no	T	T
315.359375	n/a	80732	responseLargeH	error	n/a	0.38672	no	n/a	n/a
316.4414062	n/a	81009	largeHSmallH	correct	congruent	0.42188	no	H	H
316.8632812	n/a	81117	responseLargeH	correct	n/a	0.42188	no	n/a	n/a
322.2929688	n/a	82507	largeTSmallH	correct	incongruent	1.6602	yes	T	H
323.953125	n/a	82932	responseSmallH	correct	n/a	1.6602	yes	n/a	n/a
325.0273438	n/a	83207	largeTSmallH	correct	incongruent	0.53125	no	T	H
325.5585938	n/a	83343	responseSmallH	correct	n/a	0.53125	no	n/a	n/a
326.640625	n/a	83620	largeTSmallT	correct	congruent	0.56641	no	T	T
327.2070312	n/a	83765	responseSmallT	correct	n/a	0.56641	no	n/a	n/a
328.265625	n/a	84036	largeTSmallH	correct	incongruent	0.48047	no	T	H
328.7460938	n/a	84159	responseSmallH	correct	n/a	0.48047	no	n/a	n/a
329.8125	n/a	84432	largeTSmallH	correct	incongruent	0.48828	no	T	H
330.3007812	n/a	84557	responseSmallH	correct	n/a	0.48828	no	n/a	n/a
331.375	n/a	84832	largeTSmallH	correct	incongruent	0.43359	no	T	H
331.8085938	n/a	84943	responseSmallH	correct	n/a	0.43359	no	n/a	n/a
332.8789062	n/a	85217	largeTSmallT	correct	congruent	0.44531	no	T	T
333.3242188	n/a	85331	responseSmallT	correct	n/a	0.44531	no	n/a	n/a
334.3867188	n/a	85603	largeHSmallT	correct	incongruent	0.5625	no	H	T
334.9492188	n/a	85747	responseSmallT	correct	n/a	0.5625	no	n/a	n/a
336.0273438	n/a	86023	largeHSmallT	correct	incongruent	0.44922	no	H	T
336.4765625	n/a	86138	responseSmallT	correct	n/a	0.44922	no	n/a	n/a
337.546875	n/a	86412	largeTSmallH	correct	incongruent	0.41016	no	T	H
337.9570312	n/a	86517	responseSmallH	correct	n/a	0.41016	no	n/a	n/a
339.0273438	n/a	86791	largeHSmallH	correct	congruent	0.41797	no	H	H
339.4453125	n/a	86898	responseSmallH	correct	n/a	0.41797	no	n/a	n/a
340.5195312	n/a	87173	largeHSmallT	correct	incongruent	0.52344	no	H	T
341.0429688	n/a	87307	responseSmallT	correct	n/a	0.52344	no	n/a	n/a
342.1054688	n/a	87579	largeHSmallT	correct	incongruent	0.40234	no	H	T
342.5078125	n/a	87682	responseSmallT	correct	n/a	0.40234	no	n/a	n/a
343.5742188	n/a	87955	largeHSmallT	correct	incongruent	0.43359	no	H	T
344.0078125	n/a	88066	responseSmallT	correct	n/a	0.43359	no	n/a	n/a
345.078125	n/a	88340	largeHSmallT	correct	incongruent	0.42969	no	H	T
345.5078125	n/a	88450	responseSmallT	correct	n/a	0.42969	no	n/a	n/a
346.5742188	n/a	88723	largeHSmallH	correct	congruent	0.46484	no	H	H
347.0390625	n/a	88842	responseSmallH	correct	n/a	0.46484	no	n/a	n/a
348.1210938	n/a	89119	largeHSmallT	correct	incongruent	0.48828	no	H	T
348.609375	n/a	89244	responseSmallT	correct	n/a	0.48828	no	n/a	n/a
349.6796875	n/a	89518	largeTSmallT	correct	congruent	0.5	no	T	T
350.1796875	n/a	89646	responseSmallT	correct	n/a	0.5	no	n/a	n/a
351.2539062	n/a	89921	largeHSmallH	error	congruent	0.46484	no	H	H
351.71875	n/a	90040	responseSmallT	error	n/a	0.46484	no	n/a	n/a
352.8007812	n/a	90317	largeHSmallH	error	congruent	0.47656	no	H	H
353.2773438	n/a	90439	responseSmallT	error	n/a	0.47656	no	n/a	n/a
354.3476562	n/a	90713	largeTSmallT	correct	congruent	0.49219	no	T	T
354.8398438	n/a	90839	responseSmallT	correct	n/a	0.49219	no	n/a	n/a
355.9179688	n/a	91115	largeTSmallT	correct	congruent	0.44141	no	T	T
356.359375	n/a	91228	responseSmallT	correct	n/a	0.44141	no	n/a	n/a
357.4257812	n/a	91501	largeTSmallH	correct	incongruent	0.4375	no	T	H
357.8632812	n/a	91613	responseSmallH	correct	n/a	0.4375	no	n/a	n/a
358.9335938	n/a	91887	largeTSmallT	correct	congruent	0.58984	no	T	T
359.5234375	n/a	92038	responseSmallT	correct	n/a	0.58984	no	n/a	n/a
360.5976562	n/a	92313	largeTSmallT	correct	congruent	0.47266	no	T	T
361.0703125	n/a	92434	responseSmallT	correct	n/a	0.47266	no	n/a	n/a
362.1445312	n/a	92709	largeTSmallH	correct	incongruent	0.52734	no	T	H
362.671875	n/a	92844	responseSmallH	correct	n/a	0.52734	no	n/a	n/a
363.7460938	n/a	93119	largeHSmallT	correct	incongruent	0.48438	no	H	T
364.2304688	n/a	93243	responseSmallT	correct	n/a	0.48438	no	n/a	n/a
365.3046875	n/a	93518	largeHSmallT	correct	incongruent	0.46875	no	H	T
365.7734375	n/a	93638	responseSmallT	correct	n/a	0.46875	no	n/a	n/a
366.8398438	n/a	93911	largeHSmallH	correct	congruent	0.43359	no	H	H
367.2734375	n/a	94022	responseSmallH	correct	n/a	0.43359	no	n/a	n/a
368.3476562	n/a	94297	largeHSmallH	correct	congruent	0.44531	no	H	H
368.7929688	n/a	94411	responseSmallH	correct	n/a	0.44531	no	n/a	n/a
369.8671875	n/a	94686	largeTSmallH	correct	incongruent	0.46484	no	T	H
370.3320312	n/a	94805	responseSmallH	correct	n/a	0.46484	no	n/a	n/a
371.4140625	n/a	95082	largeTSmallT	correct	congruent	0.50391	no	T	T
371.9179688	n/a	95211	responseSmallT	correct	n/a	0.50391	no	n/a	n/a
372.984375	n/a	95484	largeHSmallT	correct	incongruent	0.45703	no	H	T
373.4414062	n/a	95601	responseSmallT	correct	n/a	0.45703	no	n/a	n/a
374.5039062	n/a	95873	largeTSmallH	correct	incongruent	0.62891	no	T	H
375.1328125	n/a	96034	responseSmallH	correct	n/a	0.62891	no	n/a	n/a
376.2109375	n/a	96310	largeTSmallH	correct	incongruent	0.38672	no	T	H
376.5976562	n/a	96409	responseSmallH	correct	n/a	0.38672	no	n/a	n/a
377.6640625	n/a	96682	largeHSmallT	correct	incongruent	0.45703	no	H	T
378.1210938	n/a	96799	responseSmallT	correct	n/a	0.45703	no	n/a	n/a
379.1875	n/a	97072	largeTSmallH	correct	incongruent	0.45312	no	T	H
379.640625	n/a	97188	responseSmallH	correct	n/a	0.45312	no	n/a	n/a
380.7070312	n/a	97461	largeTSmallH	error	incongruent	0.46875	no	T	H
381.1757812	n/a	97581	responseSmallT	error	n/a	0.46875	no	n/a	n/a
382.2539062	n/a	97857	largeHSmallH	correct	congruent	0.59766	no	H	H
382.8515625	n/a	98010	responseSmallH	correct	n/a	0.59766	no	n/a	n/a
383.9179688	n/a	98283	largeHSmallH	correct	congruent	0.38672	no	H	H
384.3046875	n/a	98382	responseSmallH	correct	n/a	0.38672	no	n/a	n/a
385.3710938	n/a	98655	largeHSmallT	correct	incongruent	0.57812	no	H	T
385.9492188	n/a	98803	responseSmallT	correct	n/a	0.57812	no	n/a	n/a
387.0273438	n/a	99079	largeTSmallT	correct	congruent	0.46875	no	T	T
387.4960938	n/a	99199	responseSmallT	correct	n/a	0.46875	no	n/a	n/a
388.5703125	n/a	99474	largeTSmallH	correct	incongruent	0.50781	no	T	H
389.078125	n/a	99604	responseSmallH	correct	n/a	0.50781	no	n/a	n/a
390.1445312	n/a	99877	largeHSmallT	correct	incongruent	0.53516	no	H	T
390.6796875	n/a	100014	responseSmallT	correct	n/a	0.53516	no	n/a	n/a
391.7460938	n/a	100287	largeHSmallT	correct	incongruent	0.37109	no	H	T
392.1171875	n/a	100382	responseSmallT	correct	n/a	0.37109	no	n/a	n/a
393.1835938	n/a	100655	largeHSmallH	correct	congruent	0.46484	no	H	H
393.6484375	n/a	100774	responseSmallH	correct	n/a	0.46484	no	n/a	n/a
394.71875	n/a	101048	largeHSmallH	correct	congruent	0.37891	no	H	H
395.0976562	n/a	101145	responseSmallH	correct	n/a	0.37891	no	n/a	n/a
396.171875	n/a	101420	largeHSmallH	correct	congruent	0.42578	no	H	H
396.5976562	n/a	101529	responseSmallH	correct	n/a	0.42578	no	n/a	n/a
397.6640625	n/a	101802	largeHSmallH	correct	congruent	0.48047	no	H	H
398.1445312	n/a	101925	responseSmallH	correct	n/a	0.48047	no	n/a	n/a
399.2109375	n/a	102198	largeHSmallT	error	incongruent	0.45703	no	H	T
399.6679688	n/a	102315	responseSmallH	error	n/a	0.45703	no	n/a	n/a
400.7304688	n/a	102587	largeTSmallT	correct	congruent	0.49219	no	T	T
401.2226562	n/a	102713	responseSmallT	correct	n/a	0.49219	no	n/a	n/a
402.2929688	n/a	102987	largeHSmallH	correct	congruent	0.51562	no	H	H
402.8085938	n/a	103119	responseSmallH	correct	n/a	0.51562	no	n/a	n/a
403.8671875	n/a	103390	largeTSmallT	correct	congruent	0.51172	no	T	T
404.3789062	n/a	103521	responseSmallT	correct	n/a	0.51172	no	n/a	n/a
405.453125	n/a	103796	largeHSmallH	correct	congruent	0.40234	no	H	H
405.8554688	n/a	103899	responseSmallH	correct	n/a	0.40234	no	n/a	n/a
406.9335938	n/a	104175	largeTSmallT	correct	congruent	0.49609	no	T	T
407.4296875	n/a	104302	responseSmallT	correct	n/a	0.49609	no	n/a	n/a
408.5039062	n/a	104577	largeHSmallT	correct	incongruent	0.49219	no	H	T
408.9960938	n/a	104703	responseSmallT	correct	n/a	0.49219	no	n/a	n/a
410.0664062	n/a	104977	largeHSmallT	error	incongruent	0.40234	no	H	T
410.46875	n/a	105080	responseSmallH	error	n/a	0.40234	no	n/a	n/a
411.53125	n/a	105352	largeTSmallH	correct	incongruent	0.46094	no	T	H
411.9921875	n/a	105470	responseSmallH	correct	n/a	0.46094	no	n/a	n/a
413.0664062	n/a	105745	largeTSmallT	correct	congruent	0.57031	no	T	T
413.6367188	n/a	105891	responseSmallT	correct	n/a	0.57031	no	n/a	n/a
414.71875	n/a	106168	largeTSmallH	correct	incongruent	0.58984	no	T	H
415.3085938	n/a	106319	responseSmallH	correct	n/a	0.58984	no	n/a	n/a
416.3828125	n/a	106594	largeHSmallT	correct	incongruent	0.49219	no	H	T
416.875	n/a	106720	responseSmallT	correct	n/a	0.49219	no	n/a	n/a
417.9453125	n/a	106994	largeTSmallT	correct	congruent	0.46875	no	T	T
418.4140625	n/a	107114	responseSmallT	correct	n/a	0.46875	no	n/a	n/a
419.4921875	n/a	107390	largeTSmallT	correct	congruent	0.53125	no	T	T
420.0234375	n/a	107526	responseSmallT	correct	n/a	0.53125	no	n/a	n/a
421.0898438	n/a	107799	largeTSmallH	correct	incongruent	0.47266	no	T	H
421.5625	n/a	107920	responseSmallH	correct	n/a	0.47266	no	n/a	n/a
422.6367188	n/a	108195	largeHSmallH	error	congruent	0.4375	no	H	H
423.0742188	n/a	108307	responseSmallT	error	n/a	0.4375	no	n/a	n/a
424.1445312	n/a	108581	largeTSmallH	correct	incongruent	0.67578	no	T	H
424.8203125	n/a	108754	responseSmallH	correct	n/a	0.67578	no	n/a	n/a
425.90625	n/a	109032	largeHSmallH	correct	congruent	0.48047	no	H	H
426.3867188	n/a	109155	responseSmallH	correct	n/a	0.48047	no	n/a	n/a
427.4648438	n/a	109431	largeTSmallT	error	congruent	0.38281	no	T	T
427.8476562	n/a	109529	responseSmallH	error	n/a	0.38281	no	n/a	n/a
428.9179688	n/a	109803	largeHSmallH	correct	congruent	0.41406	no	H	H
429.3320312	n/a	109909	responseSmallH	correct	n/a	0.41406	no	n/a	n/a
430.4101562	n/a	110185	largeHSmallT	correct	incongruent	0.41016	no	H	T
430.8203125	n/a	110290	responseSmallT	correct	n/a	0.41016	no	n/a	n/a
431.890625	n/a	110564	largeHSmallH	correct	congruent	0.41406	no	H	H
432.3046875	n/a	110670	responseSmallH	correct	n/a	0.41406	no	n/a	n/a
433.3710938	n/a	110943	largeTSmallH	correct	incongruent	0.51562	no	T	H
433.8867188	n/a	111075	responseSmallH	correct	n/a	0.51562	no	n/a	n/a
434.9570312	n/a	111349	largeTSmallT	correct	congruent	0.60156	no	T	T
435.5585938	n/a	111503	responseSmallT	correct	n/a	0.60156	no	n/a	n/a
436.6367188	n/a	111779	largeTSmallH	correct	incongruent	0.42578	no	T	H
437.0625	n/a	111888	responseSmallH	correct	n/a	0.42578	no	n/a	n/a
438.1328125	n/a	112162	largeHSmallH	correct	congruent	0.53906	no	H	H
438.671875	n/a	112300	responseSmallH	correct	n/a	0.53906	no	n/a	n/a
439.7304688	n/a	112571	largeTSmallH	correct	incongruent	0.48047	no	T	H
440.2109375	n/a	112694	responseSmallH	correct	n/a	0.48047	no	n/a	n/a
441.2773438	n/a	112967	largeTSmallH	correct	incongruent	0.54297	no	T	H
441.8203125	n/a	113106	responseSmallH	correct	n/a	0.54297	no	n/a	n/a
442.890625	n/a	113380	largeTSmallH	correct	incongruent	0.57812	no	T	H
443.46875	n/a	113528	responseSmallH	correct	n/a	0.57812	no	n/a	n/a
444.5429688	n/a	113803	largeTSmallT	correct	congruent	0.45703	no	T	T
445	n/a	113920	responseSmallT	correct	n/a	0.45703	no	n/a	n/a
446.078125	n/a	114196	largeTSmallH	correct	incongruent	0.39844	no	T	H
446.4765625	n/a	114298	responseSmallH	correct	n/a	0.39844	no	n/a	n/a
447.5585938	n/a	114575	largeTSmallT	correct	congruent	0.48438	no	T	T
448.0429688	n/a	114699	responseSmallT	correct	n/a	0.48438	no	n/a	n/a
449.1171875	n/a	114974	largeTSmallH	correct	incongruent	0.51172	no	T	H
449.6289062	n/a	115105	responseSmallH	correct	n/a	0.51172	no	n/a	n/a
450.703125	n/a	115380	largeHSmallT	error	incongruent	0.35938	no	H	T
451.0625	n/a	115472	responseSmallH	error	n/a	0.35938	no	n/a	n/a
452.1445312	n/a	115749	largeTSmallH	correct	incongruent	0.36719	no	T	H
452.5117188	n/a	115843	responseSmallH	correct	n/a	0.36719	no	n/a	n/a
453.5820312	n/a	116117	largeHSmallT	correct	incongruent	0.48438	no	H	T
454.0664062	n/a	116241	responseSmallT	correct	n/a	0.48438	no	n/a	n/a
455.1289062	n/a	116513	largeTSmallH	correct	incongruent	0.52734	no	T	H
455.65625	n/a	116648	responseSmallH	correct	n/a	0.52734	no	n/a	n/a
456.7304688	n/a	116923	largeTSmallH	correct	incongruent	0.51562	no	T	H
457.2460938	n/a	117055	responseSmallH	correct	n/a	0.51562	no	n/a	n/a
458.3164062	n/a	117329	largeHSmallH	error	congruent	0.45703	no	H	H
458.7734375	n/a	117446	responseSmallT	error	n/a	0.45703	no	n/a	n/a
459.8515625	n/a	117722	largeTSmallH	correct	incongruent	0.59766	no	T	H
460.4492188	n/a	117875	responseSmallH	correct	n/a	0.59766	no	n/a	n/a
461.515625	n/a	118148	largeTSmallT	correct	congruent	0.45703	no	T	T
461.9726562	n/a	118265	responseSmallT	correct	n/a	0.45703	no	n/a	n/a
463.0351562	n/a	118537	largeHSmallH	correct	congruent	0.47266	no	H	H
463.5078125	n/a	118658	responseSmallH	correct	n/a	0.47266	no	n/a	n/a
464.5703125	n/a	118930	largeHSmallH	correct	congruent	0.45703	no	H	H
465.0273438	n/a	119047	responseSmallH	correct	n/a	0.45703	no	n/a	n/a
466.1054688	n/a	119323	largeHSmallT	correct	incongruent	0.57422	no	H	T
466.6796875	n/a	119470	responseSmallT	correct	n/a	0.57422	no	n/a	n/a
467.7578125	n/a	119746	largeHSmallH	correct	congruent	0.48438	no	H	H
468.2421875	n/a	119870	responseSmallH	correct	n/a	0.48438	no	n/a	n/a
469.3164062	n/a	120145	largeTSmallH	correct	incongruent	0.50391	no	T	H
469.8203125	n/a	120274	responseSmallH	correct	n/a	0.50391	no	n/a	n/a
470.890625	n/a	120548	largeTSmallT	correct	congruent	0.57031	no	T	T
471.4609375	n/a	120694	responseSmallT	correct	n/a	0.57031	no	n/a	n/a
472.53125	n/a	120968	largeHSmallT	correct	incongruent	0.50781	no	H	T
473.0390625	n/a	121098	responseSmallT	correct	n/a	0.50781	no	n/a	n/a
474.1054688	n/a	121371	largeHSmallT	correct	incongruent	0.4375	no	H	T
474.5429688	n/a	121483	responseSmallT	correct	n/a	0.4375	no	n/a	n/a
475.609375	n/a	121756	largeTSmallT	correct	congruent	0.46875	no	T	T
476.078125	n/a	121876	responseSmallT	correct	n/a	0.46875	no	n/a	n/a
477.1445312	n/a	122149	largeTSmallH	correct	incongruent	0.44141	no	T	H
477.5859375	n/a	122262	responseSmallH	correct	n/a	0.44141	no	n/a	n/a
478.6640625	n/a	122538	largeTSmallT	correct	congruent	0.62891	no	T	T
479.2929688	n/a	122699	responseSmallT	correct	n/a	0.62891	no	n/a	n/a
480.3554688	n/a	122971	largeHSmallT	correct	incongruent	0.44141	no	H	T
480.796875	n/a	123084	responseSmallT	correct	n/a	0.44141	no	n/a	n/a
481.875	n/a	123360	largeTSmallT	correct	congruent	0.49219	no	T	T
482.3671875	n/a	123486	responseSmallT	correct	n/a	0.49219	no	n/a	n/a
483.4375	n/a	123760	largeTSmallT	correct	congruent	0.50391	no	T	T
483.9414062	n/a	123889	responseSmallT	correct	n/a	0.50391	no	n/a	n/a
485.0078125	n/a	124162	largeHSmallT	correct	incongruent	0.48438	no	H	T
485.4921875	n/a	124286	responseSmallT	correct	n/a	0.48438	no	n/a	n/a
486.5703125	n/a	124562	largeHSmallH	correct	congruent	0.37891	no	H	H
486.9492188	n/a	124659	responseSmallH	correct	n/a	0.37891	no	n/a	n/a
488.0234375	n/a	124934	largeHSmallH	correct	congruent	0.39453	no	H	H
488.4179688	n/a	125035	responseSmallH	correct	n/a	0.39453	no	n/a	n/a
489.4882812	n/a	125309	largeHSmallT	correct	incongruent	0.62109	no	H	T
490.109375	n/a	125468	responseSmallT	correct	n/a	0.62109	no	n/a	n/a
491.1835938	n/a	125743	largeHSmallT	correct	incongruent	0.375	no	H	T
491.5585938	n/a	125839	responseSmallT	correct	n/a	0.375	no	n/a	n/a
492.6210938	n/a	126111	largeHSmallH	correct	congruent	0.43359	no	H	H
493.0546875	n/a	126222	responseSmallH	correct	n/a	0.43359	no	n/a	n/a
494.1289062	n/a	126497	largeHSmallT	correct	incongruent	0.41797	no	H	T
494.546875	n/a	126604	responseSmallT	correct	n/a	0.41797	no	n/a	n/a
495.609375	n/a	126876	largeHSmallH	correct	congruent	0.41016	no	H	H
496.0195312	n/a	126981	responseSmallH	correct	n/a	0.41016	no	n/a	n/a
497.0898438	n/a	127255	largeTSmallH	correct	incongruent	0.48438	no	T	H
497.5742188	n/a	127379	responseSmallH	correct	n/a	0.48438	no	n/a	n/a
498.6367188	n/a	127651	largeTSmallH	correct	incongruent	0.44922	no	T	H
499.0859375	n/a	127766	responseSmallH	correct	n/a	0.44922	no	n/a	n/a
500.15625	n/a	128040	largeHSmallT	correct	incongruent	0.49219	no	H	T
500.6484375	n/a	128166	responseSmallT	correct	n/a	0.49219	no	n/a	n/a
501.7148438	n/a	128439	largeHSmallH	correct	congruent	0.41797	no	H	H
502.1328125	n/a	128546	responseSmallH	correct	n/a	0.41797	no	n/a	n/a
503.1953125	n/a	128818	largeTSmallT	correct	congruent	0.46094	no	T	T
503.65625	n/a	128936	responseSmallT	correct	n/a	0.46094	no	n/a	n/a
504.7304688	n/a	129211	largeHSmallT	correct	incongruent	0.46875	no	H	T
505.1992188	n/a	129331	responseSmallT	correct	n/a	0.46875	no	n/a	n/a
506.2773438	n/a	129607	largeTSmallH	correct	incongruent	0.51562	no	T	H
506.7929688	n/a	129739	responseSmallH	correct	n/a	0.51562	no	n/a	n/a
507.8632812	n/a	130013	largeHSmallT	correct	incongruent	0.52734	no	H	T
508.390625	n/a	130148	responseSmallT	correct	n/a	0.52734	no	n/a	n/a
509.4609375	n/a	130422	largeHSmallT	error	incongruent	0.40234	no	H	T
509.8632812	n/a	130525	responseSmallH	error	n/a	0.40234	no	n/a	n/a
510.9296875	n/a	130798	largeHSmallH	correct	congruent	0.39062	no	H	H
511.3203125	n/a	130898	responseSmallH	correct	n/a	0.39062	no	n/a	n/a
512.3828125	n/a	131170	largeHSmallH	correct	congruent	0.48828	no	H	H
512.8710938	n/a	131295	responseSmallH	correct	n/a	0.48828	no	n/a	n/a
513.9414062	n/a	131569	largeHSmallT	correct	incongruent	0.53125	no	H	T
514.4726562	n/a	131705	responseSmallT	correct	n/a	0.53125	no	n/a	n/a
515.5429688	n/a	131979	largeHSmallH	correct	congruent	0.50391	no	H	H
516.046875	n/a	132108	responseSmallH	correct	n/a	0.50391	no	n/a	n/a
517.1171875	n/a	132382	largeHSmallH	correct	congruent	0.46875	no	H	H
517.5859375	n/a	132502	responseSmallH	correct	n/a	0.46875	no	n/a	n/a
518.6640625	n/a	132778	largeHSmallH	correct	congruent	0.43359	no	H	H
519.0976562	n/a	132889	responseSmallH	correct	n/a	0.43359	no	n/a	n/a
520.1679688	n/a	133163	largeHSmallH	correct	congruent	0.4375	no	H	H
520.6054688	n/a	133275	responseSmallH	correct	n/a	0.4375	no	n/a	n/a
521.6640625	n/a	133546	largeHSmallH	correct	congruent	0.45312	no	H	H
522.1171875	n/a	133662	responseSmallH	correct	n/a	0.45312	no	n/a	n/a
523.1953125	n/a	133938	largeTSmallH	correct	incongruent	0.44922	no	T	H
523.6445312	n/a	134053	responseSmallH	correct	n/a	0.44922	no	n/a	n/a
524.7148438	n/a	134327	largeTSmallH	correct	incongruent	0.46094	no	T	H
525.1757812	n/a	134445	responseSmallH	correct	n/a	0.46094	no	n/a	n/a
526.234375	n/a	134716	largeHSmallT	correct	incongruent	0.42969	no	H	T
526.6640625	n/a	134826	responseSmallT	correct	n/a	0.42969	no	n/a	n/a
527.7421875	n/a	135102	largeTSmallH	correct	incongruent	0.46094	no	T	H
528.203125	n/a	135220	responseSmallH	correct	n/a	0.46094	no	n/a	n/a
529.2617188	n/a	135491	largeTSmallT	correct	congruent	0.41797	no	T	T
529.6796875	n/a	135598	responseSmallT	correct	n/a	0.41797	no	n/a	n/a
530.7421875	n/a	135870	largeTSmallT	correct	congruent	0.54297	no	T	T
531.2851562	n/a	136009	responseSmallT	correct	n/a	0.54297	no	n/a	n/a
532.3554688	n/a	136283	largeHSmallT	correct	incongruent	0.50391	no	H	T
532.859375	n/a	136412	responseSmallT	correct	n/a	0.50391	no	n/a	n/a
533.9296875	n/a	136686	largeHSmallT	correct	incongruent	0.57422	no	H	T
534.5039062	n/a	136833	responseSmallT	correct	n/a	0.57422	no	n/a	n/a
535.5703125	n/a	137106	largeTSmallT	correct	congruent	0.41406	no	T	T
535.984375	n/a	137212	responseSmallT	correct	n/a	0.41406	no	n/a	n/a
537.046875	n/a	137484	largeTSmallT	correct	congruent	0.41016	no	T	T
537.4570312	n/a	137589	responseSmallT	correct	n/a	0.41016	no	n/a	n/a
538.5273438	n/a	137863	largeTSmallT	correct	congruent	0.41016	no	T	T
538.9375	n/a	137968	responseSmallT	correct	n/a	0.41016	no	n/a	n/a
540.0078125	n/a	138242	largeTSmallT	correct	congruent	0.39062	no	T	T
540.3984375	n/a	138342	responseSmallT	correct	n/a	0.39062	no	n/a	n/a
541.4609375	n/a	138614	largeTSmallH	correct	incongruent	0.46484	no	T	H
541.9257812	n/a	138733	responseSmallH	correct	n/a	0.46484	no	n/a	n/a
542.9960938	n/a	139007	largeHSmallH	error	congruent	0.44141	no	H	H
543.4375	n/a	139120	responseSmallT	error	n/a	0.44141	no	n/a	n/a
544.5	n/a	139392	largeHSmallT	correct	incongruent	0.53516	no	H	T
545.0351562	n/a	139529	responseSmallT	correct	n/a	0.53516	no	n/a	n/a
546.1015625	n/a	139802	largeTSmallH	correct	incongruent	0.42969	no	T	H
546.53125	n/a	139912	responseSmallH	correct	n/a	0.42969	no	n/a	n/a
547.59375	n/a	140184	largeTSmallT	correct	congruent	0.45703	no	T	T
548.0507812	n/a	140301	responseSmallT	correct	n/a	0.45703	no	n/a	n/a
549.1289062	n/a	140577	largeTSmallT	correct	congruent	0.52344	no	T	T
549.6523438	n/a	140711	responseSmallT	correct	n/a	0.52344	no	n/a	n/a
550.7148438	n/a	140983	largeHSmallT	correct	incongruent	0.47656	no	H	T
551.1914062	n/a	141105	responseSmallT	correct	n/a	0.47656	no	n/a	n/a
552.2617188	n/a	141379	largeTSmallT	correct	congruent	0.46875	no	T	T
552.7304688	n/a	141499	responseSmallT	correct	n/a	0.46875	no	n/a	n/a
553.8085938	n/a	141775	largeTSmallT	correct	congruent	0.46875	no	T	T
554.2773438	n/a	141895	responseSmallT	correct	n/a	0.46875	no	n/a	n/a
555.3554688	n/a	142171	largeTSmallH	correct	incongruent	0.51953	no	T	H
555.875	n/a	142304	responseSmallH	correct	n/a	0.51953	no	n/a	n/a
556.9414062	n/a	142577	largeHSmallT	correct	incongruent	0.45312	no	H	T
557.3945312	n/a	142693	responseSmallT	correct	n/a	0.45312	no	n/a	n/a
558.4765625	n/a	142970	largeHSmallH	correct	congruent	0.43359	no	H	H
558.9101562	n/a	143081	responseSmallH	correct	n/a	0.43359	no	n/a	n/a
559.9804688	n/a	143355	largeTSmallT	correct	congruent	0.53906	no	T	T
560.5195312	n/a	143493	responseSmallT	correct	n/a	0.53906	no	n/a	n/a
561.59375	n/a	143768	largeHSmallT	correct	incongruent	0.48438	no	H	T
562.078125	n/a	143892	responseSmallT	correct	n/a	0.48438	no	n/a	n/a
563.15625	n/a	144168	largeHSmallH	correct	congruent	0.54688	no	H	H
563.703125	n/a	144308	responseSmallH	correct	n/a	0.54688	no	n/a	n/a
564.7695312	n/a	144581	largeTSmallT	correct	congruent	0.42188	no	T	T
565.1914062	n/a	144689	responseSmallT	correct	n/a	0.42188	no	n/a	n/a
566.2734375	n/a	144966	largeTSmallH	correct	incongruent	0.33984	no	T	H
566.6132812	n/a	145053	responseSmallH	correct	n/a	0.33984	no	n/a	n/a
567.6875	n/a	145328	largeTSmallH	correct	incongruent	0.41016	no	T	H
568.0976562	n/a	145433	responseSmallH	correct	n/a	0.41016	no	n/a	n/a
569.1679688	n/a	145707	largeTSmallH	correct	incongruent	0.47266	no	T	H
569.640625	n/a	145828	responseSmallH	correct	n/a	0.47266	no	n/a	n/a
570.7148438	n/a	146103	largeHSmallH	correct	congruent	0.48047	no	H	H
571.1953125	n/a	146226	responseSmallH	correct	n/a	0.48047	no	n/a	n/a
572.2734375	n/a	146502	largeTSmallT	correct	congruent	0.39844	no	T	T
572.671875	n/a	146604	responseSmallT	correct	n/a	0.39844	no	n/a	n/a
573.7421875	n/a	146878	largeHSmallH	correct	congruent	0.34375	no	H	H
574.0859375	n/a	146966	responseSmallH	correct	n/a	0.34375	no	n/a	n/a
575.1523438	n/a	147239	largeTSmallT	correct	congruent	0.48438	no	T	T
575.6367188	n/a	147363	responseSmallT	correct	n/a	0.48438	no	n/a	n/a
576.6992188	n/a	147635	largeHSmallT	correct	incongruent	0.48438	no	H	T
577.1835938	n/a	147759	responseSmallT	correct	n/a	0.48438	no	n/a	n/a
578.2460938	n/a	148031	largeHSmallT	error	incongruent	0.44531	no	H	T
578.6914062	n/a	148145	responseSmallH	error	n/a	0.44531	no	n/a	n/a
579.765625	n/a	148420	largeTSmallT	correct	congruent	0.52734	no	T	T
580.2929688	n/a	148555	responseSmallT	correct	n/a	0.52734	no	n/a	n/a
581.3671875	n/a	148830	largeHSmallH	correct	congruent	0.45703	no	H	H
581.8242188	n/a	148947	responseSmallH	correct	n/a	0.45703	no	n/a	n/a
582.9023438	n/a	149223	largeTSmallT	correct	congruent	0.53906	no	T	T
583.4414062	n/a	149361	responseSmallT	correct	n/a	0.53906	no	n/a	n/a
584.5	n/a	149632	largeTSmallT	correct	congruent	0.47266	no	T	T
584.9726562	n/a	149753	responseSmallT	correct	n/a	0.47266	no	n/a	n/a
586.046875	n/a	150028	largeTSmallT	correct	congruent	0.51172	no	T	T
586.5585938	n/a	150159	responseSmallT	correct	n/a	0.51172	no	n/a	n/a
587.6210938	n/a	150431	largeHSmallH	correct	congruent	0.54297	no	H	H
588.1640625	n/a	150570	responseSmallH	correct	n/a	0.54297	no	n/a	n/a
589.234375	n/a	150844	largeTSmallH	correct	incongruent	0.52344	no	T	H
589.7578125	n/a	150978	responseSmallH	correct	n/a	0.52344	no	n/a	n/a
590.8203125	n/a	151250	largeTSmallT	correct	congruent	0.48828	no	T	T
591.3085938	n/a	151375	responseSmallT	correct	n/a	0.48828	no	n/a	n/a
592.3789062	n/a	151649	largeHSmallH	error	congruent	0.45312	no	H	H
592.8320312	n/a	151765	responseSmallT	error	n/a	0.45312	no	n/a	n/a
593.9023438	n/a	152039	largeHSmallH	correct	congruent	0.52344	no	H	H
594.4257812	n/a	152173	responseSmallH	correct	n/a	0.52344	no	n/a	n/a
595.5	n/a	152448	largeTSmallH	correct	incongruent	0.46094	no	T	H
595.9609375	n/a	152566	responseSmallH	correct	n/a	0.46094	no	n/a	n/a
597.0351562	n/a	152841	largeHSmallT	correct	incongruent	0.57031	no	H	T
597.6054688	n/a	152987	responseSmallT	correct	n/a	0.57031	no	n/a	n/a
598.671875	n/a	153260	largeTSmallH	correct	incongruent	0.46875	no	T	H
599.140625	n/a	153380	responseSmallH	correct	n/a	0.46875	no	n/a	n/a
600.21875	n/a	153656	largeHSmallT	correct	incongruent	0.44141	no	H	T
600.6601562	n/a	153769	responseSmallT	correct	n/a	0.44141	no	n/a	n/a
601.7265625	n/a	154042	largeHSmallT	error	incongruent	0.42578	no	H	T
602.1523438	n/a	154151	responseSmallH	error	n/a	0.42578	no	n/a	n/a
603.21875	n/a	154424	largeTSmallH	correct	incongruent	0.45312	no	T	H
603.671875	n/a	154540	responseSmallH	correct	n/a	0.45312	no	n/a	n/a
604.7382812	n/a	154813	largeHSmallH	correct	congruent	0.51172	no	H	H
605.25	n/a	154944	responseSmallH	correct	n/a	0.51172	no	n/a	n/a
606.3125	n/a	155216	largeTSmallH	correct	incongruent	0.76562	no	T	H
607.078125	n/a	155412	responseSmallH	correct	n/a	0.76562	no	n/a	n/a
608.1523438	n/a	155687	largeHSmallH	correct	congruent	0.50781	no	H	H
608.6601562	n/a	155817	responseSmallH	correct	n/a	0.50781	no	n/a	n/a
609.7265625	n/a	156090	largeHSmallH	correct	congruent	0.44141	no	H	H
610.1679688	n/a	156203	responseSmallH	correct	n/a	0.44141	no	n/a	n/a
611.2460938	n/a	156479	largeTSmallH	correct	incongruent	0.42188	no	T	H
611.6679688	n/a	156587	responseSmallH	correct	n/a	0.42188	no	n/a	n/a
612.7382812	n/a	156861	largeHSmallT	error	incongruent	0.42578	no	H	T
613.1640625	n/a	156970	responseSmallH	error	n/a	0.42578	no	n/a	n/a
614.2460938	n/a	157247	largeHSmallH	correct	congruent	0.41797	no	H	H
614.6640625	n/a	157354	responseSmallH	correct	n/a	0.41797	no	n/a	n/a
615.7382812	n/a	157629	largeHSmallH	correct	congruent	0.46094	no	H	H
616.1992188	n/a	157747	responseSmallH	correct	n/a	0.46094	no	n/a	n/a
617.2617188	n/a	158019	largeHSmallT	correct	incongruent	0.45703	no	H	T
617.71875	n/a	158136	responseSmallT	correct	n/a	0.45703	no	n/a	n/a
618.7929688	n/a	158411	largeTSmallT	correct	congruent	0.50391	no	T	T
619.296875	n/a	158540	responseSmallT	correct	n/a	0.50391	no	n/a	n/a
620.3671875	n/a	158814	largeTSmallT	correct	congruent	0.46094	no	T	T
620.828125	n/a	158932	responseSmallT	correct	n/a	0.46094	no	n/a	n/a
621.8984375	n/a	159206	largeTSmallT	correct	congruent	0.48047	no	T	T
622.3789062	n/a	159329	responseSmallT	correct	n/a	0.48047	no	n/a	n/a
623.4453125	n/a	159602	largeTSmallT	correct	congruent	0.50391	no	T	T
623.9492188	n/a	159731	responseSmallT	correct	n/a	0.50391	no	n/a	n/a
625.0195312	n/a	160005	largeTSmallT	correct	congruent	0.45312	no	T	T
625.4726562	n/a	160121	responseSmallT	correct	n/a	0.45312	no	n/a	n/a
626.5546875	n/a	160398	largeHSmallH	correct	congruent	0.5	no	H	H
627.0546875	n/a	160526	responseSmallH	correct	n/a	0.5	no	n/a	n/a
628.125	n/a	160800	largeTSmallH	correct	incongruent	0.50391	no	T	H
628.6289062	n/a	160929	responseSmallH	correct	n/a	0.50391	no	n/a	n/a
629.6992188	n/a	161203	largeHSmallT	correct	incongruent	0.44141	no	H	T
630.140625	n/a	161316	responseSmallT	correct	n/a	0.44141	no	n/a	n/a
631.2070312	n/a	161589	largeHSmallT	correct	incongruent	0.50781	no	H	T
631.7148438	n/a	161719	responseSmallT	correct	n/a	0.50781	no	n/a	n/a
645.6328125	n/a	165282	largeTSmallT	correct	congruent	0.97266	no	T	T
646.6054688	n/a	165531	responseLargeT	correct	n/a	0.97266	no	n/a	n/a
647.671875	n/a	165804	largeHSmallT	correct	incongruent	0.51953	no	H	T
648.1914062	n/a	165937	responseLargeH	correct	n/a	0.51953	no	n/a	n/a
649.2578125	n/a	166210	largeTSmallH	correct	incongruent	0.57812	no	T	H
649.8359375	n/a	166358	responseLargeT	correct	n/a	0.57812	no	n/a	n/a
650.8984375	n/a	166630	largeTSmallH	correct	incongruent	0.44141	no	T	H
651.3398438	n/a	166743	responseLargeT	correct	n/a	0.44141	no	n/a	n/a
652.4179688	n/a	167019	largeHSmallH	correct	congruent	0.47656	no	H	H
652.8945312	n/a	167141	responseLargeH	correct	n/a	0.47656	no	n/a	n/a
653.9804688	n/a	167419	largeHSmallT	correct	incongruent	0.74219	no	H	T
654.7226562	n/a	167609	responseLargeH	correct	n/a	0.74219	no	n/a	n/a
655.7929688	n/a	167883	largeTSmallT	correct	congruent	0.49609	no	T	T
656.2890625	n/a	168010	responseLargeT	correct	n/a	0.49609	no	n/a	n/a
657.3515625	n/a	168282	largeHSmallT	correct	incongruent	1.2461	no	H	T
658.5976562	n/a	168601	responseLargeH	correct	n/a	1.2461	no	n/a	n/a
659.671875	n/a	168876	largeTSmallT	correct	congruent	0.53516	no	T	T
660.2070312	n/a	169013	responseLargeT	correct	n/a	0.53516	no	n/a	n/a
661.2734375	n/a	169286	largeTSmallH	error	incongruent	0.38672	no	T	H
661.6601562	n/a	169385	responseLargeH	error	n/a	0.38672	no	n/a	n/a
662.7265625	n/a	169658	largeHSmallH	correct	congruent	0.42578	no	H	H
663.1523438	n/a	169767	responseLargeH	correct	n/a	0.42578	no	n/a	n/a
664.21875	n/a	170040	largeTSmallH	correct	incongruent	0.37891	no	T	H
664.5976562	n/a	170137	responseLargeT	correct	n/a	0.37891	no	n/a	n/a
665.671875	n/a	170412	largeTSmallT	correct	congruent	0.4375	no	T	T
666.109375	n/a	170524	responseLargeT	correct	n/a	0.4375	no	n/a	n/a
667.1796875	n/a	170798	largeTSmallT	correct	congruent	0.52344	no	T	T
667.703125	n/a	170932	responseLargeT	correct	n/a	0.52344	no	n/a	n/a
668.7773438	n/a	171207	largeHSmallT	correct	incongruent	0.36328	no	H	T
669.140625	n/a	171300	responseLargeH	correct	n/a	0.36328	no	n/a	n/a
670.21875	n/a	171576	largeTSmallH	correct	incongruent	0.37109	no	T	H
670.5898438	n/a	171671	responseLargeT	correct	n/a	0.37109	no	n/a	n/a
671.6601562	n/a	171945	largeHSmallH	correct	congruent	0.34766	no	H	H
672.0078125	n/a	172034	responseLargeH	correct	n/a	0.34766	no	n/a	n/a
673.0859375	n/a	172310	largeHSmallH	correct	congruent	0.43359	no	H	H
673.5195312	n/a	172421	responseLargeH	correct	n/a	0.43359	no	n/a	n/a
674.5898438	n/a	172695	largeTSmallH	correct	incongruent	0.34375	no	T	H
674.9335938	n/a	172783	responseLargeT	correct	n/a	0.34375	no	n/a	n/a
676.0039062	n/a	173057	largeTSmallH	correct	incongruent	0.45312	no	T	H
676.4570312	n/a	173173	responseLargeT	correct	n/a	0.45312	no	n/a	n/a
677.5234375	n/a	173446	largeTSmallH	correct	incongruent	0.41797	no	T	H
677.9414062	n/a	173553	responseLargeT	correct	n/a	0.41797	no	n/a	n/a
679.0039062	n/a	173825	largeHSmallT	correct	incongruent	0.38281	no	H	T
679.3867188	n/a	173923	responseLargeH	correct	n/a	0.38281	no	n/a	n/a
680.4570312	n/a	174197	largeTSmallT	correct	congruent	0.50781	no	T	T
680.9648438	n/a	174327	responseLargeT	correct	n/a	0.50781	no	n/a	n/a
682.03125	n/a	174600	largeTSmallH	correct	incongruent	0.37109	no	T	H
682.4023438	n/a	174695	responseLargeT	correct	n/a	0.37109	no	n/a	n/a
683.4726562	n/a	174969	largeHSmallT	correct	incongruent	0.37109	no	H	T
683.84375	n/a	175064	responseLargeH	correct	n/a	0.37109	no	n/a	n/a
684.9101562	n/a	175337	largeTSmallH	correct	incongruent	0.41016	no	T	H
685.3203125	n/a	175442	responseLargeT	correct	n/a	0.41016	no	n/a	n/a
686.390625	n/a	175716	largeTSmallT	correct	congruent	0.44141	no	T	T
686.8320312	n/a	175829	responseLargeT	correct	n/a	0.44141	no	n/a	n/a
687.8984375	n/a	176102	largeTSmallH	correct	incongruent	0.34766	no	T	H
688.2460938	n/a	176191	responseLargeT	correct	n/a	0.34766	no	n/a	n/a
689.3242188	n/a	176467	largeTSmallH	correct	incongruent	0.38672	no	T	H
689.7109375	n/a	176566	responseLargeT	correct	n/a	0.38672	no	n/a	n/a
690.7929688	n/a	176843	largeTSmallT	correct	congruent	0.375	no	T	T
691.1679688	n/a	176939	responseLargeT	correct	n/a	0.375	no	n/a	n/a
692.2460938	n/a	177215	largeHSmallT	correct	incongruent	0.43359	no	H	T
692.6796875	n/a	177326	responseLargeH	correct	n/a	0.43359	no	n/a	n/a
693.75	n/a	177600	largeHSmallH	correct	congruent	0.41016	no	H	H
694.1601562	n/a	177705	responseLargeH	correct	n/a	0.41016	no	n/a	n/a
695.2304688	n/a	177979	largeTSmallH	correct	incongruent	0.46484	no	T	H
695.6953125	n/a	178098	responseLargeT	correct	n/a	0.46484	no	n/a	n/a
696.765625	n/a	178372	largeHSmallH	correct	congruent	0.44922	no	H	H
697.2148438	n/a	178487	responseLargeH	correct	n/a	0.44922	no	n/a	n/a
698.296875	n/a	178764	largeHSmallT	correct	incongruent	0.4375	no	H	T
698.734375	n/a	178876	responseLargeH	correct	n/a	0.4375	no	n/a	n/a
699.8046875	n/a	179150	largeHSmallH	error	congruent	0.37109	no	H	H
700.1757812	n/a	179245	responseLargeT	error	n/a	0.37109	no	n/a	n/a
701.2460938	n/a	179519	largeHSmallT	correct	incongruent	0.44141	no	H	T
701.6875	n/a	179632	responseLargeH	correct	n/a	0.44141	no	n/a	n/a
702.75	n/a	179904	largeHSmallT	correct	incongruent	0.39844	no	H	T
703.1484375	n/a	180006	responseLargeH	correct	n/a	0.39844	no	n/a	n/a
704.21875	n/a	180280	largeHSmallT	correct	incongruent	0.41797	no	H	T
704.6367188	n/a	180387	responseLargeH	correct	n/a	0.41797	no	n/a	n/a
705.6992188	n/a	180659	largeTSmallT	correct	congruent	0.36328	no	T	T
706.0625	n/a	180752	responseLargeT	correct	n/a	0.36328	no	n/a	n/a
707.1367188	n/a	181027	largeHSmallT	correct	incongruent	0.44141	no	H	T
707.578125	n/a	181140	responseLargeH	correct	n/a	0.44141	no	n/a	n/a
708.65625	n/a	181416	largeHSmallT	correct	incongruent	0.49609	no	H	T
709.1523438	n/a	181543	responseLargeH	correct	n/a	0.49609	no	n/a	n/a
710.2304688	n/a	181819	largeTSmallH	correct	incongruent	0.43359	no	T	H
710.6640625	n/a	181930	responseLargeT	correct	n/a	0.43359	no	n/a	n/a
711.7382812	n/a	182205	largeTSmallH	error	incongruent	0.38672	no	T	H
712.125	n/a	182304	responseLargeH	error	n/a	0.38672	no	n/a	n/a
713.1914062	n/a	182577	largeHSmallT	correct	incongruent	0.38672	no	H	T
713.578125	n/a	182676	responseLargeH	correct	n/a	0.38672	no	n/a	n/a
714.65625	n/a	182952	largeTSmallH	correct	incongruent	0.46875	no	T	H
715.125	n/a	183072	responseLargeT	correct	n/a	0.46875	no	n/a	n/a
716.203125	n/a	183348	largeTSmallT	correct	congruent	0.45703	no	T	T
716.6601562	n/a	183465	responseLargeT	correct	n/a	0.45703	no	n/a	n/a
717.7226562	n/a	183737	largeHSmallT	correct	incongruent	0.39844	no	H	T
718.1210938	n/a	183839	responseLargeH	correct	n/a	0.39844	no	n/a	n/a
719.203125	n/a	184116	largeTSmallT	correct	congruent	0.5625	no	T	T
719.765625	n/a	184260	responseLargeT	correct	n/a	0.5625	no	n/a	n/a
720.8320312	n/a	184533	largeHSmallH	correct	congruent	0.39453	no	H	H
721.2265625	n/a	184634	responseLargeH	correct	n/a	0.39453	no	n/a	n/a
722.296875	n/a	184908	largeTSmallH	error	incongruent	0.42578	no	T	H
722.7226562	n/a	185017	responseLargeH	error	n/a	0.42578	no	n/a	n/a
723.8046875	n/a	185294	largeTSmallT	correct	congruent	0.39062	no	T	T
724.1953125	n/a	185394	responseLargeT	correct	n/a	0.39062	no	n/a	n/a
725.2695312	n/a	185669	largeHSmallH	error	congruent	0.35938	no	H	H
725.6289062	n/a	185761	responseLargeT	error	n/a	0.35938	no	n/a	n/a
726.6953125	n/a	186034	largeHSmallT	correct	incongruent	0.58984	no	H	T
727.2851562	n/a	186185	responseLargeH	correct	n/a	0.58984	no	n/a	n/a
728.3515625	n/a	186458	largeTSmallT	error	congruent	0.36328	no	T	T
728.7148438	n/a	186551	responseLargeH	error	n/a	0.36328	no	n/a	n/a
729.7890625	n/a	186826	largeHSmallT	correct	incongruent	0.42188	no	H	T
730.2109375	n/a	186934	responseLargeH	correct	n/a	0.42188	no	n/a	n/a
731.2851562	n/a	187209	largeHSmallT	correct	incongruent	0.34766	no	H	T
731.6328125	n/a	187298	responseLargeH	correct	n/a	0.34766	no	n/a	n/a
732.7109375	n/a	187574	largeTSmallT	correct	congruent	0.37891	no	T	T
733.0898438	n/a	187671	responseLargeT	correct	n/a	0.37891	no	n/a	n/a
734.1640625	n/a	187946	largeTSmallH	correct	incongruent	0.35156	no	T	H
734.515625	n/a	188036	responseLargeT	correct	n/a	0.35156	no	n/a	n/a
735.5898438	n/a	188311	largeHSmallT	correct	incongruent	0.47266	no	H	T
736.0625	n/a	188432	responseLargeH	correct	n/a	0.47266	no	n/a	n/a
737.1367188	n/a	188707	largeTSmallH	correct	incongruent	0.59766	no	T	H
737.734375	n/a	188860	responseLargeT	correct	n/a	0.59766	no	n/a	n/a
738.8046875	n/a	189134	largeTSmallT	correct	congruent	0.43359	no	T	T
739.2382812	n/a	189245	responseLargeT	correct	n/a	0.43359	no	n/a	n/a
740.3085938	n/a	189519	largeTSmallT	correct	congruent	0.41406	no	T	T
740.7226562	n/a	189625	responseLargeT	correct	n/a	0.41406	no	n/a	n/a
741.7890625	n/a	189898	largeTSmallH	correct	incongruent	0.45703	no	T	H
742.2460938	n/a	190015	responseLargeT	correct	n/a	0.45703	no	n/a	n/a
743.3085938	n/a	190287	largeHSmallT	correct	incongruent	0.45703	no	H	T
743.765625	n/a	190404	responseLargeH	correct	n/a	0.45703	no	n/a	n/a
744.84375	n/a	190680	largeTSmallH	correct	incongruent	0.43359	no	T	H
745.2773438	n/a	190791	responseLargeT	correct	n/a	0.43359	no	n/a	n/a
746.3359375	n/a	191062	largeHSmallH	correct	congruent	0.41016	no	H	H
746.7460938	n/a	191167	responseLargeH	correct	n/a	0.41016	no	n/a	n/a
747.8164062	n/a	191441	largeHSmallT	correct	incongruent	0.41016	no	H	T
748.2265625	n/a	191546	responseLargeH	correct	n/a	0.41016	no	n/a	n/a
749.296875	n/a	191820	largeHSmallT	error	incongruent	0.37891	no	H	T
749.6757812	n/a	191917	responseLargeT	error	n/a	0.37891	no	n/a	n/a
750.75	n/a	192192	largeHSmallH	correct	congruent	0.34375	no	H	H
751.09375	n/a	192280	responseLargeH	correct	n/a	0.34375	no	n/a	n/a
752.1640625	n/a	192554	largeHSmallH	correct	congruent	0.3125	no	H	H
752.4765625	n/a	192634	responseLargeH	correct	n/a	0.3125	no	n/a	n/a
753.5507812	n/a	192909	largeTSmallH	correct	incongruent	0.64062	no	T	H
754.1914062	n/a	193073	responseLargeT	correct	n/a	0.64062	no	n/a	n/a
755.2695312	n/a	193349	largeHSmallH	correct	congruent	0.44531	no	H	H
755.7148438	n/a	193463	responseLargeH	correct	n/a	0.44531	no	n/a	n/a
756.7773438	n/a	193735	largeTSmallH	correct	incongruent	0.42578	no	T	H
757.203125	n/a	193844	responseLargeT	correct	n/a	0.42578	no	n/a	n/a
758.2695312	n/a	194117	largeTSmallT	correct	congruent	0.48828	no	T	T
758.7578125	n/a	194242	responseLargeT	correct	n/a	0.48828	no	n/a	n/a
759.828125	n/a	194516	largeHSmallT	correct	incongruent	0.4375	no	H	T
760.265625	n/a	194628	responseLargeH	correct	n/a	0.4375	no	n/a	n/a
761.3359375	n/a	194902	largeHSmallH	correct	congruent	0.42578	no	H	H
761.7617188	n/a	195011	responseLargeH	correct	n/a	0.42578	no	n/a	n/a
762.828125	n/a	195284	largeHSmallT	correct	incongruent	0.5	no	H	T
763.328125	n/a	195412	responseLargeH	correct	n/a	0.5	no	n/a	n/a
764.4023438	n/a	195687	largeHSmallT	correct	incongruent	0.49609	no	H	T
764.8984375	n/a	195814	responseLargeH	correct	n/a	0.49609	no	n/a	n/a
765.9609375	n/a	196086	largeTSmallH	correct	incongruent	0.38281	no	T	H
766.34375	n/a	196184	responseLargeT	correct	n/a	0.38281	no	n/a	n/a
767.4140625	n/a	196458	largeTSmallT	correct	congruent	0.41406	no	T	T
767.828125	n/a	196564	responseLargeT	correct	n/a	0.41406	no	n/a	n/a
768.8945312	n/a	196837	largeTSmallH	correct	incongruent	0.40234	no	T	H
769.296875	n/a	196940	responseLargeT	correct	n/a	0.40234	no	n/a	n/a
770.3632812	n/a	197213	largeTSmallT	correct	congruent	0.49609	no	T	T
770.859375	n/a	197340	responseLargeT	correct	n/a	0.49609	no	n/a	n/a
771.921875	n/a	197612	largeTSmallT	correct	congruent	0.44141	no	T	T
772.3632812	n/a	197725	responseLargeT	correct	n/a	0.44141	no	n/a	n/a
773.4414062	n/a	198001	largeTSmallH	correct	incongruent	0.44531	no	T	H
773.8867188	n/a	198115	responseLargeT	correct	n/a	0.44531	no	n/a	n/a
774.9492188	n/a	198387	largeTSmallT	correct	congruent	0.34375	no	T	T
775.2929688	n/a	198475	responseLargeT	correct	n/a	0.34375	no	n/a	n/a
776.375	n/a	198752	largeHSmallH	correct	congruent	0.39453	no	H	H
776.7695312	n/a	198853	responseLargeH	correct	n/a	0.39453	no	n/a	n/a
777.84375	n/a	199128	largeHSmallT	correct	incongruent	0.39844	no	H	T
778.2421875	n/a	199230	responseLargeH	correct	n/a	0.39844	no	n/a	n/a
779.3242188	n/a	199507	largeTSmallT	correct	congruent	0.55859	no	T	T
779.8828125	n/a	199650	responseLargeT	correct	n/a	0.55859	no	n/a	n/a
780.9609375	n/a	199926	largeHSmallH	correct	congruent	0.46875	no	H	H
781.4296875	n/a	200046	responseLargeH	correct	n/a	0.46875	no	n/a	n/a
782.4960938	n/a	200319	largeHSmallH	error	congruent	0.34375	no	H	H
782.8398438	n/a	200407	responseLargeT	error	n/a	0.34375	no	n/a	n/a
783.9101562	n/a	200681	largeTSmallT	correct	congruent	0.44922	no	T	T
784.359375	n/a	200796	responseLargeT	correct	n/a	0.44922	no	n/a	n/a
785.4296875	n/a	201070	largeTSmallH	correct	incongruent	0.47656	no	T	H
785.90625	n/a	201192	responseLargeT	correct	n/a	0.47656	no	n/a	n/a
786.9765625	n/a	201466	largeTSmallH	correct	incongruent	0.37109	no	T	H
787.3476562	n/a	201561	responseLargeT	correct	n/a	0.37109	no	n/a	n/a
788.4140625	n/a	201834	largeHSmallH	correct	congruent	0.44531	no	H	H
788.859375	n/a	201948	responseLargeH	correct	n/a	0.44531	no	n/a	n/a
789.921875	n/a	202220	largeHSmallT	correct	incongruent	0.39844	no	H	T
790.3203125	n/a	202322	responseLargeH	correct	n/a	0.39844	no	n/a	n/a
791.390625	n/a	202596	largeTSmallH	correct	incongruent	0.42188	no	T	H
791.8125	n/a	202704	responseLargeT	correct	n/a	0.42188	no	n/a	n/a
792.8945312	n/a	202981	largeHSmallT	correct	incongruent	0.38672	no	H	T
793.28125	n/a	203080	responseLargeH	correct	n/a	0.38672	no	n/a	n/a
794.3632812	n/a	203357	largeTSmallH	correct	incongruent	0.39453	no	T	H
794.7578125	n/a	203458	responseLargeT	correct	n/a	0.39453	no	n/a	n/a
795.828125	n/a	203732	largeHSmallT	correct	incongruent	0.53906	no	H	T
796.3671875	n/a	203870	responseLargeH	correct	n/a	0.53906	no	n/a	n/a
797.4414062	n/a	204145	largeHSmallH	correct	congruent	0.45312	no	H	H
797.8945312	n/a	204261	responseLargeH	correct	n/a	0.45312	no	n/a	n/a
798.9609375	n/a	204534	largeHSmallT	correct	incongruent	0.44922	no	H	T
799.4101562	n/a	204649	responseLargeH	correct	n/a	0.44922	no	n/a	n/a
800.4804688	n/a	204923	largeTSmallT	correct	congruent	0.49609	no	T	T
800.9765625	n/a	205050	responseLargeT	correct	n/a	0.49609	no	n/a	n/a
802.0429688	n/a	205323	largeTSmallH	correct	incongruent	0.45703	no	T	H
802.5	n/a	205440	responseLargeT	correct	n/a	0.45703	no	n/a	n/a
803.5742188	n/a	205715	largeHSmallT	correct	incongruent	0.4375	no	H	T
804.0117188	n/a	205827	responseLargeH	correct	n/a	0.4375	no	n/a	n/a
805.09375	n/a	206104	largeTSmallT	correct	congruent	0.37891	no	T	T
805.4726562	n/a	206201	responseLargeT	correct	n/a	0.37891	no	n/a	n/a
806.5351562	n/a	206473	largeTSmallH	correct	incongruent	0.46484	no	T	H
807	n/a	206592	responseLargeT	correct	n/a	0.46484	no	n/a	n/a
808.0664062	n/a	206865	largeHSmallT	correct	incongruent	0.37891	no	H	T
808.4453125	n/a	206962	responseLargeH	correct	n/a	0.37891	no	n/a	n/a
809.5234375	n/a	207238	largeHSmallH	error	congruent	0.34375	no	H	H
809.8671875	n/a	207326	responseLargeT	error	n/a	0.34375	no	n/a	n/a
810.9335938	n/a	207599	largeTSmallH	correct	incongruent	0.32031	no	T	H
811.2539062	n/a	207681	responseLargeT	correct	n/a	0.32031	no	n/a	n/a
812.3359375	n/a	207958	largeTSmallH	error	incongruent	0.31641	no	T	H
812.6523438	n/a	208039	responseLargeH	error	n/a	0.31641	no	n/a	n/a
813.7226562	n/a	208313	largeTSmallT	correct	congruent	0.38281	no	T	T
814.1054688	n/a	208411	responseLargeT	correct	n/a	0.38281	no	n/a	n/a
815.1875	n/a	208688	largeHSmallT	error	incongruent	0.37891	no	H	T
815.5664062	n/a	208785	responseLargeT	error	n/a	0.37891	no	n/a	n/a
816.640625	n/a	209060	largeHSmallH	correct	congruent	0.42578	no	H	H
817.0664062	n/a	209169	responseLargeH	correct	n/a	0.42578	no	n/a	n/a
818.1328125	n/a	209442	largeTSmallH	correct	incongruent	0.42578	no	T	H
818.5585938	n/a	209551	responseLargeT	correct	n/a	0.42578	no	n/a	n/a
819.6289062	n/a	209825	largeTSmallH	correct	incongruent	0.42969	no	T	H
820.0585938	n/a	209935	responseLargeT	correct	n/a	0.42969	no	n/a	n/a
821.1210938	n/a	210207	largeHSmallH	correct	congruent	0.41406	no	H	H
821.5351562	n/a	210313	responseLargeH	correct	n/a	0.41406	no	n/a	n/a
822.6132812	n/a	210589	largeTSmallH	correct	incongruent	0.42969	no	T	H
823.0429688	n/a	210699	responseLargeT	correct	n/a	0.42969	no	n/a	n/a
824.1210938	n/a	210975	largeHSmallH	correct	congruent	0.52344	no	H	H
824.6445312	n/a	211109	responseLargeH	correct	n/a	0.52344	no	n/a	n/a
825.7070312	n/a	211381	largeHSmallH	correct	congruent	0.43359	no	H	H
826.140625	n/a	211492	responseLargeH	correct	n/a	0.43359	no	n/a	n/a
827.2148438	n/a	211767	largeHSmallH	correct	congruent	0.53125	no	H	H
827.7460938	n/a	211903	responseLargeH	correct	n/a	0.53125	no	n/a	n/a
828.8164062	n/a	212177	largeHSmallT	correct	incongruent	0.41016	no	H	T
829.2265625	n/a	212282	responseLargeH	correct	n/a	0.41016	no	n/a	n/a
830.2929688	n/a	212555	largeHSmallH	correct	congruent	0.41016	no	H	H
830.703125	n/a	212660	responseLargeH	correct	n/a	0.41016	no	n/a	n/a
831.7617188	n/a	212931	largeHSmallT	error	incongruent	0.32812	no	H	T
832.0898438	n/a	213015	responseLargeT	error	n/a	0.32812	no	n/a	n/a
833.1601562	n/a	213289	largeHSmallH	correct	congruent	0.58594	no	H	H
833.7460938	n/a	213439	responseLargeH	correct	n/a	0.58594	no	n/a	n/a
834.828125	n/a	213716	largeHSmallT	correct	incongruent	0.38672	no	H	T
835.2148438	n/a	213815	responseLargeH	correct	n/a	0.38672	no	n/a	n/a
836.2929688	n/a	214091	largeHSmallH	correct	congruent	0.41016	no	H	H
836.703125	n/a	214196	responseLargeH	correct	n/a	0.41016	no	n/a	n/a
837.7734375	n/a	214470	largeTSmallT	correct	congruent	0.51562	no	T	T
838.2890625	n/a	214602	responseLargeT	correct	n/a	0.51562	no	n/a	n/a
839.359375	n/a	214876	largeTSmallT	correct	congruent	0.35156	no	T	T
839.7109375	n/a	214966	responseLargeT	correct	n/a	0.35156	no	n/a	n/a
840.7890625	n/a	215242	largeTSmallH	correct	incongruent	0.37891	no	T	H
841.1679688	n/a	215339	responseLargeT	correct	n/a	0.37891	no	n/a	n/a
842.2265625	n/a	215610	largeTSmallT	correct	congruent	0.38672	no	T	T
842.6132812	n/a	215709	responseLargeT	correct	n/a	0.38672	no	n/a	n/a
843.6796875	n/a	215982	largeHSmallT	error	incongruent	0.32031	no	H	T
844	n/a	216064	responseLargeT	error	n/a	0.32031	no	n/a	n/a
845.0664062	n/a	216337	largeTSmallH	correct	incongruent	0.45312	no	T	H
845.5195312	n/a	216453	responseLargeT	correct	n/a	0.45312	no	n/a	n/a
846.5859375	n/a	216726	largeTSmallT	correct	congruent	0.39062	no	T	T
846.9765625	n/a	216826	responseLargeT	correct	n/a	0.39062	no	n/a	n/a
848.0546875	n/a	217102	largeTSmallT	correct	congruent	0.375	no	T	T
848.4296875	n/a	217198	responseLargeT	correct	n/a	0.375	no	n/a	n/a
849.5078125	n/a	217474	largeHSmallH	error	congruent	0.41797	no	H	H
849.9257812	n/a	217581	responseLargeT	error	n/a	0.41797	no	n/a	n/a
851	n/a	217856	largeTSmallH	correct	incongruent	0.45703	no	T	H
851.4570312	n/a	217973	responseLargeT	correct	n/a	0.45703	no	n/a	n/a
852.5351562	n/a	218249	largeHSmallH	correct	congruent	0.42188	no	H	H
852.9570312	n/a	218357	responseLargeH	correct	n/a	0.42188	no	n/a	n/a
854.0273438	n/a	218631	largeTSmallT	correct	congruent	0.46484	no	T	T
854.4921875	n/a	218750	responseLargeT	correct	n/a	0.46484	no	n/a	n/a
855.5585938	n/a	219023	largeTSmallH	correct	incongruent	0.40234	no	T	H
855.9609375	n/a	219126	responseLargeT	correct	n/a	0.40234	no	n/a	n/a
857.0390625	n/a	219402	largeTSmallT	correct	congruent	0.39062	no	T	T
857.4296875	n/a	219502	responseLargeT	correct	n/a	0.39062	no	n/a	n/a
858.5078125	n/a	219778	largeHSmallH	correct	congruent	0.46094	no	H	H
858.96875	n/a	219896	responseLargeH	correct	n/a	0.46094	no	n/a	n/a
860.0390625	n/a	220170	largeHSmallH	correct	congruent	0.38281	no	H	H
860.421875	n/a	220268	responseLargeH	correct	n/a	0.38281	no	n/a	n/a
861.4804688	n/a	220539	largeHSmallT	correct	incongruent	0.38281	no	H	T
861.8632812	n/a	220637	responseLargeH	correct	n/a	0.38281	no	n/a	n/a
862.9335938	n/a	220911	largeHSmallH	correct	congruent	0.40625	no	H	H
863.3398438	n/a	221015	responseLargeH	correct	n/a	0.40625	no	n/a	n/a
864.4140625	n/a	221290	largeTSmallT	correct	congruent	0.44141	no	T	T
864.8554688	n/a	221403	responseLargeT	correct	n/a	0.44141	no	n/a	n/a
865.9335938	n/a	221679	largeHSmallT	correct	incongruent	0.44531	no	H	T
866.3789062	n/a	221793	responseLargeH	correct	n/a	0.44531	no	n/a	n/a
867.4414062	n/a	222065	largeTSmallT	correct	congruent	0.37891	no	T	T
867.8203125	n/a	222162	responseLargeT	correct	n/a	0.37891	no	n/a	n/a
868.8945312	n/a	222437	largeTSmallT	correct	congruent	0.46875	no	T	T
869.3632812	n/a	222557	responseLargeT	correct	n/a	0.46875	no	n/a	n/a
870.4414062	n/a	222833	largeTSmallT	correct	congruent	0.42188	no	T	T
870.8632812	n/a	222941	responseLargeT	correct	n/a	0.42188	no	n/a	n/a
871.9335938	n/a	223215	largeHSmallT	correct	incongruent	0.35547	no	H	T
872.2890625	n/a	223306	responseLargeH	correct	n/a	0.35547	no	n/a	n/a
873.359375	n/a	223580	largeTSmallT	correct	congruent	0.36328	no	T	T
873.7226562	n/a	223673	responseLargeT	correct	n/a	0.36328	no	n/a	n/a
874.7851562	n/a	223945	largeHSmallH	correct	congruent	0.37109	no	H	H
875.15625	n/a	224040	responseLargeH	correct	n/a	0.37109	no	n/a	n/a
876.2265625	n/a	224314	largeTSmallH	correct	incongruent	0.34766	no	T	H
876.5742188	n/a	224403	responseLargeT	correct	n/a	0.34766	no	n/a	n/a
877.6523438	n/a	224679	largeTSmallH	correct	incongruent	0.41406	no	T	H
878.0664062	n/a	224785	responseLargeT	correct	n/a	0.41406	no	n/a	n/a
879.1484375	n/a	225062	largeHSmallT	error	incongruent	0.41016	no	H	T
879.5585938	n/a	225167	responseLargeT	error	n/a	0.41016	no	n/a	n/a
880.625	n/a	225440	largeTSmallT	correct	congruent	0.32422	no	T	T
880.9492188	n/a	225523	responseLargeT	correct	n/a	0.32422	no	n/a	n/a
882.0117188	n/a	225795	largeHSmallH	correct	congruent	0.48047	no	H	H
882.4921875	n/a	225918	responseLargeH	correct	n/a	0.48047	no	n/a	n/a
883.5585938	n/a	226191	largeHSmallT	correct	incongruent	0.54297	no	H	T
884.1015625	n/a	226330	responseLargeH	correct	n/a	0.54297	no	n/a	n/a
885.1875	n/a	226608	largeHSmallT	error	incongruent	0.375	no	H	T
885.5625	n/a	226704	responseLargeT	error	n/a	0.375	no	n/a	n/a
886.625	n/a	226976	largeTSmallH	correct	incongruent	0.75	no	T	H
887.375	n/a	227168	responseLargeT	correct	n/a	0.75	no	n/a	n/a
888.4414062	n/a	227441	largeHSmallH	correct	congruent	0.58984	no	H	H
889.03125	n/a	227592	responseLargeH	correct	n/a	0.58984	no	n/a	n/a
890.1054688	n/a	227867	largeTSmallT	correct	congruent	0.44141	no	T	T
890.546875	n/a	227980	responseLargeT	correct	n/a	0.44141	no	n/a	n/a
891.6132812	n/a	228253	largeHSmallH	correct	congruent	0.41406	no	H	H
892.0273438	n/a	228359	responseLargeH	correct	n/a	0.41406	no	n/a	n/a
893.09375	n/a	228632	largeHSmallH	correct	congruent	0.47266	no	H	H
893.5664062	n/a	228753	responseLargeH	correct	n/a	0.47266	no	n/a	n/a
894.640625	n/a	229028	largeHSmallT	correct	incongruent	0.40234	no	H	T
895.0429688	n/a	229131	responseLargeH	correct	n/a	0.40234	no	n/a	n/a
896.1210938	n/a	229407	largeTSmallH	correct	incongruent	0.46875	no	T	H
896.5898438	n/a	229527	responseLargeT	correct	n/a	0.46875	no	n/a	n/a
897.6640625	n/a	229802	largeTSmallT	correct	congruent	0.48828	no	T	T
898.1523438	n/a	229927	responseLargeT	correct	n/a	0.48828	no	n/a	n/a
899.2265625	n/a	230202	largeHSmallT	correct	incongruent	0.38672	no	H	T
899.6132812	n/a	230301	responseLargeH	correct	n/a	0.38672	no	n/a	n/a
900.6914062	n/a	230577	largeHSmallH	correct	congruent	0.58984	no	H	H
901.28125	n/a	230728	responseLargeH	correct	n/a	0.58984	no	n/a	n/a
902.359375	n/a	231004	largeTSmallT	correct	congruent	0.47266	no	T	T
902.8320312	n/a	231125	responseLargeT	correct	n/a	0.47266	no	n/a	n/a
903.90625	n/a	231400	largeTSmallT	correct	congruent	0.42188	no	T	T
904.328125	n/a	231508	responseLargeT	correct	n/a	0.42188	no	n/a	n/a
905.3984375	n/a	231782	largeTSmallT	correct	congruent	0.4375	no	T	T
905.8359375	n/a	231894	responseLargeT	correct	n/a	0.4375	no	n/a	n/a
906.90625	n/a	232168	largeHSmallT	correct	incongruent	0.44141	no	H	T
907.3476562	n/a	232281	responseLargeH	correct	n/a	0.44141	no	n/a	n/a
908.4257812	n/a	232557	largeTSmallH	error	incongruent	0.48438	no	T	H
908.9101562	n/a	232681	responseLargeH	error	n/a	0.48438	no	n/a	n/a
909.984375	n/a	232956	largeHSmallH	correct	congruent	0.54297	no	H	H
910.5273438	n/a	233095	responseLargeH	correct	n/a	0.54297	no	n/a	n/a
911.5859375	n/a	233366	largeTSmallT	correct	congruent	0.42969	no	T	T
912.015625	n/a	233476	responseLargeT	correct	n/a	0.42969	no	n/a	n/a
913.09375	n/a	233752	largeTSmallH	correct	incongruent	0.41797	no	T	H
913.5117188	n/a	233859	responseLargeT	correct	n/a	0.41797	no	n/a	n/a
914.5859375	n/a	234134	largeHSmallT	correct	incongruent	0.39062	no	H	T
914.9765625	n/a	234234	responseLargeH	correct	n/a	0.39062	no	n/a	n/a
916.0507812	n/a	234509	largeTSmallT	correct	congruent	0.41016	no	T	T
916.4609375	n/a	234614	responseLargeT	correct	n/a	0.41016	no	n/a	n/a
917.53125	n/a	234888	largeHSmallT	correct	incongruent	0.55078	no	H	T
918.0820312	n/a	235029	responseLargeH	correct	n/a	0.55078	no	n/a	n/a
919.1601562	n/a	235305	largeHSmallH	correct	congruent	0.58594	no	H	H
919.7460938	n/a	235455	responseLargeH	correct	n/a	0.58594	no	n/a	n/a
920.8125	n/a	235728	largeHSmallH	correct	congruent	0.65625	no	H	H
921.46875	n/a	235896	responseLargeH	correct	n/a	0.65625	no	n/a	n/a
922.546875	n/a	236172	largeTSmallH	correct	incongruent	0.39844	no	T	H
922.9453125	n/a	236274	responseLargeT	correct	n/a	0.39844	no	n/a	n/a
924.0234375	n/a	236550	largeHSmallH	correct	congruent	0.42578	no	H	H
924.4492188	n/a	236659	responseLargeH	correct	n/a	0.42578	no	n/a	n/a
925.5195312	n/a	236933	largeTSmallH	correct	incongruent	0.55859	no	T	H
926.078125	n/a	237076	responseLargeT	correct	n/a	0.55859	no	n/a	n/a
927.1445312	n/a	237349	largeHSmallT	correct	incongruent	0.38281	no	H	T
927.5273438	n/a	237447	responseLargeH	correct	n/a	0.38281	no	n/a	n/a
928.5976562	n/a	237721	largeTSmallT	correct	congruent	0.42578	no	T	T
929.0234375	n/a	237830	responseLargeT	correct	n/a	0.42578	no	n/a	n/a
930.0898438	n/a	238103	largeHSmallH	correct	congruent	0.53906	no	H	H
930.6289062	n/a	238241	responseLargeH	correct	n/a	0.53906	no	n/a	n/a
931.7070312	n/a	238517	largeHSmallH	correct	congruent	0.44531	no	H	H
932.1523438	n/a	238631	responseLargeH	correct	n/a	0.44531	no	n/a	n/a
933.2265625	n/a	238906	largeHSmallH	correct	congruent	0.39844	no	H	H
933.625	n/a	239008	responseLargeH	correct	n/a	0.39844	no	n/a	n/a
934.6914062	n/a	239281	largeHSmallH	correct	congruent	0.39844	no	H	H
935.0898438	n/a	239383	responseLargeH	correct	n/a	0.39844	no	n/a	n/a
936.1601562	n/a	239657	largeTSmallT	correct	congruent	0.39062	no	T	T
936.5507812	n/a	239757	responseLargeT	correct	n/a	0.39062	no	n/a	n/a
937.625	n/a	240032	largeHSmallT	correct	incongruent	0.32422	no	H	T
937.9492188	n/a	240115	responseLargeH	correct	n/a	0.32422	no	n/a	n/a
939.0117188	n/a	240387	largeHSmallH	correct	congruent	0.42578	no	H	H
939.4375	n/a	240496	responseLargeH	correct	n/a	0.42578	no	n/a	n/a
940.5195312	n/a	240773	largeTSmallT	correct	congruent	0.40234	no	T	T
940.921875	n/a	240876	responseLargeT	correct	n/a	0.40234	no	n/a	n/a
942	n/a	241152	largeTSmallT	correct	congruent	0.89453	no	T	T
942.8945312	n/a	241381	responseLargeT	correct	n/a	0.89453	no	n/a	n/a
943.9570312	n/a	241653	largeHSmallH	correct	congruent	0.64062	no	H	H
944.5976562	n/a	241817	responseLargeH	correct	n/a	0.64062	no	n/a	n/a
945.6640625	n/a	242090	largeHSmallH	correct	congruent	0.37891	no	H	H
946.0429688	n/a	242187	responseLargeH	correct	n/a	0.37891	no	n/a	n/a
947.1171875	n/a	242462	largeTSmallH	correct	incongruent	0.47266	no	T	H
947.5898438	n/a	242583	responseLargeT	correct	n/a	0.47266	no	n/a	n/a
958.9296875	n/a	245486	largeTSmallT	correct	congruent	0.59766	no	T	T
959.5273438	n/a	245639	responseSmallT	correct	n/a	0.59766	no	n/a	n/a
960.5976562	n/a	245913	largeTSmallT	correct	congruent	0.41797	no	T	T
961.015625	n/a	246020	responseSmallT	correct	n/a	0.41797	no	n/a	n/a
962.0898438	n/a	246295	largeHSmallH	correct	congruent	0.35547	no	H	H
962.4453125	n/a	246386	responseSmallH	correct	n/a	0.35547	no	n/a	n/a
963.5039062	n/a	246657	largeHSmallH	correct	congruent	0.41016	no	H	H
963.9140625	n/a	246762	responseSmallH	correct	n/a	0.41016	no	n/a	n/a
964.984375	n/a	247036	largeTSmallH	correct	incongruent	0.5	no	T	H
965.484375	n/a	247164	responseSmallH	correct	n/a	0.5	no	n/a	n/a
966.5585938	n/a	247439	largeTSmallH	error	incongruent	0.375	no	T	H
966.9335938	n/a	247535	responseSmallT	error	n/a	0.375	no	n/a	n/a
967.9960938	n/a	247807	largeTSmallT	correct	congruent	0.50391	no	T	T
968.5	n/a	247936	responseSmallT	correct	n/a	0.50391	no	n/a	n/a
969.5585938	n/a	248207	largeTSmallT	correct	congruent	0.48047	no	T	T
970.0390625	n/a	248330	responseSmallT	correct	n/a	0.48047	no	n/a	n/a
971.1054688	n/a	248603	largeTSmallT	correct	congruent	0.47266	no	T	T
971.578125	n/a	248724	responseSmallT	correct	n/a	0.47266	no	n/a	n/a
972.6523438	n/a	248999	largeTSmallT	correct	congruent	0.42578	no	T	T
973.078125	n/a	249108	responseSmallT	correct	n/a	0.42578	no	n/a	n/a
974.1445312	n/a	249381	largeHSmallT	correct	incongruent	0.46094	no	H	T
974.6054688	n/a	249499	responseSmallT	correct	n/a	0.46094	no	n/a	n/a
975.6757812	n/a	249773	largeHSmallH	correct	congruent	0.37891	no	H	H
976.0546875	n/a	249870	responseSmallH	correct	n/a	0.37891	no	n/a	n/a
977.1289062	n/a	250145	largeHSmallT	correct	incongruent	0.44922	no	H	T
977.578125	n/a	250260	responseSmallT	correct	n/a	0.44922	no	n/a	n/a
978.6367188	n/a	250531	largeTSmallT	error	congruent	0.42578	no	T	T
979.0625	n/a	250640	responseSmallH	error	n/a	0.42578	no	n/a	n/a
980.1445312	n/a	250917	largeHSmallT	correct	incongruent	0.37109	no	H	T
980.515625	n/a	251012	responseSmallT	correct	n/a	0.37109	no	n/a	n/a
981.5976562	n/a	251289	largeTSmallT	correct	congruent	0.39062	no	T	T
981.9882812	n/a	251389	responseSmallT	correct	n/a	0.39062	no	n/a	n/a
983.0507812	n/a	251661	largeTSmallH	correct	incongruent	0.46875	no	T	H
983.5195312	n/a	251781	responseSmallH	correct	n/a	0.46875	no	n/a	n/a
984.5820312	n/a	252053	largeTSmallT	correct	congruent	0.47656	no	T	T
985.0585938	n/a	252175	responseSmallT	correct	n/a	0.47656	no	n/a	n/a
986.1289062	n/a	252449	largeTSmallH	correct	incongruent	0.41797	no	T	H
986.546875	n/a	252556	responseSmallH	correct	n/a	0.41797	no	n/a	n/a
987.609375	n/a	252828	largeTSmallH	correct	incongruent	0.44922	no	T	H
988.0585938	n/a	252943	responseSmallH	correct	n/a	0.44922	no	n/a	n/a
989.1289062	n/a	253217	largeHSmallH	error	congruent	0.44922	no	H	H
989.578125	n/a	253332	responseSmallT	error	n/a	0.44922	no	n/a	n/a
990.6523438	n/a	253607	largeHSmallT	correct	incongruent	0.53516	no	H	T
991.1875	n/a	253744	responseSmallT	correct	n/a	0.53516	no	n/a	n/a
992.2617188	n/a	254019	largeTSmallT	correct	congruent	0.41016	no	T	T
992.671875	n/a	254124	responseSmallT	correct	n/a	0.41016	no	n/a	n/a
993.7421875	n/a	254398	largeHSmallH	correct	congruent	0.38281	no	H	H
994.125	n/a	254496	responseSmallH	correct	n/a	0.38281	no	n/a	n/a
995.1953125	n/a	254770	largeTSmallT	correct	congruent	0.47266	no	T	T
995.6679688	n/a	254891	responseSmallT	correct	n/a	0.47266	no	n/a	n/a
996.7421875	n/a	255166	largeHSmallT	correct	incongruent	0.59375	no	H	T
997.3359375	n/a	255318	responseSmallT	correct	n/a	0.59375	no	n/a	n/a
998.4101562	n/a	255593	largeTSmallT	correct	congruent	0.50781	no	T	T
998.9179688	n/a	255723	responseSmallT	correct	n/a	0.50781	no	n/a	n/a
999.9960938	n/a	255999	largeHSmallH	correct	congruent	0.5	no	H	H
1000.496094	n/a	256127	responseSmallH	correct	n/a	0.5	no	n/a	n/a
1001.570312	n/a	256402	largeHSmallT	correct	incongruent	0.55078	no	H	T
1002.121094	n/a	256543	responseSmallT	correct	n/a	0.55078	no	n/a	n/a
1003.195312	n/a	256818	largeHSmallH	correct	congruent	0.44531	no	H	H
1003.640625	n/a	256932	responseSmallH	correct	n/a	0.44531	no	n/a	n/a
1004.703125	n/a	257204	largeTSmallH	correct	incongruent	0.46094	no	T	H
1005.164062	n/a	257322	responseSmallH	correct	n/a	0.46094	no	n/a	n/a
1006.238281	n/a	257597	largeHSmallH	correct	congruent	0.38672	no	H	H
1006.625	n/a	257696	responseSmallH	correct	n/a	0.38672	no	n/a	n/a
1007.691406	n/a	257969	largeHSmallT	correct	incongruent	0.51562	no	H	T
1008.207031	n/a	258101	responseSmallT	correct	n/a	0.51562	no	n/a	n/a
1009.277344	n/a	258375	largeHSmallT	correct	incongruent	0.42578	no	H	T
1009.703125	n/a	258484	responseSmallT	correct	n/a	0.42578	no	n/a	n/a
1010.78125	n/a	258760	largeTSmallT	correct	congruent	0.43359	no	T	T
1011.214844	n/a	258871	responseSmallT	correct	n/a	0.43359	no	n/a	n/a
1012.289062	n/a	259146	largeTSmallT	correct	congruent	0.52344	no	T	T
1012.8125	n/a	259280	responseSmallT	correct	n/a	0.52344	no	n/a	n/a
1013.875	n/a	259552	largeTSmallT	correct	congruent	0.375	no	T	T
1014.25	n/a	259648	responseSmallT	correct	n/a	0.375	no	n/a	n/a
1015.316406	n/a	259921	largeTSmallH	error	incongruent	0.44922	no	T	H
1015.765625	n/a	260036	responseSmallT	error	n/a	0.44922	no	n/a	n/a
1016.824219	n/a	260307	largeTSmallT	correct	congruent	0.40234	no	T	T
1017.226562	n/a	260410	responseSmallT	correct	n/a	0.40234	no	n/a	n/a
1018.289062	n/a	260682	largeTSmallH	correct	incongruent	0.38281	no	T	H
1018.671875	n/a	260780	responseSmallH	correct	n/a	0.38281	no	n/a	n/a
1019.742188	n/a	261054	largeTSmallH	correct	incongruent	0.41797	no	T	H
1020.160156	n/a	261161	responseSmallH	correct	n/a	0.41797	no	n/a	n/a
1021.234375	n/a	261436	largeTSmallH	correct	incongruent	0.44141	no	T	H
1021.675781	n/a	261549	responseSmallH	correct	n/a	0.44141	no	n/a	n/a
1022.742188	n/a	261822	largeTSmallH	correct	incongruent	0.4375	no	T	H
1023.179688	n/a	261934	responseSmallH	correct	n/a	0.4375	no	n/a	n/a
1024.25	n/a	262208	largeTSmallH	correct	incongruent	0.44531	no	T	H
1024.695312	n/a	262322	responseSmallH	correct	n/a	0.44531	no	n/a	n/a
1025.769531	n/a	262597	largeTSmallH	correct	incongruent	0.40625	no	T	H
1026.175781	n/a	262701	responseSmallH	correct	n/a	0.40625	no	n/a	n/a
1027.25	n/a	262976	largeHSmallT	correct	incongruent	0.39062	no	H	T
1027.640625	n/a	263076	responseSmallT	correct	n/a	0.39062	no	n/a	n/a
1028.714844	n/a	263351	largeHSmallT	correct	incongruent	0.42188	no	H	T
1029.136719	n/a	263459	responseSmallT	correct	n/a	0.42188	no	n/a	n/a
1030.195312	n/a	263730	largeTSmallT	correct	congruent	0.40234	no	T	T
1030.597656	n/a	263833	responseSmallT	correct	n/a	0.40234	no	n/a	n/a
1031.664062	n/a	264106	largeTSmallT	correct	congruent	0.33984	no	T	T
1032.003906	n/a	264193	responseSmallT	correct	n/a	0.33984	no	n/a	n/a
1033.074219	n/a	264467	largeHSmallT	correct	incongruent	0.38281	no	H	T
1033.457031	n/a	264565	responseSmallT	correct	n/a	0.38281	no	n/a	n/a
1034.542969	n/a	264843	largeHSmallH	correct	congruent	0.45703	no	H	H
1035	n/a	264960	responseSmallH	correct	n/a	0.45703	no	n/a	n/a
1036.0625	n/a	265232	largeHSmallH	correct	congruent	0.38672	no	H	H
1036.449219	n/a	265331	responseSmallH	correct	n/a	0.38672	no	n/a	n/a
1037.515625	n/a	265604	largeHSmallH	correct	congruent	0.46484	no	H	H
1037.980469	n/a	265723	responseSmallH	correct	n/a	0.46484	no	n/a	n/a
1039.050781	n/a	265997	largeTSmallT	correct	congruent	0.47266	no	T	T
1039.523438	n/a	266118	responseSmallT	correct	n/a	0.47266	no	n/a	n/a
1040.582031	n/a	266389	largeHSmallH	correct	congruent	0.53516	no	H	H
1041.117188	n/a	266526	responseSmallH	correct	n/a	0.53516	no	n/a	n/a
1042.183594	n/a	266799	largeTSmallH	correct	incongruent	0.40625	no	T	H
1042.589844	n/a	266903	responseSmallH	correct	n/a	0.40625	no	n/a	n/a
1043.664062	n/a	267178	largeHSmallT	correct	incongruent	0.42969	no	H	T
1044.09375	n/a	267288	responseSmallT	correct	n/a	0.42969	no	n/a	n/a
1045.15625	n/a	267560	largeTSmallT	error	congruent	0.41406	no	T	T
1045.570312	n/a	267666	responseSmallH	error	n/a	0.41406	no	n/a	n/a
1046.636719	n/a	267939	largeHSmallH	correct	congruent	0.40625	no	H	H
1047.042969	n/a	268043	responseSmallH	correct	n/a	0.40625	no	n/a	n/a
1048.117188	n/a	268318	largeHSmallH	correct	congruent	0.44922	no	H	H
1048.566406	n/a	268433	responseSmallH	correct	n/a	0.44922	no	n/a	n/a
1049.636719	n/a	268707	largeHSmallT	correct	incongruent	0.35156	no	H	T
1049.988281	n/a	268797	responseSmallT	correct	n/a	0.35156	no	n/a	n/a
1051.0625	n/a	269072	largeTSmallT	correct	congruent	0.48438	no	T	T
1051.546875	n/a	269196	responseSmallT	correct	n/a	0.48438	no	n/a	n/a
1052.621094	n/a	269471	largeHSmallT	correct	incongruent	0.43359	no	H	T
1053.054688	n/a	269582	responseSmallT	correct	n/a	0.43359	no	n/a	n/a
1054.128906	n/a	269857	largeTSmallH	correct	incongruent	0.42188	no	T	H
1054.550781	n/a	269965	responseSmallH	correct	n/a	0.42188	no	n/a	n/a
1055.621094	n/a	270239	largeTSmallH	correct	incongruent	0.40625	no	T	H
1056.027344	n/a	270343	responseSmallH	correct	n/a	0.40625	no	n/a	n/a
1057.089844	n/a	270615	largeHSmallH	error	congruent	0.39453	no	H	H
1057.484375	n/a	270716	responseSmallT	error	n/a	0.39453	no	n/a	n/a
1058.554688	n/a	270990	largeHSmallH	correct	congruent	0.42578	no	H	H
1058.980469	n/a	271099	responseSmallH	correct	n/a	0.42578	no	n/a	n/a
1060.0625	n/a	271376	largeTSmallT	correct	congruent	0.44531	no	T	T
1060.507812	n/a	271490	responseSmallT	correct	n/a	0.44531	no	n/a	n/a
1061.570312	n/a	271762	largeTSmallH	correct	incongruent	0.39062	no	T	H
1061.960938	n/a	271862	responseSmallH	correct	n/a	0.39062	no	n/a	n/a
1063.035156	n/a	272137	largeTSmallT	correct	congruent	0.43359	no	T	T
1063.46875	n/a	272248	responseSmallT	correct	n/a	0.43359	no	n/a	n/a
1064.542969	n/a	272523	largeTSmallH	correct	incongruent	0.43359	no	T	H
1064.976562	n/a	272634	responseSmallH	correct	n/a	0.43359	no	n/a	n/a
1066.046875	n/a	272908	largeHSmallT	correct	incongruent	0.47656	no	H	T
1066.523438	n/a	273030	responseSmallT	correct	n/a	0.47656	no	n/a	n/a
1067.59375	n/a	273304	largeTSmallH	correct	incongruent	0.4375	no	T	H
1068.03125	n/a	273416	responseSmallH	correct	n/a	0.4375	no	n/a	n/a
1069.101562	n/a	273690	largeHSmallH	correct	congruent	0.51172	no	H	H
1069.613281	n/a	273821	responseSmallH	correct	n/a	0.51172	no	n/a	n/a
1070.6875	n/a	274096	largeTSmallT	correct	congruent	0.4375	no	T	T
1071.125	n/a	274208	responseSmallT	correct	n/a	0.4375	no	n/a	n/a
1072.195312	n/a	274482	largeHSmallT	correct	incongruent	0.64062	no	H	T
1072.835938	n/a	274646	responseSmallT	correct	n/a	0.64062	no	n/a	n/a
1073.914062	n/a	274922	largeTSmallH	correct	incongruent	0.51562	no	T	H
1074.429688	n/a	275054	responseSmallH	correct	n/a	0.51562	no	n/a	n/a
1075.5	n/a	275328	largeTSmallT	correct	congruent	0.68359	no	T	T
1076.183594	n/a	275503	responseSmallT	correct	n/a	0.68359	no	n/a	n/a
1077.25	n/a	275776	largeHSmallH	correct	congruent	0.44531	no	H	H
1077.695312	n/a	275890	responseSmallH	correct	n/a	0.44531	no	n/a	n/a
1078.753906	n/a	276161	largeHSmallH	correct	congruent	0.48828	no	H	H
1079.242188	n/a	276286	responseSmallH	correct	n/a	0.48828	no	n/a	n/a
1080.300781	n/a	276557	largeTSmallT	correct	congruent	0.44141	no	T	T
1080.742188	n/a	276670	responseSmallT	correct	n/a	0.44141	no	n/a	n/a
1081.820312	n/a	276946	largeHSmallH	correct	congruent	0.35938	no	H	H
1082.179688	n/a	277038	responseSmallH	correct	n/a	0.35938	no	n/a	n/a
1083.261719	n/a	277315	largeHSmallH	correct	congruent	0.53125	no	H	H
1083.792969	n/a	277451	responseSmallH	correct	n/a	0.53125	no	n/a	n/a
1084.863281	n/a	277725	largeHSmallH	correct	congruent	0.51953	no	H	H
1085.382812	n/a	277858	responseSmallH	correct	n/a	0.51953	no	n/a	n/a
1086.460938	n/a	278134	largeHSmallT	correct	incongruent	0.60156	no	H	T
1087.0625	n/a	278288	responseSmallT	correct	n/a	0.60156	no	n/a	n/a
1088.140625	n/a	278564	largeTSmallH	correct	incongruent	0.42969	no	T	H
1088.570312	n/a	278674	responseSmallH	correct	n/a	0.42969	no	n/a	n/a
1089.632812	n/a	278946	largeTSmallT	correct	congruent	0.49219	no	T	T
1090.125	n/a	279072	responseSmallT	correct	n/a	0.49219	no	n/a	n/a
1091.195312	n/a	279346	largeTSmallH	correct	incongruent	0.61719	no	T	H
1091.8125	n/a	279504	responseSmallH	correct	n/a	0.61719	no	n/a	n/a
1092.875	n/a	279776	largeHSmallH	correct	congruent	0.44531	no	H	H
1093.320312	n/a	279890	responseSmallH	correct	n/a	0.44531	no	n/a	n/a
1094.394531	n/a	280165	largeTSmallT	correct	congruent	0.42969	no	T	T
1094.824219	n/a	280275	responseSmallT	correct	n/a	0.42969	no	n/a	n/a
1095.886719	n/a	280547	largeTSmallH	correct	incongruent	0.47656	no	T	H
1096.363281	n/a	280669	responseSmallH	correct	n/a	0.47656	no	n/a	n/a
1097.433594	n/a	280943	largeHSmallH	correct	congruent	0.43359	no	H	H
1097.867188	n/a	281054	responseSmallH	correct	n/a	0.43359	no	n/a	n/a
1098.925781	n/a	281325	largeHSmallT	correct	incongruent	0.5	no	H	T
1099.425781	n/a	281453	responseSmallT	correct	n/a	0.5	no	n/a	n/a
1100.488281	n/a	281725	largeTSmallT	correct	congruent	0.51562	no	T	T
1101.003906	n/a	281857	responseSmallT	correct	n/a	0.51562	no	n/a	n/a
1102.0625	n/a	282128	largeTSmallH	correct	incongruent	0.44922	no	T	H
1102.511719	n/a	282243	responseSmallH	correct	n/a	0.44922	no	n/a	n/a
1103.582031	n/a	282517	largeHSmallT	correct	incongruent	0.48828	no	H	T
1104.070312	n/a	282642	responseSmallT	correct	n/a	0.48828	no	n/a	n/a
1105.140625	n/a	282916	largeHSmallT	correct	incongruent	0.46875	no	H	T
1105.609375	n/a	283036	responseSmallT	correct	n/a	0.46875	no	n/a	n/a
1106.6875	n/a	283312	largeHSmallT	correct	incongruent	0.46484	no	H	T
1107.152344	n/a	283431	responseSmallT	correct	n/a	0.46484	no	n/a	n/a
1108.234375	n/a	283708	largeTSmallH	correct	incongruent	0.37109	no	T	H
1108.605469	n/a	283803	responseSmallH	correct	n/a	0.37109	no	n/a	n/a
1109.6875	n/a	284080	largeHSmallT	correct	incongruent	0.50391	no	H	T
1110.191406	n/a	284209	responseSmallT	correct	n/a	0.50391	no	n/a	n/a
1111.261719	n/a	284483	largeTSmallT	correct	congruent	0.43359	no	T	T
1111.695312	n/a	284594	responseSmallT	correct	n/a	0.43359	no	n/a	n/a
1112.765625	n/a	284868	largeHSmallT	correct	incongruent	0.46094	no	H	T
1113.226562	n/a	284986	responseSmallT	correct	n/a	0.46094	no	n/a	n/a
1114.300781	n/a	285261	largeHSmallT	error	incongruent	0.375	no	H	T
1114.675781	n/a	285357	responseSmallH	error	n/a	0.375	no	n/a	n/a
1115.753906	n/a	285633	largeHSmallT	error	incongruent	0.47266	no	H	T
1116.226562	n/a	285754	responseSmallH	error	n/a	0.47266	no	n/a	n/a
1117.300781	n/a	286029	largeHSmallH	correct	congruent	0.40234	no	H	H
1117.703125	n/a	286132	responseSmallH	correct	n/a	0.40234	no	n/a	n/a
1118.78125	n/a	286408	largeHSmallH	correct	congruent	0.38672	no	H	H
1119.167969	n/a	286507	responseSmallH	correct	n/a	0.38672	no	n/a	n/a
1120.246094	n/a	286783	largeTSmallT	correct	congruent	0.41797	no	T	T
1120.664062	n/a	286890	responseSmallT	correct	n/a	0.41797	no	n/a	n/a
1121.742188	n/a	287166	largeTSmallT	correct	congruent	0.48828	no	T	T
1122.230469	n/a	287291	responseSmallT	correct	n/a	0.48828	no	n/a	n/a
1123.300781	n/a	287565	largeTSmallT	correct	congruent	0.39062	no	T	T
1123.691406	n/a	287665	responseSmallT	correct	n/a	0.39062	no	n/a	n/a
1124.765625	n/a	287940	largeTSmallT	correct	congruent	0.42188	no	T	T
1125.1875	n/a	288048	responseSmallT	correct	n/a	0.42188	no	n/a	n/a
1126.261719	n/a	288323	largeTSmallT	correct	congruent	0.44922	no	T	T
1126.710938	n/a	288438	responseSmallT	correct	n/a	0.44922	no	n/a	n/a
1127.78125	n/a	288712	largeHSmallT	correct	incongruent	0.53516	no	H	T
1128.316406	n/a	288849	responseSmallT	correct	n/a	0.53516	no	n/a	n/a
1129.378906	n/a	289121	largeTSmallH	error	incongruent	0.5625	no	T	H
1129.941406	n/a	289265	responseSmallT	error	n/a	0.5625	no	n/a	n/a
1131.007812	n/a	289538	largeTSmallH	correct	incongruent	0.58203	no	T	H
1131.589844	n/a	289687	responseSmallH	correct	n/a	0.58203	no	n/a	n/a
1132.660156	n/a	289961	largeHSmallH	correct	congruent	0.58594	no	H	H
1133.246094	n/a	290111	responseSmallH	correct	n/a	0.58594	no	n/a	n/a
1134.3125	n/a	290384	largeTSmallH	correct	incongruent	0.5	no	T	H
1134.8125	n/a	290512	responseSmallH	correct	n/a	0.5	no	n/a	n/a
1135.886719	n/a	290787	largeTSmallH	correct	incongruent	0.54688	no	T	H
1136.433594	n/a	290927	responseSmallH	correct	n/a	0.54688	no	n/a	n/a
1137.5	n/a	291200	largeHSmallH	correct	congruent	0.52344	no	H	H
1138.023438	n/a	291334	responseSmallH	correct	n/a	0.52344	no	n/a	n/a
1139.085938	n/a	291606	largeHSmallH	correct	congruent	0.47656	no	H	H
1139.5625	n/a	291728	responseSmallH	correct	n/a	0.47656	no	n/a	n/a
1140.632812	n/a	292002	largeTSmallH	correct	incongruent	0.55469	no	T	H
1141.1875	n/a	292144	responseSmallH	correct	n/a	0.55469	no	n/a	n/a
1142.261719	n/a	292419	largeHSmallH	correct	congruent	0.45312	no	H	H
1142.714844	n/a	292535	responseSmallH	correct	n/a	0.45312	no	n/a	n/a
1143.78125	n/a	292808	largeHSmallH	correct	congruent	0.47266	no	H	H
1144.253906	n/a	292929	responseSmallH	correct	n/a	0.47266	no	n/a	n/a
1145.328125	n/a	293204	largeTSmallH	correct	incongruent	0.39844	no	T	H
1145.726562	n/a	293306	responseSmallH	correct	n/a	0.39844	no	n/a	n/a
1146.792969	n/a	293579	largeTSmallH	correct	incongruent	0.42578	no	T	H
1147.21875	n/a	293688	responseSmallH	correct	n/a	0.42578	no	n/a	n/a
1148.285156	n/a	293961	largeHSmallT	correct	incongruent	0.42578	no	H	T
1148.710938	n/a	294070	responseSmallT	correct	n/a	0.42578	no	n/a	n/a
1149.765625	n/a	294340	largeHSmallT	correct	incongruent	0.42969	no	H	T
1150.195312	n/a	294450	responseSmallT	correct	n/a	0.42969	no	n/a	n/a
1151.273438	n/a	294726	largeHSmallT	correct	incongruent	0.42578	no	H	T
1151.699219	n/a	294835	responseSmallT	correct	n/a	0.42578	no	n/a	n/a
1152.765625	n/a	295108	largeHSmallT	correct	incongruent	0.39062	no	H	T
1153.15625	n/a	295208	responseSmallT	correct	n/a	0.39062	no	n/a	n/a
1154.21875	n/a	295480	largeTSmallT	correct	congruent	0.42969	no	T	T
1154.648438	n/a	295590	responseSmallT	correct	n/a	0.42969	no	n/a	n/a
1155.710938	n/a	295862	largeHSmallT	correct	incongruent	0.39062	no	H	T
1156.101562	n/a	295962	responseSmallT	correct	n/a	0.39062	no	n/a	n/a
1157.167969	n/a	296235	largeTSmallH	error	incongruent	0.39453	no	T	H
