onset	duration	sample	value	stimulus	response_type	response_time
19.73828125	n/a	5053	D	nontarget	n/a	n/a
21.328125	n/a	5460	D	nontarget	n/a	n/a
22.88671875	n/a	5859	B	nontarget	n/a	n/a
24.44921875	n/a	6259	D	target	hit	578.125
25.02734375	n/a	6407	rt	n/a	hit	578.125
26.03515625	n/a	6665	A	nontarget	n/a	n/a
27.609375	n/a	7068	C	nontarget	n/a	n/a
29.18359375	n/a	7471	D	target	hit	585.9375
29.76953125	n/a	7621	rt	n/a	hit	585.9375
30.7578125	n/a	7874	A	target	miss	n/a
32.328125	n/a	8276	D	nontarget	miss	n/a
33.90234375	n/a	8679	D	target	hit	1054.6875
34.95703125	n/a	8949	rt	n/a	hit	1054.6875
35.48828125	n/a	9085	D	nontarget	n/a	n/a
37.0625	n/a	9488	D	target	miss	n/a
38.63671875	n/a	9891	D	target	miss	n/a
40.2109375	n/a	10294	B	nontarget	miss	n/a
41.78125	n/a	10696	C	nontarget	n/a	n/a
43.359375	n/a	11100	B	nontarget	n/a	n/a
44.94140625	n/a	11505	B	target	hit	765.625
45.70703125	n/a	11701	rt	n/a	hit	765.625
46.51953125	n/a	11909	C	target	miss	n/a
48.08984375	n/a	12311	B	target	miss	n/a
49.6640625	n/a	12714	B	target	miss	n/a
51.234375	n/a	13116	A	nontarget	miss	n/a
52.80859375	n/a	13519	A	nontarget	n/a	n/a
54.39453125	n/a	13925	D	nontarget	n/a	n/a
55.96875	n/a	14328	D	nontarget	n/a	n/a
57.54296875	n/a	14731	A	target	hit	675.7812
58.21875	n/a	14904	rt	n/a	hit	675.7812
59.1171875	n/a	15134	C	nontarget	n/a	n/a
60.6875	n/a	15536	B	nontarget	n/a	n/a
62.265625	n/a	15940	D	nontarget	false_alarm	804.6875
63.0703125	n/a	16146	rt	n/a	false_alarm	804.6875
63.84765625	n/a	16345	C	target	miss	n/a
65.42578125	n/a	16749	B	target	miss	n/a
66.99609375	n/a	17151	C	nontarget	false_alarm	898.4375
67.89453125	n/a	17381	rt	n/a	false_alarm	898.4375
68.5703125	n/a	17554	A	nontarget	n/a	n/a
70.140625	n/a	17956	A	nontarget	n/a	n/a
71.703125	n/a	18356	A	nontarget	n/a	n/a
73.2890625	n/a	18762	C	nontarget	n/a	n/a
74.86328125	n/a	19165	A	target	hit	828.125
75.69140625	n/a	19377	rt	n/a	hit	828.125
76.43359375	n/a	19567	A	target	hit	730.4688
77.1640625	n/a	19754	rt	n/a	hit	730.4688
78.0078125	n/a	19970	D	nontarget	n/a	n/a
79.58203125	n/a	20373	D	nontarget	n/a	n/a
81.15625	n/a	20776	C	nontarget	n/a	n/a
82.71484375	n/a	21175	B	nontarget	n/a	n/a
84.2890625	n/a	21578	B	nontarget	n/a	n/a
85.859375	n/a	21980	B	nontarget	n/a	n/a
87.43359375	n/a	22383	D	nontarget	n/a	n/a
89.01171875	n/a	22787	B	target	hit	957.0312
89.96875	n/a	23032	rt	n/a	hit	957.0312
90.58203125	n/a	23189	C	nontarget	n/a	n/a
92.15625	n/a	23592	B	nontarget	n/a	n/a
93.7265625	n/a	23994	D	nontarget	n/a	n/a
95.2890625	n/a	24394	D	nontarget	n/a	n/a
96.875	n/a	24800	C	nontarget	n/a	n/a
98.44921875	n/a	25203	D	target	hit	1007.8125
99.45703125	n/a	25461	rt	n/a	hit	1007.8125
100.0195312	n/a	25605	C	nontarget	n/a	n/a
101.59375	n/a	26008	C	target	miss	n/a
103.1679688	n/a	26411	A	nontarget	miss	n/a
104.7421875	n/a	26814	D	nontarget	n/a	n/a
106.328125	n/a	27220	A	nontarget	n/a	n/a
107.9023438	n/a	27623	C	nontarget	false_alarm	738.2812
108.640625	n/a	27812	rt	n/a	false_alarm	738.2812
109.4765625	n/a	28026	A	nontarget	n/a	n/a
111.046875	n/a	28428	A	target	miss	n/a
112.6210938	n/a	28831	C	target	hit	855.4688
113.4765625	n/a	29050	rt	n/a	hit	855.4688
114.1953125	n/a	29234	D	nontarget	n/a	n/a
115.765625	n/a	29636	A	target	hit	761.7188
116.5273438	n/a	29831	rt	n/a	hit	761.7188
117.34375	n/a	30040	C	target	miss	n/a
118.9140625	n/a	30442	C	nontarget	miss	n/a
120.4882812	n/a	30845	D	nontarget	n/a	n/a
122.0625	n/a	31248	D	nontarget	n/a	n/a
123.6328125	n/a	31650	C	target	hit	441.4062
124.0742188	n/a	31763	rt	n/a	hit	441.4062
125.2070312	n/a	32053	C	nontarget	n/a	n/a
126.78125	n/a	32456	B	nontarget	n/a	n/a
128.3554688	n/a	32859	D	nontarget	false_alarm	496.0938
128.8515625	n/a	32986	rt	n/a	false_alarm	496.0938
129.9257812	n/a	33261	A	nontarget	n/a	n/a
131.5	n/a	33664	C	nontarget	n/a	n/a
133.0742188	n/a	34067	C	nontarget	n/a	n/a
134.6484375	n/a	34470	C	nontarget	n/a	n/a
136.2070312	n/a	34869	D	nontarget	n/a	n/a
137.765625	n/a	35268	C	target	hit	632.8125
138.3984375	n/a	35430	rt	n/a	hit	632.8125
139.328125	n/a	35668	A	nontarget	n/a	n/a
140.8867188	n/a	36067	C	nontarget	n/a	n/a
142.4453125	n/a	36466	A	nontarget	false_alarm	789.0625
143.234375	n/a	36668	rt	n/a	false_alarm	789.0625
144.0195312	n/a	36869	A	target	miss	n/a
145.59375	n/a	37272	B	nontarget	miss	n/a
147.1679688	n/a	37675	D	nontarget	n/a	n/a
148.7421875	n/a	38078	A	target	miss	n/a
150.3125	n/a	38480	C	nontarget	miss	n/a
151.890625	n/a	38884	C	nontarget	n/a	n/a
153.4726562	n/a	39289	C	nontarget	n/a	n/a
155.046875	n/a	39692	C	target	hit	492.1875
155.5390625	n/a	39818	rt	n/a	hit	492.1875
156.6210938	n/a	40095	A	nontarget	n/a	n/a
158.1953125	n/a	40498	D	nontarget	n/a	n/a
159.765625	n/a	40900	B	nontarget	n/a	n/a
161.3398438	n/a	41303	B	nontarget	n/a	n/a
162.9257812	n/a	41709	B	nontarget	n/a	n/a
164.5	n/a	42112	C	nontarget	n/a	n/a
166.0742188	n/a	42515	C	nontarget	n/a	n/a
167.6445312	n/a	42917	A	nontarget	n/a	n/a
169.2226562	n/a	43321	B	nontarget	n/a	n/a
170.7929688	n/a	43723	A	nontarget	n/a	n/a
172.3515625	n/a	44122	D	nontarget	n/a	n/a
173.9140625	n/a	44522	A	nontarget	n/a	n/a
175.5	n/a	44928	B	nontarget	n/a	n/a
177.0742188	n/a	45331	D	target	miss	n/a
178.6445312	n/a	45733	C	nontarget	miss	n/a
180.2226562	n/a	46137	B	target	miss	n/a
181.7929688	n/a	46539	A	nontarget	miss	n/a
183.3671875	n/a	46942	D	nontarget	n/a	n/a
184.9257812	n/a	47341	C	nontarget	n/a	n/a
186.5117188	n/a	47747	D	nontarget	n/a	n/a
188.0859375	n/a	48150	D	target	hit	511.7188
188.5976562	n/a	48281	rt	n/a	hit	511.7188
189.6601562	n/a	48553	B	nontarget	n/a	n/a
191.234375	n/a	48956	C	nontarget	false_alarm	714.8438
191.9492188	n/a	49139	rt	n/a	false_alarm	714.8438
192.8046875	n/a	49358	B	nontarget	n/a	n/a
194.3789062	n/a	49761	D	nontarget	n/a	n/a
195.9375	n/a	50160	A	nontarget	n/a	n/a
197.5	n/a	50560	B	target	miss	n/a
199.0859375	n/a	50966	B	nontarget	miss	n/a
200.6601562	n/a	51369	B	nontarget	n/a	n/a
202.2304688	n/a	51771	B	target	hit	480.4688
202.7109375	n/a	51894	rt	n/a	hit	480.4688
203.8046875	n/a	52174	A	nontarget	n/a	n/a
205.3789062	n/a	52577	D	nontarget	n/a	n/a
206.953125	n/a	52980	A	nontarget	n/a	n/a
208.515625	n/a	53380	D	nontarget	n/a	n/a
210.0976562	n/a	53785	B	nontarget	n/a	n/a
211.671875	n/a	54188	A	target	hit	566.4062
212.2382812	n/a	54333	rt	n/a	hit	566.4062
213.2460938	n/a	54591	D	target	hit	761.7188
214.0078125	n/a	54786	rt	n/a	hit	761.7188
214.8164062	n/a	54993	B	target	miss	n/a
216.390625	n/a	55396	A	target	miss	n/a
217.9648438	n/a	55799	C	nontarget	miss	n/a
219.5390625	n/a	56202	B	target	miss	n/a
221.109375	n/a	56604	B	nontarget	miss	n/a
222.6835938	n/a	57007	C	target	hit	582.0312
223.265625	n/a	57156	rt	n/a	hit	582.0312
224.2578125	n/a	57410	D	nontarget	n/a	n/a
225.8320312	n/a	57813	B	target	miss	n/a
227.40625	n/a	58216	B	nontarget	miss	n/a
228.9921875	n/a	58622	B	nontarget	n/a	n/a
230.5664062	n/a	59025	A	nontarget	n/a	n/a
232.1367188	n/a	59427	A	nontarget	n/a	n/a
233.7148438	n/a	59831	D	nontarget	n/a	n/a
235.2851562	n/a	60233	C	nontarget	n/a	n/a
236.859375	n/a	60636	A	target	hit	535.1562
237.3945312	n/a	60773	rt	n/a	hit	535.1562
238.4179688	n/a	61035	B	nontarget	n/a	n/a
240.0039062	n/a	61441	A	nontarget	n/a	n/a
241.578125	n/a	61844	B	nontarget	n/a	n/a
246.296875	n/a	63052	A	nontarget	false_alarm	1191.4062
247.4882812	n/a	63357	rt	n/a	false_alarm	1191.4062
247.8710938	n/a	63455	D	nontarget	n/a	n/a
249.4335938	n/a	63855	D	nontarget	n/a	n/a
251.015625	n/a	64260	B	nontarget	n/a	n/a
252.5898438	n/a	64663	B	nontarget	n/a	n/a
254.1640625	n/a	65066	D	target	hit	417.9688
254.5820312	n/a	65173	rt	n/a	hit	417.9688
255.7382812	n/a	65469	B	target	hit	718.75
256.4570312	n/a	65653	rt	n/a	hit	718.75
257.3085938	n/a	65871	A	nontarget	n/a	n/a
258.8710938	n/a	66271	D	target	miss	n/a
260.4296875	n/a	66670	D	nontarget	miss	n/a
262.015625	n/a	67076	D	nontarget	n/a	n/a
263.5898438	n/a	67479	D	target	hit	554.6875
264.1445312	n/a	67621	rt	n/a	hit	554.6875
265.1640625	n/a	67882	B	nontarget	n/a	n/a
266.7382812	n/a	68285	A	nontarget	n/a	n/a
268.3125	n/a	68688	D	target	miss	n/a
269.8828125	n/a	69090	A	nontarget	miss	n/a
271.4453125	n/a	69490	D	nontarget	n/a	n/a
273.0039062	n/a	69889	B	nontarget	n/a	n/a
274.5664062	n/a	70289	B	nontarget	n/a	n/a
276.1484375	n/a	70694	B	nontarget	n/a	n/a
277.7265625	n/a	71098	A	nontarget	n/a	n/a
279.296875	n/a	71500	C	nontarget	n/a	n/a
280.8710938	n/a	71903	A	nontarget	n/a	n/a
282.4414062	n/a	72305	C	nontarget	n/a	n/a
284.015625	n/a	72708	C	target	miss	n/a
285.578125	n/a	73108	A	target	hit	324.2188
285.9023438	n/a	73191	rt	n/a	hit	324.2188
287.1484375	n/a	73510	B	nontarget	n/a	n/a
288.7226562	n/a	73913	A	nontarget	n/a	n/a
290.296875	n/a	74316	A	target	miss	n/a
291.8710938	n/a	74719	B	target	hit	1281.25
293.1523438	n/a	75047	rt	n/a	hit	1281.25
293.4414062	n/a	75121	D	nontarget	n/a	n/a
295.0195312	n/a	75525	C	nontarget	n/a	n/a
296.5898438	n/a	75927	C	nontarget	n/a	n/a
298.1484375	n/a	76326	A	nontarget	n/a	n/a
299.7109375	n/a	76726	A	nontarget	n/a	n/a
301.28125	n/a	77128	C	target	miss	n/a
302.8554688	n/a	77531	A	target	miss	n/a
304.4296875	n/a	77934	D	nontarget	miss	n/a
306.0039062	n/a	78337	D	nontarget	n/a	n/a
307.578125	n/a	78740	D	nontarget	n/a	n/a
309.1484375	n/a	79142	C	nontarget	n/a	n/a
310.7109375	n/a	79542	D	target	hit	503.9062
311.2148438	n/a	79671	rt	n/a	hit	503.9062
312.2851562	n/a	79945	D	target	hit	542.9688
312.828125	n/a	80084	rt	n/a	hit	542.9688
313.8554688	n/a	80347	D	nontarget	false_alarm	851.5625
314.7070312	n/a	80565	rt	n/a	false_alarm	851.5625
315.4296875	n/a	80750	B	nontarget	n/a	n/a
317.0039062	n/a	81153	D	target	miss	n/a
318.578125	n/a	81556	D	target	miss	n/a
320.1484375	n/a	81958	C	nontarget	miss	n/a
321.7226562	n/a	82361	D	target	hit	742.1875
322.4648438	n/a	82551	rt	n/a	hit	742.1875
323.296875	n/a	82764	B	nontarget	n/a	n/a
324.8671875	n/a	83166	C	target	miss	n/a
326.4453125	n/a	83570	C	nontarget	miss	n/a
328.015625	n/a	83972	C	nontarget	n/a	n/a
329.5898438	n/a	84375	B	nontarget	false_alarm	574.2188
330.1640625	n/a	84522	rt	n/a	false_alarm	574.2188
331.1601562	n/a	84777	D	nontarget	n/a	n/a
332.734375	n/a	85180	D	nontarget	n/a	n/a
334.296875	n/a	85580	C	nontarget	n/a	n/a
335.8828125	n/a	85986	D	target	hit	757.8125
336.640625	n/a	86180	rt	n/a	hit	757.8125
337.4570312	n/a	86389	C	nontarget	false_alarm	953.125
338.4101562	n/a	86633	rt	n/a	false_alarm	953.125
339.0273438	n/a	86791	D	nontarget	n/a	n/a
340.6015625	n/a	87194	B	nontarget	n/a	n/a
342.1757812	n/a	87597	A	nontarget	n/a	n/a
343.7617188	n/a	88003	D	target	miss	n/a
345.3359375	n/a	88406	D	nontarget	miss	n/a
346.9101562	n/a	88809	B	nontarget	n/a	n/a
348.4804688	n/a	89211	D	target	hit	648.4375
349.1289062	n/a	89377	rt	n/a	hit	648.4375
350.0546875	n/a	89614	A	nontarget	n/a	n/a
351.6289062	n/a	90017	D	nontarget	n/a	n/a
353.203125	n/a	90420	A	nontarget	n/a	n/a
354.7734375	n/a	90822	A	target	hit	832.0312
355.6054688	n/a	91035	rt	n/a	hit	832.0312
356.3476562	n/a	91225	A	nontarget	n/a	n/a
357.921875	n/a	91628	C	nontarget	n/a	n/a
359.4960938	n/a	92031	C	nontarget	n/a	n/a
361.0703125	n/a	92434	B	nontarget	n/a	n/a
362.640625	n/a	92836	A	nontarget	n/a	n/a
364.203125	n/a	93236	A	nontarget	n/a	n/a
365.7890625	n/a	93642	C	nontarget	false_alarm	722.6562
366.5117188	n/a	93827	rt	n/a	false_alarm	722.6562
367.359375	n/a	94044	A	target	miss	n/a
368.9375	n/a	94448	A	target	miss	n/a
370.5078125	n/a	94850	A	nontarget	miss	n/a
372.0820312	n/a	95253	D	nontarget	n/a	n/a
373.6679688	n/a	95659	B	nontarget	n/a	n/a
375.2421875	n/a	96062	A	target	hit	449.2188
375.6914062	n/a	96177	rt	n/a	hit	449.2188
376.8125	n/a	96464	C	nontarget	n/a	n/a
378.3867188	n/a	96867	D	nontarget	n/a	n/a
379.9609375	n/a	97270	B	nontarget	n/a	n/a
381.5351562	n/a	97673	A	nontarget	n/a	n/a
383.1210938	n/a	98079	D	target	miss	n/a
384.6953125	n/a	98482	D	nontarget	miss	n/a
386.2695312	n/a	98885	B	nontarget	n/a	n/a
387.8398438	n/a	99287	C	nontarget	n/a	n/a
389.4140625	n/a	99690	D	target	hit	1031.25
390.4453125	n/a	99954	rt	n/a	hit	1031.25
390.9882812	n/a	100093	D	nontarget	n/a	n/a
392.546875	n/a	100492	A	nontarget	n/a	n/a
394.1328125	n/a	100898	B	nontarget	n/a	n/a
395.7109375	n/a	101302	C	nontarget	n/a	n/a
397.28125	n/a	101704	B	nontarget	n/a	n/a
398.8554688	n/a	102107	B	target	hit	906.25
399.7617188	n/a	102339	rt	n/a	hit	906.25
400.4257812	n/a	102509	B	nontarget	n/a	n/a
402.0039062	n/a	102913	A	nontarget	n/a	n/a
403.5859375	n/a	103318	B	target	late_hit	1648.4375
405.1601562	n/a	103721	A	nontarget	late_hit	n/a
405.234375	n/a	103740	rt	n/a	n/a	74.2188
406.734375	n/a	104124	B	nontarget	n/a	n/a
408.3085938	n/a	104527	C	nontarget	n/a	n/a
409.8828125	n/a	104930	D	nontarget	n/a	n/a
411.4648438	n/a	105335	C	nontarget	n/a	n/a
413.0429688	n/a	105739	B	nontarget	false_alarm	1156.25
414.1992188	n/a	106035	rt	n/a	false_alarm	1156.25
414.6132812	n/a	106141	C	nontarget	n/a	n/a
416.1875	n/a	106544	A	nontarget	n/a	n/a
417.7617188	n/a	106947	A	nontarget	n/a	n/a
419.3359375	n/a	107350	D	nontarget	n/a	n/a
420.90625	n/a	107752	D	nontarget	n/a	n/a
422.4804688	n/a	108155	C	nontarget	n/a	n/a
424.0546875	n/a	108558	C	nontarget	n/a	n/a
425.625	n/a	108960	D	target	hit	464.8438
426.0898438	n/a	109079	rt	n/a	hit	464.8438
427.203125	n/a	109364	A	nontarget	n/a	n/a
428.7734375	n/a	109766	B	nontarget	n/a	n/a
430.3476562	n/a	110169	B	nontarget	n/a	n/a
431.9335938	n/a	110575	D	nontarget	n/a	n/a
433.5078125	n/a	110978	C	nontarget	n/a	n/a
435.078125	n/a	111380	D	nontarget	n/a	n/a
436.6523438	n/a	111783	D	target	miss	n/a
438.2265625	n/a	112186	A	nontarget	miss	n/a
439.8007812	n/a	112589	A	nontarget	n/a	n/a
441.3867188	n/a	112995	B	nontarget	n/a	n/a
442.9609375	n/a	113398	B	nontarget	n/a	n/a
444.53125	n/a	113800	C	nontarget	n/a	n/a
446.109375	n/a	114204	C	nontarget	n/a	n/a
447.6796875	n/a	114606	B	target	hit	867.1875
448.546875	n/a	114828	rt	n/a	hit	867.1875
449.2539062	n/a	115009	A	nontarget	n/a	n/a
450.8398438	n/a	115415	D	nontarget	n/a	n/a
452.4140625	n/a	115818	A	nontarget	n/a	n/a
453.984375	n/a	116220	C	nontarget	n/a	n/a
455.5585938	n/a	116623	B	nontarget	n/a	n/a
457.1328125	n/a	117026	B	nontarget	n/a	n/a
458.7070312	n/a	117429	D	nontarget	n/a	n/a
