onset	duration	sample	value	response_type	congruence	response_time	response_out_of_range	largeletter	smallletter
18.9453125	n/a	4850	largeTSmallH	correct	incongruent	1.0898	no	T	H
20.03515625	n/a	5129	responseLargeT	correct	n/a	1.0898	no	n/a	n/a
21.1171875	n/a	5406	largeHSmallH	correct	congruent	1.0117	no	H	H
22.12890625	n/a	5665	responseLargeH	correct	n/a	1.0117	no	n/a	n/a
23.1953125	n/a	5938	largeTSmallT	correct	congruent	0.87891	no	T	T
24.07421875	n/a	6163	responseLargeT	correct	n/a	0.87891	no	n/a	n/a
25.14453125	n/a	6437	largeTSmallH	correct	incongruent	0.77734	no	T	H
25.921875	n/a	6636	responseLargeT	correct	n/a	0.77734	no	n/a	n/a
26.984375	n/a	6908	largeHSmallT	correct	incongruent	0.67969	no	H	T
27.6640625	n/a	7082	responseLargeH	correct	n/a	0.67969	no	n/a	n/a
28.7421875	n/a	7358	largeHSmallH	correct	congruent	0.70703	no	H	H
29.44921875	n/a	7539	responseLargeH	correct	n/a	0.70703	no	n/a	n/a
30.515625	n/a	7812	largeTSmallH	correct	incongruent	0.75781	no	T	H
31.2734375	n/a	8006	responseLargeT	correct	n/a	0.75781	no	n/a	n/a
32.34375	n/a	8280	largeTSmallT	correct	congruent	0.67578	no	T	T
33.01953125	n/a	8453	responseLargeT	correct	n/a	0.67578	no	n/a	n/a
34.08984375	n/a	8727	largeTSmallH	correct	incongruent	0.76172	no	T	H
34.8515625	n/a	8922	responseLargeT	correct	n/a	0.76172	no	n/a	n/a
35.9296875	n/a	9198	largeTSmallT	correct	congruent	0.71875	no	T	T
36.6484375	n/a	9382	responseLargeT	correct	n/a	0.71875	no	n/a	n/a
37.71484375	n/a	9655	largeTSmallT	correct	congruent	0.69141	no	T	T
38.40625	n/a	9832	responseLargeT	correct	n/a	0.69141	no	n/a	n/a
39.46484375	n/a	10103	largeTSmallH	correct	incongruent	0.66797	no	T	H
40.1328125	n/a	10274	responseLargeT	correct	n/a	0.66797	no	n/a	n/a
41.1953125	n/a	10546	largeHSmallT	correct	incongruent	0.51953	no	H	T
41.71484375	n/a	10679	responseLargeH	correct	n/a	0.51953	no	n/a	n/a
42.796875	n/a	10956	largeTSmallT	correct	congruent	0.37109	no	T	T
43.16796875	n/a	11051	responseLargeT	correct	n/a	0.37109	no	n/a	n/a
44.25	n/a	11328	largeTSmallH	correct	incongruent	0.47656	no	T	H
44.7265625	n/a	11450	responseLargeT	correct	n/a	0.47656	no	n/a	n/a
45.80859375	n/a	11727	largeTSmallH	correct	incongruent	0.40625	no	T	H
46.21484375	n/a	11831	responseLargeT	correct	n/a	0.40625	no	n/a	n/a
47.2890625	n/a	12106	largeHSmallH	correct	congruent	0.38281	no	H	H
47.671875	n/a	12204	responseLargeH	correct	n/a	0.38281	no	n/a	n/a
48.73046875	n/a	12475	largeHSmallT	correct	incongruent	0.6875	no	H	T
49.41796875	n/a	12651	responseLargeH	correct	n/a	0.6875	no	n/a	n/a
50.48828125	n/a	12925	largeTSmallT	correct	congruent	0.51953	no	T	T
51.0078125	n/a	13058	responseLargeT	correct	n/a	0.51953	no	n/a	n/a
52.078125	n/a	13332	largeHSmallT	correct	incongruent	0.51953	no	H	T
52.59765625	n/a	13465	responseLargeH	correct	n/a	0.51953	no	n/a	n/a
53.6640625	n/a	13738	largeTSmallH	correct	incongruent	0.39844	no	T	H
54.0625	n/a	13840	responseLargeT	correct	n/a	0.39844	no	n/a	n/a
55.12890625	n/a	14113	largeHSmallT	correct	incongruent	0.37891	no	H	T
55.5078125	n/a	14210	responseLargeH	correct	n/a	0.37891	no	n/a	n/a
56.58203125	n/a	14485	largeTSmallT	correct	congruent	0.38281	no	T	T
56.96484375	n/a	14583	responseLargeT	correct	n/a	0.38281	no	n/a	n/a
58.03515625	n/a	14857	largeTSmallT	correct	congruent	0.47656	no	T	T
58.51171875	n/a	14979	responseLargeT	correct	n/a	0.47656	no	n/a	n/a
59.58203125	n/a	15253	largeHSmallH	correct	congruent	0.42578	no	H	H
60.0078125	n/a	15362	responseLargeH	correct	n/a	0.42578	no	n/a	n/a
61.07421875	n/a	15635	largeHSmallT	correct	incongruent	0.59375	no	H	T
61.66796875	n/a	15787	responseLargeH	correct	n/a	0.59375	no	n/a	n/a
62.7421875	n/a	16062	largeHSmallH	correct	congruent	0.42578	no	H	H
63.16796875	n/a	16171	responseLargeH	correct	n/a	0.42578	no	n/a	n/a
64.234375	n/a	16444	largeHSmallH	correct	congruent	0.48828	no	H	H
64.72265625	n/a	16569	responseLargeH	correct	n/a	0.48828	no	n/a	n/a
65.78125	n/a	16840	largeTSmallH	correct	incongruent	0.5	no	T	H
66.28125	n/a	16968	responseLargeT	correct	n/a	0.5	no	n/a	n/a
67.34375	n/a	17240	largeTSmallH	correct	incongruent	0.45312	no	T	H
67.796875	n/a	17356	responseLargeT	correct	n/a	0.45312	no	n/a	n/a
68.86328125	n/a	17629	largeHSmallH	correct	congruent	0.45703	no	H	H
69.3203125	n/a	17746	responseLargeH	correct	n/a	0.45703	no	n/a	n/a
70.3828125	n/a	18018	largeTSmallT	correct	congruent	0.42578	no	T	T
70.80859375	n/a	18127	responseLargeT	correct	n/a	0.42578	no	n/a	n/a
71.890625	n/a	18404	largeTSmallH	correct	incongruent	0.39844	no	T	H
72.2890625	n/a	18506	responseLargeT	correct	n/a	0.39844	no	n/a	n/a
73.3671875	n/a	18782	largeTSmallT	correct	congruent	0.37109	no	T	T
73.73828125	n/a	18877	responseLargeT	correct	n/a	0.37109	no	n/a	n/a
74.80859375	n/a	19151	largeTSmallH	correct	incongruent	0.35938	no	T	H
75.16796875	n/a	19243	responseLargeT	correct	n/a	0.35938	no	n/a	n/a
76.234375	n/a	19516	largeTSmallT	correct	congruent	0.38281	no	T	T
76.6171875	n/a	19614	responseLargeT	correct	n/a	0.38281	no	n/a	n/a
77.6875	n/a	19888	largeHSmallH	correct	congruent	0.47266	no	H	H
78.16015625	n/a	20009	responseLargeH	correct	n/a	0.47266	no	n/a	n/a
79.234375	n/a	20284	largeHSmallH	correct	congruent	0.40625	no	H	H
79.640625	n/a	20388	responseLargeH	correct	n/a	0.40625	no	n/a	n/a
80.71484375	n/a	20663	largeTSmallH	correct	incongruent	0.44922	no	T	H
81.1640625	n/a	20778	responseLargeT	correct	n/a	0.44922	no	n/a	n/a
82.234375	n/a	21052	largeTSmallT	correct	congruent	0.44922	no	T	T
82.68359375	n/a	21167	responseLargeT	correct	n/a	0.44922	no	n/a	n/a
83.75390625	n/a	21441	largeHSmallH	correct	congruent	0.47656	no	H	H
84.23046875	n/a	21563	responseLargeH	correct	n/a	0.47656	no	n/a	n/a
85.30078125	n/a	21837	largeTSmallH	correct	incongruent	0.44922	no	T	H
85.75	n/a	21952	responseLargeT	correct	n/a	0.44922	no	n/a	n/a
86.8203125	n/a	22226	largeTSmallT	correct	congruent	0.44531	no	T	T
87.265625	n/a	22340	responseLargeT	correct	n/a	0.44531	no	n/a	n/a
88.328125	n/a	22612	largeHSmallH	correct	congruent	0.40625	no	H	H
88.734375	n/a	22716	responseLargeH	correct	n/a	0.40625	no	n/a	n/a
89.80859375	n/a	22991	largeHSmallT	error	incongruent	0.38672	no	H	T
90.1953125	n/a	23090	responseLargeT	error	n/a	0.38672	no	n/a	n/a
91.26171875	n/a	23363	largeHSmallH	correct	congruent	0.42969	no	H	H
91.69140625	n/a	23473	responseLargeH	correct	n/a	0.42969	no	n/a	n/a
92.75390625	n/a	23745	largeTSmallH	correct	incongruent	0.46875	no	T	H
93.22265625	n/a	23865	responseLargeT	correct	n/a	0.46875	no	n/a	n/a
94.2890625	n/a	24138	largeHSmallT	correct	incongruent	0.80859	no	H	T
95.09765625	n/a	24345	responseLargeH	correct	n/a	0.80859	no	n/a	n/a
96.15625	n/a	24616	largeHSmallH	correct	congruent	0.51953	no	H	H
96.67578125	n/a	24749	responseLargeH	correct	n/a	0.51953	no	n/a	n/a
97.75390625	n/a	25025	largeHSmallH	correct	congruent	0.46094	no	H	H
98.21484375	n/a	25143	responseLargeH	correct	n/a	0.46094	no	n/a	n/a
99.2734375	n/a	25414	largeTSmallH	correct	incongruent	0.37891	no	T	H
99.65234375	n/a	25511	responseLargeT	correct	n/a	0.37891	no	n/a	n/a
100.7265625	n/a	25786	largeHSmallT	correct	incongruent	0.44922	no	H	T
101.1757812	n/a	25901	responseLargeH	correct	n/a	0.44922	no	n/a	n/a
102.25	n/a	26176	largeTSmallH	correct	incongruent	0.57812	no	T	H
102.828125	n/a	26324	responseLargeT	correct	n/a	0.57812	no	n/a	n/a
103.9023438	n/a	26599	largeTSmallT	correct	congruent	0.61719	no	T	T
104.5195312	n/a	26757	responseLargeT	correct	n/a	0.61719	no	n/a	n/a
105.59375	n/a	27032	largeHSmallT	correct	incongruent	0.54297	no	H	T
106.1367188	n/a	27171	responseLargeH	correct	n/a	0.54297	no	n/a	n/a
107.2070312	n/a	27445	largeHSmallT	correct	incongruent	0.62891	no	H	T
107.8359375	n/a	27606	responseLargeH	correct	n/a	0.62891	no	n/a	n/a
108.9023438	n/a	27879	largeTSmallH	correct	incongruent	0.47656	no	T	H
109.3789062	n/a	28001	responseLargeT	correct	n/a	0.47656	no	n/a	n/a
110.4492188	n/a	28275	largeHSmallT	correct	incongruent	0.43359	no	H	T
110.8828125	n/a	28386	responseLargeH	correct	n/a	0.43359	no	n/a	n/a
111.96875	n/a	28664	largeHSmallH	correct	congruent	0.40625	no	H	H
112.375	n/a	28768	responseLargeH	correct	n/a	0.40625	no	n/a	n/a
113.4492188	n/a	29043	largeHSmallT	correct	incongruent	0.39844	no	H	T
113.8476562	n/a	29145	responseLargeH	correct	n/a	0.39844	no	n/a	n/a
114.9140625	n/a	29418	largeHSmallT	correct	incongruent	0.41406	no	H	T
115.328125	n/a	29524	responseLargeH	correct	n/a	0.41406	no	n/a	n/a
116.3945312	n/a	29797	largeHSmallT	correct	incongruent	0.47656	no	H	T
116.8710938	n/a	29919	responseLargeH	correct	n/a	0.47656	no	n/a	n/a
117.9414062	n/a	30193	largeHSmallH	correct	congruent	0.39453	no	H	H
118.3359375	n/a	30294	responseLargeH	correct	n/a	0.39453	no	n/a	n/a
119.40625	n/a	30568	largeTSmallH	correct	incongruent	0.39453	no	T	H
119.8007812	n/a	30669	responseLargeT	correct	n/a	0.39453	no	n/a	n/a
120.875	n/a	30944	largeTSmallH	correct	incongruent	0.46094	no	T	H
121.3359375	n/a	31062	responseLargeT	correct	n/a	0.46094	no	n/a	n/a
122.3945312	n/a	31333	largeTSmallH	correct	incongruent	0.42969	no	T	H
122.8242188	n/a	31443	responseLargeT	correct	n/a	0.42969	no	n/a	n/a
123.9023438	n/a	31719	largeTSmallT	correct	congruent	0.49609	no	T	T
124.3984375	n/a	31846	responseLargeT	correct	n/a	0.49609	no	n/a	n/a
125.4726562	n/a	32121	largeTSmallT	correct	congruent	0.46094	no	T	T
125.9335938	n/a	32239	responseLargeT	correct	n/a	0.46094	no	n/a	n/a
126.9960938	n/a	32511	largeHSmallH	correct	congruent	0.40625	no	H	H
127.4023438	n/a	32615	responseLargeH	correct	n/a	0.40625	no	n/a	n/a
128.4726562	n/a	32889	largeTSmallT	correct	congruent	0.58984	no	T	T
129.0625	n/a	33040	responseLargeT	correct	n/a	0.58984	no	n/a	n/a
130.140625	n/a	33316	largeTSmallH	correct	incongruent	0.46484	no	T	H
130.6054688	n/a	33435	responseLargeT	correct	n/a	0.46484	no	n/a	n/a
131.6875	n/a	33712	largeHSmallT	correct	incongruent	0.41406	no	H	T
132.1015625	n/a	33818	responseLargeH	correct	n/a	0.41406	no	n/a	n/a
133.1796875	n/a	34094	largeTSmallH	correct	incongruent	0.375	no	T	H
133.5546875	n/a	34190	responseLargeT	correct	n/a	0.375	no	n/a	n/a
134.6328125	n/a	34466	largeTSmallT	correct	congruent	0.46484	no	T	T
135.0976562	n/a	34585	responseLargeT	correct	n/a	0.46484	no	n/a	n/a
136.1679688	n/a	34859	largeTSmallH	correct	incongruent	0.52344	no	T	H
136.6914062	n/a	34993	responseLargeT	correct	n/a	0.52344	no	n/a	n/a
137.7695312	n/a	35269	largeHSmallT	error	incongruent	0.44531	no	H	T
138.2148438	n/a	35383	responseLargeT	error	n/a	0.44531	no	n/a	n/a
139.2734375	n/a	35654	largeHSmallT	correct	incongruent	0.42969	no	H	T
139.703125	n/a	35764	responseLargeH	correct	n/a	0.42969	no	n/a	n/a
140.78125	n/a	36040	largeTSmallT	correct	congruent	0.45312	no	T	T
141.234375	n/a	36156	responseLargeT	correct	n/a	0.45312	no	n/a	n/a
142.3007812	n/a	36429	largeTSmallT	correct	congruent	0.44922	no	T	T
142.75	n/a	36544	responseLargeT	correct	n/a	0.44922	no	n/a	n/a
143.8203125	n/a	36818	largeHSmallH	correct	congruent	0.44141	no	H	H
144.2617188	n/a	36931	responseLargeH	correct	n/a	0.44141	no	n/a	n/a
145.328125	n/a	37204	largeHSmallH	correct	congruent	0.38672	no	H	H
145.7148438	n/a	37303	responseLargeH	correct	n/a	0.38672	no	n/a	n/a
146.78125	n/a	37576	largeTSmallT	correct	congruent	0.41797	no	T	T
147.1992188	n/a	37683	responseLargeT	correct	n/a	0.41797	no	n/a	n/a
148.2617188	n/a	37955	largeHSmallT	correct	incongruent	0.39062	no	H	T
148.6523438	n/a	38055	responseLargeH	correct	n/a	0.39062	no	n/a	n/a
149.7265625	n/a	38330	largeHSmallH	correct	congruent	0.46875	no	H	H
150.1953125	n/a	38450	responseLargeH	correct	n/a	0.46875	no	n/a	n/a
151.2617188	n/a	38723	largeTSmallT	correct	congruent	0.57031	no	T	T
151.8320312	n/a	38869	responseLargeT	correct	n/a	0.57031	no	n/a	n/a
152.9023438	n/a	39143	largeHSmallH	correct	congruent	0.39453	no	H	H
153.296875	n/a	39244	responseLargeH	correct	n/a	0.39453	no	n/a	n/a
154.3671875	n/a	39518	largeTSmallT	correct	congruent	0.44531	no	T	T
154.8125	n/a	39632	responseLargeT	correct	n/a	0.44531	no	n/a	n/a
155.875	n/a	39904	largeTSmallH	correct	incongruent	0.41797	no	T	H
156.2929688	n/a	40011	responseLargeT	correct	n/a	0.41797	no	n/a	n/a
157.3671875	n/a	40286	largeHSmallH	correct	congruent	0.53906	no	H	H
157.90625	n/a	40424	responseLargeH	correct	n/a	0.53906	no	n/a	n/a
158.9804688	n/a	40699	largeTSmallT	correct	congruent	0.54688	no	T	T
159.5273438	n/a	40839	responseLargeT	correct	n/a	0.54688	no	n/a	n/a
160.6054688	n/a	41115	largeTSmallT	correct	congruent	0.44141	no	T	T
161.046875	n/a	41228	responseLargeT	correct	n/a	0.44141	no	n/a	n/a
162.1132812	n/a	41501	largeHSmallT	correct	incongruent	0.43359	no	H	T
162.546875	n/a	41612	responseLargeH	correct	n/a	0.43359	no	n/a	n/a
163.609375	n/a	41884	largeHSmallT	correct	incongruent	0.46094	no	H	T
164.0703125	n/a	42002	responseLargeH	correct	n/a	0.46094	no	n/a	n/a
165.140625	n/a	42276	largeTSmallT	correct	congruent	0.40625	no	T	T
165.546875	n/a	42380	responseLargeT	correct	n/a	0.40625	no	n/a	n/a
166.6328125	n/a	42658	largeTSmallH	correct	incongruent	0.42969	no	T	H
167.0625	n/a	42768	responseLargeT	correct	n/a	0.42969	no	n/a	n/a
168.140625	n/a	43044	largeTSmallH	correct	incongruent	0.42188	no	T	H
168.5625	n/a	43152	responseLargeT	correct	n/a	0.42188	no	n/a	n/a
169.6328125	n/a	43426	largeHSmallT	error	incongruent	0.4375	no	H	T
170.0703125	n/a	43538	responseLargeT	error	n/a	0.4375	no	n/a	n/a
171.1523438	n/a	43815	largeTSmallH	correct	incongruent	0.53125	no	T	H
171.6835938	n/a	43951	responseLargeT	correct	n/a	0.53125	no	n/a	n/a
172.7539062	n/a	44225	largeTSmallH	correct	incongruent	0.37109	no	T	H
173.125	n/a	44320	responseLargeT	correct	n/a	0.37109	no	n/a	n/a
174.1914062	n/a	44593	largeTSmallH	correct	incongruent	0.53516	no	T	H
174.7265625	n/a	44730	responseLargeT	correct	n/a	0.53516	no	n/a	n/a
175.7929688	n/a	45003	largeHSmallH	correct	congruent	0.49219	no	H	H
176.2851562	n/a	45129	responseLargeH	correct	n/a	0.49219	no	n/a	n/a
177.3671875	n/a	45406	largeHSmallT	error	incongruent	0.42188	no	H	T
177.7890625	n/a	45514	responseLargeT	error	n/a	0.42188	no	n/a	n/a
178.859375	n/a	45788	largeTSmallH	error	incongruent	0.82031	no	T	H
179.6796875	n/a	45998	responseLargeH	error	n/a	0.82031	no	n/a	n/a
180.765625	n/a	46276	largeHSmallT	correct	incongruent	0.52344	no	H	T
181.2890625	n/a	46410	responseLargeH	correct	n/a	0.52344	no	n/a	n/a
182.3671875	n/a	46686	largeTSmallT	correct	congruent	0.4375	no	T	T
182.8046875	n/a	46798	responseLargeT	correct	n/a	0.4375	no	n/a	n/a
183.875	n/a	47072	largeHSmallH	correct	congruent	0.46094	no	H	H
184.3359375	n/a	47190	responseLargeH	correct	n/a	0.46094	no	n/a	n/a
185.40625	n/a	47464	largeTSmallT	correct	congruent	0.375	no	T	T
185.78125	n/a	47560	responseLargeT	correct	n/a	0.375	no	n/a	n/a
186.859375	n/a	47836	largeHSmallH	correct	congruent	0.41797	no	H	H
187.2773438	n/a	47943	responseLargeH	correct	n/a	0.41797	no	n/a	n/a
188.3515625	n/a	48218	largeHSmallT	correct	incongruent	0.41016	no	H	T
188.7617188	n/a	48323	responseLargeH	correct	n/a	0.41016	no	n/a	n/a
189.8320312	n/a	48597	largeHSmallH	correct	congruent	0.37891	no	H	H
190.2109375	n/a	48694	responseLargeH	correct	n/a	0.37891	no	n/a	n/a
191.2734375	n/a	48966	largeHSmallT	correct	incongruent	0.40234	no	H	T
191.6757812	n/a	49069	responseLargeH	correct	n/a	0.40234	no	n/a	n/a
192.7382812	n/a	49341	largeHSmallH	correct	congruent	0.42188	no	H	H
193.1601562	n/a	49449	responseLargeH	correct	n/a	0.42188	no	n/a	n/a
194.234375	n/a	49724	largeHSmallH	correct	congruent	0.46484	no	H	H
194.6992188	n/a	49843	responseLargeH	correct	n/a	0.46484	no	n/a	n/a
195.765625	n/a	50116	largeHSmallT	error	incongruent	0.62109	no	H	T
196.3867188	n/a	50275	responseLargeT	error	n/a	0.62109	no	n/a	n/a
197.4609375	n/a	50550	largeHSmallT	correct	incongruent	0.83594	no	H	T
198.296875	n/a	50764	responseLargeH	correct	n/a	0.83594	no	n/a	n/a
199.3671875	n/a	51038	largeTSmallT	correct	congruent	0.39062	no	T	T
199.7578125	n/a	51138	responseLargeT	correct	n/a	0.39062	no	n/a	n/a
200.8320312	n/a	51413	largeTSmallT	correct	congruent	0.46484	no	T	T
201.296875	n/a	51532	responseLargeT	correct	n/a	0.46484	no	n/a	n/a
202.3671875	n/a	51806	largeTSmallT	correct	congruent	0.60547	no	T	T
202.9726562	n/a	51961	responseLargeT	correct	n/a	0.60547	no	n/a	n/a
204.046875	n/a	52236	largeTSmallT	correct	congruent	0.60938	no	T	T
204.65625	n/a	52392	responseLargeT	correct	n/a	0.60938	no	n/a	n/a
205.7382812	n/a	52669	largeHSmallT	correct	incongruent	0.55469	no	H	T
206.2929688	n/a	52811	responseLargeH	correct	n/a	0.55469	no	n/a	n/a
207.3515625	n/a	53082	largeTSmallT	correct	congruent	0.59375	no	T	T
207.9453125	n/a	53234	responseLargeT	correct	n/a	0.59375	no	n/a	n/a
209.0078125	n/a	53506	largeHSmallT	correct	incongruent	0.39062	no	H	T
209.3984375	n/a	53606	responseLargeH	correct	n/a	0.39062	no	n/a	n/a
210.4609375	n/a	53878	largeHSmallT	correct	incongruent	0.54297	no	H	T
211.0039062	n/a	54017	responseLargeH	correct	n/a	0.54297	no	n/a	n/a
212.0742188	n/a	54291	largeHSmallH	correct	congruent	0.54688	no	H	H
212.6210938	n/a	54431	responseLargeH	correct	n/a	0.54688	no	n/a	n/a
213.6992188	n/a	54707	largeHSmallT	correct	incongruent	0.42188	no	H	T
214.1210938	n/a	54815	responseLargeH	correct	n/a	0.42188	no	n/a	n/a
215.1914062	n/a	55089	largeHSmallT	correct	incongruent	0.58984	no	H	T
215.78125	n/a	55240	responseLargeH	correct	n/a	0.58984	no	n/a	n/a
216.859375	n/a	55516	largeHSmallH	correct	congruent	0.54688	no	H	H
217.40625	n/a	55656	responseLargeH	correct	n/a	0.54688	no	n/a	n/a
218.484375	n/a	55932	largeTSmallH	correct	incongruent	1.0625	no	T	H
219.546875	n/a	56204	responseLargeT	correct	n/a	1.0625	no	n/a	n/a
220.6171875	n/a	56478	largeTSmallT	correct	congruent	0.51172	no	T	T
221.1289062	n/a	56609	responseLargeT	correct	n/a	0.51172	no	n/a	n/a
222.1914062	n/a	56881	largeTSmallT	correct	congruent	0.48828	no	T	T
222.6796875	n/a	57006	responseLargeT	correct	n/a	0.48828	no	n/a	n/a
223.7539062	n/a	57281	largeHSmallT	correct	incongruent	0.40234	no	H	T
224.15625	n/a	57384	responseLargeH	correct	n/a	0.40234	no	n/a	n/a
225.21875	n/a	57656	largeHSmallT	correct	incongruent	0.46875	no	H	T
225.6875	n/a	57776	responseLargeH	correct	n/a	0.46875	no	n/a	n/a
226.765625	n/a	58052	largeHSmallH	correct	congruent	0.44922	no	H	H
227.2148438	n/a	58167	responseLargeH	correct	n/a	0.44922	no	n/a	n/a
228.2851562	n/a	58441	largeTSmallT	correct	congruent	0.50391	no	T	T
228.7890625	n/a	58570	responseLargeT	correct	n/a	0.50391	no	n/a	n/a
229.8710938	n/a	58847	largeTSmallH	error	incongruent	0.56641	no	T	H
230.4375	n/a	58992	responseLargeH	error	n/a	0.56641	no	n/a	n/a
231.5117188	n/a	59267	largeHSmallT	correct	incongruent	0.47266	no	H	T
231.984375	n/a	59388	responseLargeH	correct	n/a	0.47266	no	n/a	n/a
233.046875	n/a	59660	largeHSmallH	correct	congruent	0.44141	no	H	H
233.4882812	n/a	59773	responseLargeH	correct	n/a	0.44141	no	n/a	n/a
234.5664062	n/a	60049	largeHSmallH	correct	congruent	0.47266	no	H	H
235.0390625	n/a	60170	responseLargeH	correct	n/a	0.47266	no	n/a	n/a
236.1132812	n/a	60445	largeTSmallH	correct	incongruent	0.55078	no	T	H
236.6640625	n/a	60586	responseLargeT	correct	n/a	0.55078	no	n/a	n/a
237.7382812	n/a	60861	largeTSmallH	correct	incongruent	0.44141	no	T	H
238.1796875	n/a	60974	responseLargeT	correct	n/a	0.44141	no	n/a	n/a
239.2460938	n/a	61247	largeTSmallH	correct	incongruent	0.47656	no	T	H
239.7226562	n/a	61369	responseLargeT	correct	n/a	0.47656	no	n/a	n/a
240.7929688	n/a	61643	largeHSmallT	correct	incongruent	0.44531	no	H	T
241.2382812	n/a	61757	responseLargeH	correct	n/a	0.44531	no	n/a	n/a
242.296875	n/a	62028	largeHSmallH	correct	congruent	0.45703	no	H	H
242.7539062	n/a	62145	responseLargeH	correct	n/a	0.45703	no	n/a	n/a
243.8320312	n/a	62421	largeTSmallH	correct	incongruent	0.55469	no	T	H
244.3867188	n/a	62563	responseLargeT	correct	n/a	0.55469	no	n/a	n/a
245.4570312	n/a	62837	largeHSmallT	correct	incongruent	0.63281	no	H	T
246.0898438	n/a	62999	responseLargeH	correct	n/a	0.63281	no	n/a	n/a
247.1523438	n/a	63271	largeTSmallH	correct	incongruent	0.4375	no	T	H
247.5898438	n/a	63383	responseLargeT	correct	n/a	0.4375	no	n/a	n/a
248.671875	n/a	63660	largeHSmallT	correct	incongruent	0.50391	no	H	T
249.1757812	n/a	63789	responseLargeH	correct	n/a	0.50391	no	n/a	n/a
250.2460938	n/a	64063	largeHSmallH	correct	congruent	0.4375	no	H	H
250.6835938	n/a	64175	responseLargeH	correct	n/a	0.4375	no	n/a	n/a
251.75	n/a	64448	largeHSmallH	correct	congruent	0.47656	no	H	H
252.2265625	n/a	64570	responseLargeH	correct	n/a	0.47656	no	n/a	n/a
253.296875	n/a	64844	largeHSmallH	correct	congruent	0.69922	no	H	H
253.9960938	n/a	65023	responseLargeH	correct	n/a	0.69922	no	n/a	n/a
255.0585938	n/a	65295	largeHSmallH	correct	congruent	0.4375	no	H	H
255.4960938	n/a	65407	responseLargeH	correct	n/a	0.4375	no	n/a	n/a
256.5664062	n/a	65681	largeHSmallT	correct	incongruent	0.40625	no	H	T
256.9726562	n/a	65785	responseLargeH	correct	n/a	0.40625	no	n/a	n/a
258.0429688	n/a	66059	largeHSmallT	correct	incongruent	0.42578	no	H	T
258.46875	n/a	66168	responseLargeH	correct	n/a	0.42578	no	n/a	n/a
259.5390625	n/a	66442	largeTSmallT	correct	congruent	0.54297	no	T	T
260.0820312	n/a	66581	responseLargeT	correct	n/a	0.54297	no	n/a	n/a
261.1367188	n/a	66851	largeTSmallT	correct	congruent	0.41797	no	T	T
261.5546875	n/a	66958	responseLargeT	correct	n/a	0.41797	no	n/a	n/a
262.6328125	n/a	67234	largeTSmallT	correct	congruent	0.44141	no	T	T
263.0742188	n/a	67347	responseLargeT	correct	n/a	0.44141	no	n/a	n/a
264.1367188	n/a	67619	largeHSmallH	correct	congruent	0.44531	no	H	H
264.5820312	n/a	67733	responseLargeH	correct	n/a	0.44531	no	n/a	n/a
265.65625	n/a	68008	largeHSmallT	correct	incongruent	0.42969	no	H	T
266.0859375	n/a	68118	responseLargeH	correct	n/a	0.42969	no	n/a	n/a
267.1523438	n/a	68391	largeTSmallH	correct	incongruent	0.46875	no	T	H
267.6210938	n/a	68511	responseLargeT	correct	n/a	0.46875	no	n/a	n/a
268.6992188	n/a	68787	largeTSmallH	correct	incongruent	0.42578	no	T	H
269.125	n/a	68896	responseLargeT	correct	n/a	0.42578	no	n/a	n/a
270.1914062	n/a	69169	largeHSmallH	correct	congruent	0.5	no	H	H
270.6914062	n/a	69297	responseLargeH	correct	n/a	0.5	no	n/a	n/a
271.765625	n/a	69572	largeHSmallT	correct	incongruent	0.37109	no	H	T
272.1367188	n/a	69667	responseLargeH	correct	n/a	0.37109	no	n/a	n/a
273.203125	n/a	69940	largeTSmallT	error	congruent	0.42969	no	T	T
273.6328125	n/a	70050	responseLargeH	error	n/a	0.42969	no	n/a	n/a
274.6992188	n/a	70323	largeHSmallH	correct	congruent	0.4375	no	H	H
275.1367188	n/a	70435	responseLargeH	correct	n/a	0.4375	no	n/a	n/a
276.21875	n/a	70712	largeTSmallH	correct	incongruent	0.46875	no	T	H
276.6875	n/a	70832	responseLargeT	correct	n/a	0.46875	no	n/a	n/a
277.765625	n/a	71108	largeTSmallH	correct	incongruent	0.42188	no	T	H
278.1875	n/a	71216	responseLargeT	correct	n/a	0.42188	no	n/a	n/a
279.2578125	n/a	71490	largeTSmallH	correct	incongruent	0.42969	no	T	H
279.6875	n/a	71600	responseLargeT	correct	n/a	0.42969	no	n/a	n/a
280.75	n/a	71872	largeHSmallH	correct	congruent	0.40625	no	H	H
281.15625	n/a	71976	responseLargeH	correct	n/a	0.40625	no	n/a	n/a
282.21875	n/a	72248	largeHSmallT	correct	incongruent	0.49219	no	H	T
282.7109375	n/a	72374	responseLargeH	correct	n/a	0.49219	no	n/a	n/a
283.7773438	n/a	72647	largeHSmallH	correct	congruent	0.40234	no	H	H
284.1796875	n/a	72750	responseLargeH	correct	n/a	0.40234	no	n/a	n/a
285.2421875	n/a	73022	largeTSmallH	correct	incongruent	0.52344	no	T	H
285.765625	n/a	73156	responseLargeT	correct	n/a	0.52344	no	n/a	n/a
286.84375	n/a	73432	largeTSmallT	error	congruent	0.48828	no	T	T
287.3320312	n/a	73557	responseLargeH	error	n/a	0.48828	no	n/a	n/a
288.4023438	n/a	73831	largeTSmallT	correct	congruent	0.48047	no	T	T
288.8828125	n/a	73954	responseLargeT	correct	n/a	0.48047	no	n/a	n/a
289.9648438	n/a	74231	largeHSmallT	correct	incongruent	0.62891	no	H	T
290.59375	n/a	74392	responseLargeH	correct	n/a	0.62891	no	n/a	n/a
291.65625	n/a	74664	largeHSmallH	correct	congruent	0.45703	no	H	H
292.1132812	n/a	74781	responseLargeH	correct	n/a	0.45703	no	n/a	n/a
293.1914062	n/a	75057	largeHSmallH	correct	congruent	0.4375	no	H	H
293.6289062	n/a	75169	responseLargeH	correct	n/a	0.4375	no	n/a	n/a
294.6953125	n/a	75442	largeHSmallT	correct	incongruent	0.45312	no	H	T
295.1484375	n/a	75558	responseLargeH	correct	n/a	0.45312	no	n/a	n/a
296.21875	n/a	75832	largeHSmallT	correct	incongruent	0.46484	no	H	T
296.6835938	n/a	75951	responseLargeH	correct	n/a	0.46484	no	n/a	n/a
297.7617188	n/a	76227	largeTSmallH	correct	incongruent	0.44531	no	T	H
298.2070312	n/a	76341	responseLargeT	correct	n/a	0.44531	no	n/a	n/a
299.2695312	n/a	76613	largeHSmallT	correct	incongruent	0.45703	no	H	T
299.7265625	n/a	76730	responseLargeH	correct	n/a	0.45703	no	n/a	n/a
300.8046875	n/a	77006	largeHSmallH	correct	congruent	0.44531	no	H	H
301.25	n/a	77120	responseLargeH	correct	n/a	0.44531	no	n/a	n/a
302.3085938	n/a	77391	largeTSmallT	correct	congruent	0.52734	no	T	T
302.8359375	n/a	77526	responseLargeT	correct	n/a	0.52734	no	n/a	n/a
303.9101562	n/a	77801	largeHSmallH	correct	congruent	0.41406	no	H	H
304.3242188	n/a	77907	responseLargeH	correct	n/a	0.41406	no	n/a	n/a
305.390625	n/a	78180	largeTSmallT	correct	congruent	0.49219	no	T	T
305.8828125	n/a	78306	responseLargeT	correct	n/a	0.49219	no	n/a	n/a
306.9492188	n/a	78579	largeTSmallT	correct	congruent	0.60547	no	T	T
307.5546875	n/a	78734	responseLargeT	correct	n/a	0.60547	no	n/a	n/a
308.6171875	n/a	79006	largeHSmallH	correct	congruent	0.49609	no	H	H
309.1132812	n/a	79133	responseLargeH	correct	n/a	0.49609	no	n/a	n/a
310.1757812	n/a	79405	largeHSmallH	correct	congruent	0.4375	no	H	H
310.6132812	n/a	79517	responseLargeH	correct	n/a	0.4375	no	n/a	n/a
311.6953125	n/a	79794	largeTSmallH	correct	incongruent	0.53516	no	T	H
312.2304688	n/a	79931	responseLargeT	correct	n/a	0.53516	no	n/a	n/a
313.296875	n/a	80204	largeTSmallT	error	congruent	0.42188	no	T	T
313.71875	n/a	80312	responseLargeH	error	n/a	0.42188	no	n/a	n/a
314.8046875	n/a	80590	largeTSmallH	correct	incongruent	0.45312	no	T	H
315.2578125	n/a	80706	responseLargeT	correct	n/a	0.45312	no	n/a	n/a
316.3242188	n/a	80979	largeTSmallH	correct	incongruent	0.4375	no	T	H
316.7617188	n/a	81091	responseLargeT	correct	n/a	0.4375	no	n/a	n/a
317.84375	n/a	81368	largeHSmallT	correct	incongruent	0.42188	no	H	T
318.265625	n/a	81476	responseLargeH	correct	n/a	0.42188	no	n/a	n/a
319.3359375	n/a	81750	largeTSmallH	correct	incongruent	0.5625	no	T	H
319.8984375	n/a	81894	responseLargeT	correct	n/a	0.5625	no	n/a	n/a
320.9765625	n/a	82170	largeTSmallT	correct	congruent	0.41797	no	T	T
321.3945312	n/a	82277	responseLargeT	correct	n/a	0.41797	no	n/a	n/a
322.46875	n/a	82552	largeTSmallT	correct	congruent	0.44141	no	T	T
322.9101562	n/a	82665	responseLargeT	correct	n/a	0.44141	no	n/a	n/a
323.9765625	n/a	82938	largeHSmallT	error	incongruent	0.46484	no	H	T
324.4414062	n/a	83057	responseLargeT	error	n/a	0.46484	no	n/a	n/a
325.5078125	n/a	83330	largeTSmallT	correct	congruent	0.5	no	T	T
326.0078125	n/a	83458	responseLargeT	correct	n/a	0.5	no	n/a	n/a
327.0703125	n/a	83730	largeTSmallH	correct	incongruent	0.45703	no	T	H
327.5273438	n/a	83847	responseLargeT	correct	n/a	0.45703	no	n/a	n/a
328.6015625	n/a	84122	largeTSmallT	correct	congruent	0.45312	no	T	T
329.0546875	n/a	84238	responseLargeT	correct	n/a	0.45312	no	n/a	n/a
330.1367188	n/a	84515	largeHSmallH	correct	congruent	0.42188	no	H	H
330.5585938	n/a	84623	responseLargeH	correct	n/a	0.42188	no	n/a	n/a
339.2304688	n/a	86843	largeTSmallT	correct	congruent	0.47266	no	T	T
339.703125	n/a	86964	responseSmallT	correct	n/a	0.47266	no	n/a	n/a
340.7773438	n/a	87239	largeHSmallT	correct	incongruent	0.5625	no	H	T
341.3398438	n/a	87383	responseSmallT	correct	n/a	0.5625	no	n/a	n/a
342.4023438	n/a	87655	largeTSmallT	correct	congruent	0.41797	no	T	T
342.8203125	n/a	87762	responseSmallT	correct	n/a	0.41797	no	n/a	n/a
343.8945312	n/a	88037	largeTSmallT	correct	congruent	0.42188	no	T	T
344.3164062	n/a	88145	responseSmallT	correct	n/a	0.42188	no	n/a	n/a
345.390625	n/a	88420	largeHSmallT	correct	incongruent	0.47266	no	H	T
345.8632812	n/a	88541	responseSmallT	correct	n/a	0.47266	no	n/a	n/a
346.9375	n/a	88816	largeTSmallH	correct	incongruent	0.42969	no	T	H
347.3671875	n/a	88926	responseSmallH	correct	n/a	0.42969	no	n/a	n/a
348.4414062	n/a	89201	largeHSmallH	correct	congruent	0.40234	no	H	H
348.84375	n/a	89304	responseSmallH	correct	n/a	0.40234	no	n/a	n/a
349.9101562	n/a	89577	largeHSmallH	correct	congruent	0.50391	no	H	H
350.4140625	n/a	89706	responseSmallH	correct	n/a	0.50391	no	n/a	n/a
351.4804688	n/a	89979	largeHSmallH	correct	congruent	0.41406	no	H	H
351.8945312	n/a	90085	responseSmallH	correct	n/a	0.41406	no	n/a	n/a
352.9609375	n/a	90358	largeTSmallH	correct	incongruent	0.66016	no	T	H
353.6210938	n/a	90527	responseSmallH	correct	n/a	0.66016	no	n/a	n/a
354.6835938	n/a	90799	largeTSmallH	correct	incongruent	0.4375	no	T	H
355.1210938	n/a	90911	responseSmallH	correct	n/a	0.4375	no	n/a	n/a
356.203125	n/a	91188	largeHSmallH	correct	congruent	0.41406	no	H	H
356.6171875	n/a	91294	responseSmallH	correct	n/a	0.41406	no	n/a	n/a
357.6953125	n/a	91570	largeHSmallH	correct	congruent	0.42578	no	H	H
358.1210938	n/a	91679	responseSmallH	correct	n/a	0.42578	no	n/a	n/a
359.1875	n/a	91952	largeTSmallH	correct	incongruent	0.4375	no	T	H
359.625	n/a	92064	responseSmallH	correct	n/a	0.4375	no	n/a	n/a
360.6953125	n/a	92338	largeTSmallH	correct	incongruent	0.44531	no	T	H
361.140625	n/a	92452	responseSmallH	correct	n/a	0.44531	no	n/a	n/a
362.203125	n/a	92724	largeTSmallT	correct	congruent	0.45703	no	T	T
362.6601562	n/a	92841	responseSmallT	correct	n/a	0.45703	no	n/a	n/a
363.734375	n/a	93116	largeTSmallT	correct	congruent	0.46094	no	T	T
364.1953125	n/a	93234	responseSmallT	correct	n/a	0.46094	no	n/a	n/a
365.2695312	n/a	93509	largeHSmallT	correct	incongruent	0.49609	no	H	T
365.765625	n/a	93636	responseSmallT	correct	n/a	0.49609	no	n/a	n/a
366.8398438	n/a	93911	largeHSmallT	correct	incongruent	0.4375	no	H	T
367.2773438	n/a	94023	responseSmallT	correct	n/a	0.4375	no	n/a	n/a
368.3476562	n/a	94297	largeHSmallH	correct	congruent	0.51172	no	H	H
368.859375	n/a	94428	responseSmallH	correct	n/a	0.51172	no	n/a	n/a
369.921875	n/a	94700	largeTSmallH	correct	incongruent	0.37891	no	T	H
370.3007812	n/a	94797	responseSmallH	correct	n/a	0.37891	no	n/a	n/a
371.375	n/a	95072	largeTSmallH	correct	incongruent	0.42188	no	T	H
371.796875	n/a	95180	responseSmallH	correct	n/a	0.42188	no	n/a	n/a
372.8671875	n/a	95454	largeTSmallT	correct	congruent	0.50781	no	T	T
373.375	n/a	95584	responseSmallT	correct	n/a	0.50781	no	n/a	n/a
374.453125	n/a	95860	largeTSmallH	correct	incongruent	0.44922	no	T	H
374.9023438	n/a	95975	responseSmallH	correct	n/a	0.44922	no	n/a	n/a
375.9765625	n/a	96250	largeTSmallT	correct	congruent	0.54688	no	T	T
376.5234375	n/a	96390	responseSmallT	correct	n/a	0.54688	no	n/a	n/a
377.6015625	n/a	96666	largeTSmallT	error	congruent	0.60938	no	T	T
378.2109375	n/a	96822	responseSmallH	error	n/a	0.60938	no	n/a	n/a
379.28125	n/a	97096	largeHSmallH	correct	congruent	0.40234	no	H	H
379.6835938	n/a	97199	responseSmallH	correct	n/a	0.40234	no	n/a	n/a
380.75	n/a	97472	largeHSmallH	correct	congruent	0.35938	no	H	H
381.109375	n/a	97564	responseSmallH	correct	n/a	0.35938	no	n/a	n/a
382.1875	n/a	97840	largeHSmallH	correct	congruent	0.49219	no	H	H
382.6796875	n/a	97966	responseSmallH	correct	n/a	0.49219	no	n/a	n/a
383.7460938	n/a	98239	largeTSmallH	correct	incongruent	0.36328	no	T	H
384.109375	n/a	98332	responseSmallH	correct	n/a	0.36328	no	n/a	n/a
385.1875	n/a	98608	largeTSmallH	correct	incongruent	0.40625	no	T	H
385.59375	n/a	98712	responseSmallH	correct	n/a	0.40625	no	n/a	n/a
386.6679688	n/a	98987	largeHSmallH	correct	congruent	0.47266	no	H	H
387.140625	n/a	99108	responseSmallH	correct	n/a	0.47266	no	n/a	n/a
388.2148438	n/a	99383	largeHSmallT	correct	incongruent	0.46094	no	H	T
388.6757812	n/a	99501	responseSmallT	correct	n/a	0.46094	no	n/a	n/a
389.7460938	n/a	99775	largeHSmallT	correct	incongruent	0.47266	no	H	T
390.21875	n/a	99896	responseSmallT	correct	n/a	0.47266	no	n/a	n/a
391.2929688	n/a	100171	largeHSmallH	correct	congruent	0.42188	no	H	H
391.7148438	n/a	100279	responseSmallH	correct	n/a	0.42188	no	n/a	n/a
392.7734375	n/a	100550	largeTSmallT	correct	congruent	0.42969	no	T	T
393.203125	n/a	100660	responseSmallT	correct	n/a	0.42969	no	n/a	n/a
394.28125	n/a	100936	largeHSmallH	correct	congruent	0.39844	no	H	H
394.6796875	n/a	101038	responseSmallH	correct	n/a	0.39844	no	n/a	n/a
395.75	n/a	101312	largeHSmallH	correct	congruent	0.42188	no	H	H
396.171875	n/a	101420	responseSmallH	correct	n/a	0.42188	no	n/a	n/a
397.2421875	n/a	101694	largeTSmallT	correct	congruent	0.46875	no	T	T
397.7109375	n/a	101814	responseSmallT	correct	n/a	0.46875	no	n/a	n/a
398.7890625	n/a	102090	largeHSmallT	correct	incongruent	0.55469	no	H	T
399.34375	n/a	102232	responseSmallT	correct	n/a	0.55469	no	n/a	n/a
400.4257812	n/a	102509	largeHSmallT	correct	incongruent	0.5	no	H	T
400.9257812	n/a	102637	responseSmallT	correct	n/a	0.5	no	n/a	n/a
402	n/a	102912	largeTSmallH	correct	incongruent	0.41797	no	T	H
402.4179688	n/a	103019	responseSmallH	correct	n/a	0.41797	no	n/a	n/a
403.4804688	n/a	103291	largeTSmallT	correct	congruent	0.51172	no	T	T
403.9921875	n/a	103422	responseSmallT	correct	n/a	0.51172	no	n/a	n/a
405.0546875	n/a	103694	largeTSmallT	correct	congruent	0.47656	no	T	T
405.53125	n/a	103816	responseSmallT	correct	n/a	0.47656	no	n/a	n/a
406.6015625	n/a	104090	largeTSmallH	correct	incongruent	0.38281	no	T	H
406.984375	n/a	104188	responseSmallH	correct	n/a	0.38281	no	n/a	n/a
408.0546875	n/a	104462	largeHSmallT	correct	incongruent	0.49609	no	H	T
408.5507812	n/a	104589	responseSmallT	correct	n/a	0.49609	no	n/a	n/a
409.6289062	n/a	104865	largeTSmallT	correct	congruent	0.51172	no	T	T
410.140625	n/a	104996	responseSmallT	correct	n/a	0.51172	no	n/a	n/a
411.2148438	n/a	105271	largeHSmallT	correct	incongruent	0.57812	no	H	T
411.7929688	n/a	105419	responseSmallT	correct	n/a	0.57812	no	n/a	n/a
412.8671875	n/a	105694	largeHSmallT	correct	incongruent	0.40625	no	H	T
413.2734375	n/a	105798	responseSmallT	correct	n/a	0.40625	no	n/a	n/a
414.3320312	n/a	106069	largeHSmallT	correct	incongruent	0.39062	no	H	T
414.7226562	n/a	106169	responseSmallT	correct	n/a	0.39062	no	n/a	n/a
415.7890625	n/a	106442	largeTSmallT	correct	congruent	0.41016	no	T	T
416.1992188	n/a	106547	responseSmallT	correct	n/a	0.41016	no	n/a	n/a
417.265625	n/a	106820	largeHSmallT	correct	incongruent	0.41406	no	H	T
417.6796875	n/a	106926	responseSmallT	correct	n/a	0.41406	no	n/a	n/a
418.7460938	n/a	107199	largeTSmallT	correct	congruent	0.42188	no	T	T
419.1679688	n/a	107307	responseSmallT	correct	n/a	0.42188	no	n/a	n/a
420.2421875	n/a	107582	largeHSmallH	correct	congruent	0.60156	no	H	H
420.84375	n/a	107736	responseSmallH	correct	n/a	0.60156	no	n/a	n/a
421.921875	n/a	108012	largeTSmallT	correct	congruent	0.42969	no	T	T
422.3515625	n/a	108122	responseSmallT	correct	n/a	0.42969	no	n/a	n/a
423.4140625	n/a	108394	largeTSmallH	correct	incongruent	0.4375	no	T	H
423.8515625	n/a	108506	responseSmallH	correct	n/a	0.4375	no	n/a	n/a
424.921875	n/a	108780	largeHSmallH	correct	congruent	0.50391	no	H	H
425.4257812	n/a	108909	responseSmallH	correct	n/a	0.50391	no	n/a	n/a
426.4921875	n/a	109182	largeHSmallT	correct	incongruent	0.47266	no	H	T
426.9648438	n/a	109303	responseSmallT	correct	n/a	0.47266	no	n/a	n/a
428.0390625	n/a	109578	largeTSmallT	correct	congruent	0.72656	no	T	T
428.765625	n/a	109764	responseSmallT	correct	n/a	0.72656	no	n/a	n/a
429.828125	n/a	110036	largeHSmallT	correct	incongruent	0.46094	no	H	T
430.2890625	n/a	110154	responseSmallT	correct	n/a	0.46094	no	n/a	n/a
431.359375	n/a	110428	largeHSmallT	correct	incongruent	0.5	no	H	T
431.859375	n/a	110556	responseSmallT	correct	n/a	0.5	no	n/a	n/a
432.9335938	n/a	110831	largeTSmallT	correct	congruent	0.5	no	T	T
433.4335938	n/a	110959	responseSmallT	correct	n/a	0.5	no	n/a	n/a
434.5078125	n/a	111234	largeHSmallT	correct	incongruent	0.5	no	H	T
435.0078125	n/a	111362	responseSmallT	correct	n/a	0.5	no	n/a	n/a
436.078125	n/a	111636	largeTSmallT	correct	congruent	0.41406	no	T	T
436.4921875	n/a	111742	responseSmallT	correct	n/a	0.41406	no	n/a	n/a
437.5742188	n/a	112019	largeHSmallH	correct	congruent	0.41016	no	H	H
437.984375	n/a	112124	responseSmallH	correct	n/a	0.41016	no	n/a	n/a
439.0546875	n/a	112398	largeHSmallH	correct	congruent	0.46484	no	H	H
439.5195312	n/a	112517	responseSmallH	correct	n/a	0.46484	no	n/a	n/a
440.6015625	n/a	112794	largeHSmallH	correct	congruent	0.42188	no	H	H
441.0234375	n/a	112902	responseSmallH	correct	n/a	0.42188	no	n/a	n/a
442.09375	n/a	113176	largeTSmallT	correct	congruent	0.55078	no	T	T
442.6445312	n/a	113317	responseSmallT	correct	n/a	0.55078	no	n/a	n/a
443.71875	n/a	113592	largeTSmallH	correct	incongruent	0.51172	no	T	H
444.2304688	n/a	113723	responseSmallH	correct	n/a	0.51172	no	n/a	n/a
445.3046875	n/a	113998	largeHSmallH	correct	congruent	0.48047	no	H	H
445.7851562	n/a	114121	responseSmallH	correct	n/a	0.48047	no	n/a	n/a
446.8515625	n/a	114394	largeTSmallT	correct	congruent	0.45703	no	T	T
447.3085938	n/a	114511	responseSmallT	correct	n/a	0.45703	no	n/a	n/a
448.375	n/a	114784	largeTSmallT	correct	congruent	0.47266	no	T	T
448.8476562	n/a	114905	responseSmallT	correct	n/a	0.47266	no	n/a	n/a
449.9179688	n/a	115179	largeHSmallT	correct	incongruent	0.43359	no	H	T
450.3515625	n/a	115290	responseSmallT	correct	n/a	0.43359	no	n/a	n/a
451.4257812	n/a	115565	largeHSmallT	correct	incongruent	0.49609	no	H	T
451.921875	n/a	115692	responseSmallT	correct	n/a	0.49609	no	n/a	n/a
453	n/a	115968	largeTSmallH	correct	incongruent	0.47266	no	T	H
453.4726562	n/a	116089	responseSmallH	correct	n/a	0.47266	no	n/a	n/a
454.546875	n/a	116364	largeHSmallH	correct	congruent	0.40625	no	H	H
454.953125	n/a	116468	responseSmallH	correct	n/a	0.40625	no	n/a	n/a
456.0273438	n/a	116743	largeTSmallH	correct	incongruent	0.49219	no	T	H
456.5195312	n/a	116869	responseSmallH	correct	n/a	0.49219	no	n/a	n/a
457.5976562	n/a	117145	largeHSmallT	correct	incongruent	0.49219	no	H	T
458.0898438	n/a	117271	responseSmallT	correct	n/a	0.49219	no	n/a	n/a
459.1601562	n/a	117545	largeTSmallT	correct	congruent	0.45312	no	T	T
459.6132812	n/a	117661	responseSmallT	correct	n/a	0.45312	no	n/a	n/a
460.6914062	n/a	117937	largeHSmallH	correct	congruent	0.42188	no	H	H
461.1132812	n/a	118045	responseSmallH	correct	n/a	0.42188	no	n/a	n/a
462.1875	n/a	118320	largeTSmallT	correct	congruent	0.39844	no	T	T
462.5859375	n/a	118422	responseSmallT	correct	n/a	0.39844	no	n/a	n/a
463.6523438	n/a	118695	largeTSmallT	correct	congruent	0.46094	no	T	T
464.1132812	n/a	118813	responseSmallT	correct	n/a	0.46094	no	n/a	n/a
465.171875	n/a	119084	largeTSmallH	correct	incongruent	0.48047	no	T	H
465.6523438	n/a	119207	responseSmallH	correct	n/a	0.48047	no	n/a	n/a
466.71875	n/a	119480	largeTSmallH	error	incongruent	0.41016	no	T	H
467.1289062	n/a	119585	responseSmallT	error	n/a	0.41016	no	n/a	n/a
468.2109375	n/a	119862	largeTSmallH	correct	incongruent	0.5	no	T	H
468.7109375	n/a	119990	responseSmallH	correct	n/a	0.5	no	n/a	n/a
469.7851562	n/a	120265	largeHSmallT	correct	incongruent	0.54688	no	H	T
470.3320312	n/a	120405	responseSmallT	correct	n/a	0.54688	no	n/a	n/a
471.3984375	n/a	120678	largeHSmallT	correct	incongruent	0.4375	no	H	T
471.8359375	n/a	120790	responseSmallT	correct	n/a	0.4375	no	n/a	n/a
472.90625	n/a	121064	largeHSmallH	correct	congruent	0.47266	no	H	H
473.3789062	n/a	121185	responseSmallH	correct	n/a	0.47266	no	n/a	n/a
474.453125	n/a	121460	largeHSmallH	correct	congruent	0.41016	no	H	H
474.8632812	n/a	121565	responseSmallH	correct	n/a	0.41016	no	n/a	n/a
475.9453125	n/a	121842	largeHSmallH	correct	congruent	0.41797	no	H	H
476.3632812	n/a	121949	responseSmallH	correct	n/a	0.41797	no	n/a	n/a
477.4375	n/a	122224	largeTSmallH	correct	incongruent	0.42969	no	T	H
477.8671875	n/a	122334	responseSmallH	correct	n/a	0.42969	no	n/a	n/a
478.9335938	n/a	122607	largeHSmallT	correct	incongruent	0.59375	no	H	T
479.5273438	n/a	122759	responseSmallT	correct	n/a	0.59375	no	n/a	n/a
480.5859375	n/a	123030	largeTSmallH	correct	incongruent	0.4375	no	T	H
481.0234375	n/a	123142	responseSmallH	correct	n/a	0.4375	no	n/a	n/a
482.09375	n/a	123416	largeTSmallH	correct	incongruent	0.44141	no	T	H
482.5351562	n/a	123529	responseSmallH	correct	n/a	0.44141	no	n/a	n/a
483.5976562	n/a	123801	largeHSmallH	correct	congruent	0.63672	no	H	H
484.234375	n/a	123964	responseSmallH	correct	n/a	0.63672	no	n/a	n/a
485.3046875	n/a	124238	largeHSmallH	correct	congruent	0.47266	no	H	H
485.7773438	n/a	124359	responseSmallH	correct	n/a	0.47266	no	n/a	n/a
486.8515625	n/a	124634	largeHSmallT	correct	incongruent	0.53906	no	H	T
487.390625	n/a	124772	responseSmallT	correct	n/a	0.53906	no	n/a	n/a
488.453125	n/a	125044	largeTSmallT	correct	congruent	0.59375	no	T	T
489.046875	n/a	125196	responseSmallT	correct	n/a	0.59375	no	n/a	n/a
490.1328125	n/a	125474	largeTSmallT	correct	congruent	0.64844	no	T	T
490.78125	n/a	125640	responseSmallT	correct	n/a	0.64844	no	n/a	n/a
491.8515625	n/a	125914	largeHSmallH	correct	congruent	0.42188	no	H	H
492.2734375	n/a	126022	responseSmallH	correct	n/a	0.42188	no	n/a	n/a
493.359375	n/a	126300	largeHSmallH	correct	congruent	0.39844	no	H	H
493.7578125	n/a	126402	responseSmallH	correct	n/a	0.39844	no	n/a	n/a
494.8398438	n/a	126679	largeHSmallH	error	congruent	0.43359	no	H	H
495.2734375	n/a	126790	responseSmallT	error	n/a	0.43359	no	n/a	n/a
496.34375	n/a	127064	largeHSmallT	correct	incongruent	0.33984	no	H	T
496.6835938	n/a	127151	responseSmallT	correct	n/a	0.33984	no	n/a	n/a
497.7578125	n/a	127426	largeHSmallH	correct	congruent	0.4375	no	H	H
498.1953125	n/a	127538	responseSmallH	correct	n/a	0.4375	no	n/a	n/a
499.265625	n/a	127812	largeTSmallH	correct	incongruent	0.41797	no	T	H
499.6835938	n/a	127919	responseSmallH	correct	n/a	0.41797	no	n/a	n/a
500.7578125	n/a	128194	largeTSmallH	correct	incongruent	0.375	no	T	H
501.1328125	n/a	128290	responseSmallH	correct	n/a	0.375	no	n/a	n/a
502.1992188	n/a	128563	largeHSmallT	correct	incongruent	0.54297	no	H	T
502.7421875	n/a	128702	responseSmallT	correct	n/a	0.54297	no	n/a	n/a
503.8242188	n/a	128979	largeHSmallH	correct	congruent	0.57422	no	H	H
504.3984375	n/a	129126	responseSmallH	correct	n/a	0.57422	no	n/a	n/a
505.4765625	n/a	129402	largeTSmallT	correct	congruent	0.50391	no	T	T
505.9804688	n/a	129531	responseSmallT	correct	n/a	0.50391	no	n/a	n/a
507.0507812	n/a	129805	largeTSmallT	correct	congruent	0.48438	no	T	T
507.5351562	n/a	129929	responseSmallT	correct	n/a	0.48438	no	n/a	n/a
508.6132812	n/a	130205	largeHSmallT	error	incongruent	0.65625	no	H	T
509.2695312	n/a	130373	responseSmallH	error	n/a	0.65625	no	n/a	n/a
510.34375	n/a	130648	largeHSmallT	correct	incongruent	0.49609	no	H	T
510.8398438	n/a	130775	responseSmallT	correct	n/a	0.49609	no	n/a	n/a
511.9179688	n/a	131051	largeTSmallT	correct	congruent	0.63672	no	T	T
512.5546875	n/a	131214	responseSmallT	correct	n/a	0.63672	no	n/a	n/a
513.6367188	n/a	131491	largeHSmallH	correct	congruent	0.53125	no	H	H
514.1679688	n/a	131627	responseSmallH	correct	n/a	0.53125	no	n/a	n/a
515.2382812	n/a	131901	largeTSmallH	correct	incongruent	0.43359	no	T	H
515.671875	n/a	132012	responseSmallH	correct	n/a	0.43359	no	n/a	n/a
516.7304688	n/a	132283	largeTSmallT	correct	congruent	0.49609	no	T	T
517.2265625	n/a	132410	responseSmallT	correct	n/a	0.49609	no	n/a	n/a
518.2929688	n/a	132683	largeTSmallH	correct	incongruent	0.71484	no	T	H
519.0078125	n/a	132866	responseSmallH	correct	n/a	0.71484	no	n/a	n/a
520.078125	n/a	133140	largeHSmallH	correct	congruent	0.41016	no	H	H
520.4882812	n/a	133245	responseSmallH	correct	n/a	0.41016	no	n/a	n/a
521.5585938	n/a	133519	largeTSmallT	correct	congruent	0.53906	no	T	T
522.0976562	n/a	133657	responseSmallT	correct	n/a	0.53906	no	n/a	n/a
523.171875	n/a	133932	largeHSmallH	correct	congruent	0.42578	no	H	H
523.5976562	n/a	134041	responseSmallH	correct	n/a	0.42578	no	n/a	n/a
524.6640625	n/a	134314	largeTSmallH	correct	incongruent	0.42188	no	T	H
525.0859375	n/a	134422	responseSmallH	correct	n/a	0.42188	no	n/a	n/a
526.15625	n/a	134696	largeTSmallH	correct	incongruent	0.41797	no	T	H
526.5742188	n/a	134803	responseSmallH	correct	n/a	0.41797	no	n/a	n/a
527.6367188	n/a	135075	largeTSmallH	correct	incongruent	0.44141	no	T	H
528.078125	n/a	135188	responseSmallH	correct	n/a	0.44141	no	n/a	n/a
529.15625	n/a	135464	largeTSmallH	correct	incongruent	0.42188	no	T	H
529.578125	n/a	135572	responseSmallH	correct	n/a	0.42188	no	n/a	n/a
530.6523438	n/a	135847	largeHSmallT	correct	incongruent	0.45703	no	H	T
531.109375	n/a	135964	responseSmallT	correct	n/a	0.45703	no	n/a	n/a
532.1835938	n/a	136239	largeTSmallT	correct	congruent	0.4375	no	T	T
532.6210938	n/a	136351	responseSmallT	correct	n/a	0.4375	no	n/a	n/a
533.6914062	n/a	136625	largeHSmallT	error	incongruent	0.49609	no	H	T
534.1875	n/a	136752	responseSmallH	error	n/a	0.49609	no	n/a	n/a
535.25	n/a	137024	largeHSmallT	correct	incongruent	0.47266	no	H	T
535.7226562	n/a	137145	responseSmallT	correct	n/a	0.47266	no	n/a	n/a
536.796875	n/a	137420	largeHSmallT	correct	incongruent	0.42969	no	H	T
537.2265625	n/a	137530	responseSmallT	correct	n/a	0.42969	no	n/a	n/a
538.2890625	n/a	137802	largeTSmallH	correct	incongruent	0.44141	no	T	H
538.7304688	n/a	137915	responseSmallH	correct	n/a	0.44141	no	n/a	n/a
539.796875	n/a	138188	largeTSmallT	correct	congruent	0.4375	no	T	T
540.234375	n/a	138300	responseSmallT	correct	n/a	0.4375	no	n/a	n/a
541.3046875	n/a	138574	largeTSmallH	correct	incongruent	0.41797	no	T	H
541.7226562	n/a	138681	responseSmallH	correct	n/a	0.41797	no	n/a	n/a
542.7851562	n/a	138953	largeHSmallH	correct	congruent	0.4375	no	H	H
543.2226562	n/a	139065	responseSmallH	correct	n/a	0.4375	no	n/a	n/a
544.2890625	n/a	139338	largeTSmallH	correct	incongruent	0.44141	no	T	H
544.7304688	n/a	139451	responseSmallH	correct	n/a	0.44141	no	n/a	n/a
545.796875	n/a	139724	largeTSmallH	correct	incongruent	0.45703	no	T	H
546.2539062	n/a	139841	responseSmallH	correct	n/a	0.45703	no	n/a	n/a
547.3320312	n/a	140117	largeHSmallH	correct	congruent	0.47656	no	H	H
547.8085938	n/a	140239	responseSmallH	correct	n/a	0.47656	no	n/a	n/a
548.8789062	n/a	140513	largeHSmallT	correct	incongruent	0.40625	no	H	T
549.2851562	n/a	140617	responseSmallT	correct	n/a	0.40625	no	n/a	n/a
550.3554688	n/a	140891	largeHSmallH	correct	congruent	0.5	no	H	H
550.8554688	n/a	141019	responseSmallH	correct	n/a	0.5	no	n/a	n/a
551.9296875	n/a	141294	largeTSmallT	correct	congruent	0.67578	no	T	T
552.6054688	n/a	141467	responseSmallT	correct	n/a	0.67578	no	n/a	n/a
553.6757812	n/a	141741	largeHSmallT	correct	incongruent	0.49609	no	H	T
554.171875	n/a	141868	responseSmallT	correct	n/a	0.49609	no	n/a	n/a
555.2382812	n/a	142141	largeTSmallH	correct	incongruent	0.42188	no	T	H
555.6601562	n/a	142249	responseSmallH	correct	n/a	0.42188	no	n/a	n/a
556.7304688	n/a	142523	largeHSmallH	correct	congruent	0.50781	no	H	H
557.2382812	n/a	142653	responseSmallH	correct	n/a	0.50781	no	n/a	n/a
558.3164062	n/a	142929	largeHSmallH	correct	congruent	0.39844	no	H	H
558.7148438	n/a	143031	responseSmallH	correct	n/a	0.39844	no	n/a	n/a
559.796875	n/a	143308	largeHSmallT	correct	incongruent	0.57812	no	H	T
560.375	n/a	143456	responseSmallT	correct	n/a	0.57812	no	n/a	n/a
561.4492188	n/a	143731	largeHSmallH	correct	congruent	0.57812	no	H	H
562.0273438	n/a	143879	responseSmallH	correct	n/a	0.57812	no	n/a	n/a
563.1015625	n/a	144154	largeHSmallH	correct	congruent	0.60156	no	H	H
563.703125	n/a	144308	responseSmallH	correct	n/a	0.60156	no	n/a	n/a
564.7695312	n/a	144581	largeHSmallH	correct	congruent	0.40625	no	H	H
565.1757812	n/a	144685	responseSmallH	correct	n/a	0.40625	no	n/a	n/a
566.25	n/a	144960	largeTSmallT	correct	congruent	0.42969	no	T	T
566.6796875	n/a	145070	responseSmallT	correct	n/a	0.42969	no	n/a	n/a
567.7421875	n/a	145342	largeHSmallT	correct	incongruent	0.50391	no	H	T
568.2460938	n/a	145471	responseSmallT	correct	n/a	0.50391	no	n/a	n/a
569.328125	n/a	145748	largeTSmallT	correct	congruent	0.42969	no	T	T
569.7578125	n/a	145858	responseSmallT	correct	n/a	0.42969	no	n/a	n/a
570.8359375	n/a	146134	largeHSmallT	correct	incongruent	0.45312	no	H	T
571.2890625	n/a	146250	responseSmallT	correct	n/a	0.45312	no	n/a	n/a
572.3710938	n/a	146527	largeHSmallH	correct	congruent	0.46094	no	H	H
572.8320312	n/a	146645	responseSmallH	correct	n/a	0.46094	no	n/a	n/a
573.9179688	n/a	146923	largeTSmallH	correct	incongruent	0.46875	no	T	H
574.3867188	n/a	147043	responseSmallH	correct	n/a	0.46875	no	n/a	n/a
575.4648438	n/a	147319	largeHSmallH	correct	congruent	0.44922	no	H	H
575.9140625	n/a	147434	responseSmallH	correct	n/a	0.44922	no	n/a	n/a
576.984375	n/a	147708	largeHSmallT	correct	incongruent	0.46484	no	H	T
577.4492188	n/a	147827	responseSmallT	correct	n/a	0.46484	no	n/a	n/a
578.515625	n/a	148100	largeHSmallT	correct	incongruent	0.37891	no	H	T
578.8945312	n/a	148197	responseSmallT	correct	n/a	0.37891	no	n/a	n/a
579.96875	n/a	148472	largeTSmallH	correct	incongruent	0.48047	no	T	H
580.4492188	n/a	148595	responseSmallH	correct	n/a	0.48047	no	n/a	n/a
581.53125	n/a	148872	largeHSmallT	correct	incongruent	0.4375	no	H	T
581.96875	n/a	148984	responseSmallT	correct	n/a	0.4375	no	n/a	n/a
583.0351562	n/a	149257	largeTSmallT	correct	congruent	0.44922	no	T	T
583.484375	n/a	149372	responseSmallT	correct	n/a	0.44922	no	n/a	n/a
584.5546875	n/a	149646	largeTSmallT	correct	congruent	0.48047	no	T	T
585.0351562	n/a	149769	responseSmallT	correct	n/a	0.48047	no	n/a	n/a
586.1015625	n/a	150042	largeTSmallT	correct	congruent	0.64062	no	T	T
586.7421875	n/a	150206	responseSmallT	correct	n/a	0.64062	no	n/a	n/a
587.8085938	n/a	150479	largeTSmallH	correct	incongruent	0.48438	no	T	H
588.2929688	n/a	150603	responseSmallH	correct	n/a	0.48438	no	n/a	n/a
589.3710938	n/a	150879	largeTSmallT	error	congruent	0.44922	no	T	T
589.8203125	n/a	150994	responseSmallH	error	n/a	0.44922	no	n/a	n/a
590.890625	n/a	151268	largeTSmallH	correct	incongruent	0.64062	no	T	H
591.53125	n/a	151432	responseSmallH	correct	n/a	0.64062	no	n/a	n/a
592.5976562	n/a	151705	largeTSmallH	correct	incongruent	0.42188	no	T	H
593.0195312	n/a	151813	responseSmallH	correct	n/a	0.42188	no	n/a	n/a
594.1015625	n/a	152090	largeHSmallT	correct	incongruent	0.40625	no	H	T
594.5078125	n/a	152194	responseSmallT	correct	n/a	0.40625	no	n/a	n/a
595.5820312	n/a	152469	largeTSmallT	correct	congruent	0.51172	no	T	T
596.09375	n/a	152600	responseSmallT	correct	n/a	0.51172	no	n/a	n/a
597.1679688	n/a	152875	largeTSmallH	correct	incongruent	0.44141	no	T	H
597.609375	n/a	152988	responseSmallH	correct	n/a	0.44141	no	n/a	n/a
598.6875	n/a	153264	largeHSmallT	correct	incongruent	0.35938	no	H	T
599.046875	n/a	153356	responseSmallT	correct	n/a	0.35938	no	n/a	n/a
600.1171875	n/a	153630	largeHSmallH	correct	congruent	0.47266	no	H	H
600.5898438	n/a	153751	responseSmallH	correct	n/a	0.47266	no	n/a	n/a
601.6640625	n/a	154026	largeTSmallH	correct	incongruent	0.48438	no	T	H
602.1484375	n/a	154150	responseSmallH	correct	n/a	0.48438	no	n/a	n/a
603.2226562	n/a	154425	largeHSmallT	correct	incongruent	0.48047	no	H	T
603.703125	n/a	154548	responseSmallT	correct	n/a	0.48047	no	n/a	n/a
604.7695312	n/a	154821	largeHSmallH	correct	congruent	0.45703	no	H	H
605.2265625	n/a	154938	responseSmallH	correct	n/a	0.45703	no	n/a	n/a
606.3007812	n/a	155213	largeHSmallT	correct	incongruent	0.45312	no	H	T
606.7539062	n/a	155329	responseSmallT	correct	n/a	0.45312	no	n/a	n/a
607.8203125	n/a	155602	largeTSmallH	correct	incongruent	0.35938	no	T	H
608.1796875	n/a	155694	responseSmallH	correct	n/a	0.35938	no	n/a	n/a
609.25	n/a	155968	largeTSmallH	correct	incongruent	0.57422	no	T	H
609.8242188	n/a	156115	responseSmallH	correct	n/a	0.57422	no	n/a	n/a
610.9023438	n/a	156391	largeTSmallH	correct	incongruent	0.45312	no	T	H
611.3554688	n/a	156507	responseSmallH	correct	n/a	0.45312	no	n/a	n/a
612.4335938	n/a	156783	largeHSmallH	correct	congruent	0.55469	no	H	H
612.9882812	n/a	156925	responseSmallH	correct	n/a	0.55469	no	n/a	n/a
614.046875	n/a	157196	largeTSmallH	correct	incongruent	0.51172	no	T	H
614.5585938	n/a	157327	responseSmallH	correct	n/a	0.51172	no	n/a	n/a
615.6210938	n/a	157599	largeTSmallT	correct	congruent	0.4375	no	T	T
616.0585938	n/a	157711	responseSmallT	correct	n/a	0.4375	no	n/a	n/a
617.1289062	n/a	157985	largeHSmallH	correct	congruent	0.46875	no	H	H
617.5976562	n/a	158105	responseSmallH	correct	n/a	0.46875	no	n/a	n/a
618.6757812	n/a	158381	largeHSmallH	correct	congruent	0.48047	no	H	H
619.15625	n/a	158504	responseSmallH	correct	n/a	0.48047	no	n/a	n/a
620.234375	n/a	158780	largeTSmallH	correct	incongruent	0.46484	no	T	H
620.6992188	n/a	158899	responseSmallH	correct	n/a	0.46484	no	n/a	n/a
621.7695312	n/a	159173	largeTSmallT	correct	congruent	0.4375	no	T	T
622.2070312	n/a	159285	responseSmallT	correct	n/a	0.4375	no	n/a	n/a
623.2734375	n/a	159558	largeHSmallT	correct	incongruent	0.42188	no	H	T
623.6953125	n/a	159666	responseSmallT	correct	n/a	0.42188	no	n/a	n/a
624.7695312	n/a	159941	largeHSmallT	correct	incongruent	0.38672	no	H	T
625.15625	n/a	160040	responseSmallT	correct	n/a	0.38672	no	n/a	n/a
626.234375	n/a	160316	largeTSmallT	correct	congruent	0.46875	no	T	T
626.703125	n/a	160436	responseSmallT	correct	n/a	0.46875	no	n/a	n/a
627.78125	n/a	160712	largeTSmallT	correct	congruent	0.47656	no	T	T
628.2578125	n/a	160834	responseSmallT	correct	n/a	0.47656	no	n/a	n/a
629.328125	n/a	161108	largeHSmallT	correct	incongruent	0.82422	no	H	T
630.1523438	n/a	161319	responseSmallT	correct	n/a	0.82422	no	n/a	n/a
631.2226562	n/a	161593	largeHSmallT	correct	incongruent	0.47266	no	H	T
631.6953125	n/a	161714	responseSmallT	correct	n/a	0.47266	no	n/a	n/a
632.7695312	n/a	161989	largeTSmallT	correct	congruent	0.41406	no	T	T
633.1835938	n/a	162095	responseSmallT	correct	n/a	0.41406	no	n/a	n/a
634.25	n/a	162368	largeTSmallH	correct	incongruent	0.42578	no	T	H
634.6757812	n/a	162477	responseSmallH	correct	n/a	0.42578	no	n/a	n/a
635.7539062	n/a	162753	largeTSmallH	correct	incongruent	0.5	no	T	H
636.2539062	n/a	162881	responseSmallH	correct	n/a	0.5	no	n/a	n/a
637.328125	n/a	163156	largeTSmallH	correct	incongruent	0.44531	no	T	H
637.7734375	n/a	163270	responseSmallH	correct	n/a	0.44531	no	n/a	n/a
638.8359375	n/a	163542	largeTSmallT	correct	congruent	0.53516	no	T	T
639.3710938	n/a	163679	responseSmallT	correct	n/a	0.53516	no	n/a	n/a
640.4492188	n/a	163955	largeHSmallH	correct	congruent	0.48828	no	H	H
640.9375	n/a	164080	responseSmallH	correct	n/a	0.48828	no	n/a	n/a
642.0078125	n/a	164354	largeHSmallT	correct	incongruent	0.53125	no	H	T
642.5390625	n/a	164490	responseSmallT	correct	n/a	0.53125	no	n/a	n/a
643.609375	n/a	164764	largeTSmallT	correct	congruent	0.48047	no	T	T
644.0898438	n/a	164887	responseSmallT	correct	n/a	0.48047	no	n/a	n/a
645.15625	n/a	165160	largeHSmallT	correct	incongruent	0.57422	no	H	T
645.7304688	n/a	165307	responseSmallT	correct	n/a	0.57422	no	n/a	n/a
646.7929688	n/a	165579	largeTSmallT	correct	congruent	0.45703	no	T	T
647.25	n/a	165696	responseSmallT	correct	n/a	0.45703	no	n/a	n/a
656.1679688	n/a	167979	largeHSmallT	error	incongruent	0.39844	no	H	T
656.5664062	n/a	168081	responseLargeT	error	n/a	0.39844	no	n/a	n/a
657.6328125	n/a	168354	largeHSmallT	correct	incongruent	0.53516	no	H	T
658.1679688	n/a	168491	responseLargeH	correct	n/a	0.53516	no	n/a	n/a
659.2460938	n/a	168767	largeHSmallH	correct	congruent	0.42188	no	H	H
659.6679688	n/a	168875	responseLargeH	correct	n/a	0.42188	no	n/a	n/a
660.7421875	n/a	169150	largeHSmallH	correct	congruent	0.46094	no	H	H
661.203125	n/a	169268	responseLargeH	correct	n/a	0.46094	no	n/a	n/a
662.2734375	n/a	169542	largeHSmallT	correct	incongruent	0.45703	no	H	T
662.7304688	n/a	169659	responseLargeH	correct	n/a	0.45703	no	n/a	n/a
663.7929688	n/a	169931	largeHSmallT	correct	incongruent	0.37891	no	H	T
664.171875	n/a	170028	responseLargeH	correct	n/a	0.37891	no	n/a	n/a
665.234375	n/a	170300	largeTSmallH	correct	incongruent	0.45703	no	T	H
665.6914062	n/a	170417	responseLargeT	correct	n/a	0.45703	no	n/a	n/a
666.765625	n/a	170692	largeTSmallH	correct	incongruent	0.37891	no	T	H
667.1445312	n/a	170789	responseLargeT	correct	n/a	0.37891	no	n/a	n/a
668.2070312	n/a	171061	largeHSmallT	correct	incongruent	0.46094	no	H	T
668.6679688	n/a	171179	responseLargeH	correct	n/a	0.46094	no	n/a	n/a
669.7421875	n/a	171454	largeTSmallT	correct	congruent	0.44141	no	T	T
670.1835938	n/a	171567	responseLargeT	correct	n/a	0.44141	no	n/a	n/a
671.2617188	n/a	171843	largeHSmallH	correct	congruent	0.32422	no	H	H
671.5859375	n/a	171926	responseLargeH	correct	n/a	0.32422	no	n/a	n/a
672.6601562	n/a	172201	largeHSmallH	correct	congruent	0.40234	no	H	H
673.0625	n/a	172304	responseLargeH	correct	n/a	0.40234	no	n/a	n/a
674.1289062	n/a	172577	largeTSmallH	correct	incongruent	0.39062	no	T	H
674.5195312	n/a	172677	responseLargeT	correct	n/a	0.39062	no	n/a	n/a
675.59375	n/a	172952	largeTSmallT	correct	congruent	0.45312	no	T	T
676.046875	n/a	173068	responseLargeT	correct	n/a	0.45312	no	n/a	n/a
677.1289062	n/a	173345	largeHSmallH	correct	congruent	0.44922	no	H	H
677.578125	n/a	173460	responseLargeH	correct	n/a	0.44922	no	n/a	n/a
678.6484375	n/a	173734	largeTSmallT	correct	congruent	0.47656	no	T	T
679.125	n/a	173856	responseLargeT	correct	n/a	0.47656	no	n/a	n/a
680.1953125	n/a	174130	largeTSmallH	correct	incongruent	0.52344	no	T	H
680.71875	n/a	174264	responseLargeT	correct	n/a	0.52344	no	n/a	n/a
681.78125	n/a	174536	largeHSmallH	correct	congruent	0.50391	no	H	H
682.2851562	n/a	174665	responseLargeH	correct	n/a	0.50391	no	n/a	n/a
683.3671875	n/a	174942	largeTSmallH	correct	incongruent	0.46484	no	T	H
683.8320312	n/a	175061	responseLargeT	correct	n/a	0.46484	no	n/a	n/a
684.8984375	n/a	175334	largeTSmallT	correct	congruent	0.50781	no	T	T
685.40625	n/a	175464	responseLargeT	correct	n/a	0.50781	no	n/a	n/a
686.4882812	n/a	175741	largeHSmallH	correct	congruent	0.47266	no	H	H
686.9609375	n/a	175862	responseLargeH	correct	n/a	0.47266	no	n/a	n/a
688.0195312	n/a	176133	largeTSmallT	correct	congruent	0.46875	no	T	T
688.4882812	n/a	176253	responseLargeT	correct	n/a	0.46875	no	n/a	n/a
689.5546875	n/a	176526	largeHSmallT	correct	incongruent	0.39062	no	H	T
689.9453125	n/a	176626	responseLargeH	correct	n/a	0.39062	no	n/a	n/a
691.0195312	n/a	176901	largeHSmallT	correct	incongruent	0.60938	no	H	T
691.6289062	n/a	177057	responseLargeH	correct	n/a	0.60938	no	n/a	n/a
692.6992188	n/a	177331	largeTSmallT	correct	congruent	0.45312	no	T	T
693.1523438	n/a	177447	responseLargeT	correct	n/a	0.45312	no	n/a	n/a
694.21875	n/a	177720	largeHSmallT	correct	incongruent	0.53125	no	H	T
694.75	n/a	177856	responseLargeH	correct	n/a	0.53125	no	n/a	n/a
695.8320312	n/a	178133	largeHSmallH	correct	congruent	0.55859	no	H	H
696.390625	n/a	178276	responseLargeH	correct	n/a	0.55859	no	n/a	n/a
697.4609375	n/a	178550	largeTSmallT	correct	congruent	0.63672	no	T	T
698.0976562	n/a	178713	responseLargeT	correct	n/a	0.63672	no	n/a	n/a
699.1679688	n/a	178987	largeHSmallT	correct	incongruent	0.41016	no	H	T
699.578125	n/a	179092	responseLargeH	correct	n/a	0.41016	no	n/a	n/a
700.6445312	n/a	179365	largeHSmallT	correct	incongruent	0.44922	no	H	T
701.09375	n/a	179480	responseLargeH	correct	n/a	0.44922	no	n/a	n/a
702.1523438	n/a	179751	largeHSmallH	correct	congruent	0.48828	no	H	H
702.640625	n/a	179876	responseLargeH	correct	n/a	0.48828	no	n/a	n/a
703.6992188	n/a	180147	largeTSmallH	correct	incongruent	0.875	no	T	H
704.5742188	n/a	180371	responseLargeT	correct	n/a	0.875	no	n/a	n/a
705.6445312	n/a	180645	largeTSmallT	correct	congruent	0.70703	no	T	T
706.3515625	n/a	180826	responseLargeT	correct	n/a	0.70703	no	n/a	n/a
707.4179688	n/a	181099	largeTSmallH	error	incongruent	0.53516	no	T	H
707.953125	n/a	181236	responseLargeH	error	n/a	0.53516	no	n/a	n/a
709.0195312	n/a	181509	largeTSmallH	correct	incongruent	0.46875	no	T	H
709.4882812	n/a	181629	responseLargeT	correct	n/a	0.46875	no	n/a	n/a
710.5546875	n/a	181902	largeHSmallH	correct	congruent	0.40625	no	H	H
710.9609375	n/a	182006	responseLargeH	correct	n/a	0.40625	no	n/a	n/a
712.03125	n/a	182280	largeTSmallT	correct	congruent	0.50391	no	T	T
712.5351562	n/a	182409	responseLargeT	correct	n/a	0.50391	no	n/a	n/a
713.6054688	n/a	182683	largeTSmallT	correct	congruent	0.4375	no	T	T
714.0429688	n/a	182795	responseLargeT	correct	n/a	0.4375	no	n/a	n/a
715.1132812	n/a	183069	largeHSmallH	correct	congruent	0.625	no	H	H
715.7382812	n/a	183229	responseLargeH	correct	n/a	0.625	no	n/a	n/a
716.8046875	n/a	183502	largeTSmallT	correct	congruent	0.51953	no	T	T
717.3242188	n/a	183635	responseLargeT	correct	n/a	0.51953	no	n/a	n/a
718.40625	n/a	183912	largeTSmallH	correct	incongruent	0.46484	no	T	H
718.8710938	n/a	184031	responseLargeT	correct	n/a	0.46484	no	n/a	n/a
719.9375	n/a	184304	largeTSmallT	correct	congruent	0.41016	no	T	T
720.3476562	n/a	184409	responseLargeT	correct	n/a	0.41016	no	n/a	n/a
721.4179688	n/a	184683	largeHSmallT	error	incongruent	0.42188	no	H	T
721.8398438	n/a	184791	responseLargeT	error	n/a	0.42188	no	n/a	n/a
722.9140625	n/a	185066	largeTSmallT	correct	congruent	0.39453	no	T	T
723.3085938	n/a	185167	responseLargeT	correct	n/a	0.39453	no	n/a	n/a
724.390625	n/a	185444	largeTSmallT	correct	congruent	0.53516	no	T	T
724.9257812	n/a	185581	responseLargeT	correct	n/a	0.53516	no	n/a	n/a
725.9921875	n/a	185854	largeTSmallT	correct	congruent	0.48828	no	T	T
726.4804688	n/a	185979	responseLargeT	correct	n/a	0.48828	no	n/a	n/a
727.5507812	n/a	186253	largeTSmallH	correct	incongruent	0.42578	no	T	H
727.9765625	n/a	186362	responseLargeT	correct	n/a	0.42578	no	n/a	n/a
729.0585938	n/a	186639	largeTSmallH	correct	incongruent	0.62109	no	T	H
729.6796875	n/a	186798	responseLargeT	correct	n/a	0.62109	no	n/a	n/a
730.7539062	n/a	187073	largeTSmallT	correct	congruent	0.55469	no	T	T
731.3085938	n/a	187215	responseLargeT	correct	n/a	0.55469	no	n/a	n/a
732.3789062	n/a	187489	largeHSmallT	correct	incongruent	0.38281	no	H	T
732.7617188	n/a	187587	responseLargeH	correct	n/a	0.38281	no	n/a	n/a
733.8320312	n/a	187861	largeHSmallT	correct	incongruent	0.36328	no	H	T
734.1953125	n/a	187954	responseLargeH	correct	n/a	0.36328	no	n/a	n/a
735.2578125	n/a	188226	largeHSmallT	correct	incongruent	0.44141	no	H	T
735.6992188	n/a	188339	responseLargeH	correct	n/a	0.44141	no	n/a	n/a
736.7773438	n/a	188615	largeHSmallH	correct	congruent	0.37109	no	H	H
737.1484375	n/a	188710	responseLargeH	correct	n/a	0.37109	no	n/a	n/a
738.2304688	n/a	188987	largeTSmallH	correct	incongruent	0.53125	no	T	H
738.7617188	n/a	189123	responseLargeT	correct	n/a	0.53125	no	n/a	n/a
739.8320312	n/a	189397	largeTSmallT	correct	congruent	0.46875	no	T	T
740.3007812	n/a	189517	responseLargeT	correct	n/a	0.46875	no	n/a	n/a
741.3789062	n/a	189793	largeHSmallT	correct	incongruent	0.48828	no	H	T
741.8671875	n/a	189918	responseLargeH	correct	n/a	0.48828	no	n/a	n/a
742.9375	n/a	190192	largeHSmallH	correct	congruent	0.46094	no	H	H
743.3984375	n/a	190310	responseLargeH	correct	n/a	0.46094	no	n/a	n/a
744.4726562	n/a	190585	largeHSmallT	correct	incongruent	0.43359	no	H	T
744.90625	n/a	190696	responseLargeH	correct	n/a	0.43359	no	n/a	n/a
745.9804688	n/a	190971	largeHSmallT	correct	incongruent	0.45312	no	H	T
746.4335938	n/a	191087	responseLargeH	correct	n/a	0.45312	no	n/a	n/a
747.5117188	n/a	191363	largeTSmallT	correct	congruent	0.57422	no	T	T
748.0859375	n/a	191510	responseLargeT	correct	n/a	0.57422	no	n/a	n/a
749.1640625	n/a	191786	largeHSmallT	correct	incongruent	0.43359	no	H	T
749.5976562	n/a	191897	responseLargeH	correct	n/a	0.43359	no	n/a	n/a
750.671875	n/a	192172	largeTSmallH	correct	incongruent	0.56641	no	T	H
751.2382812	n/a	192317	responseLargeT	correct	n/a	0.56641	no	n/a	n/a
752.3125	n/a	192592	largeTSmallH	correct	incongruent	0.49609	no	T	H
752.8085938	n/a	192719	responseLargeT	correct	n/a	0.49609	no	n/a	n/a
753.8710938	n/a	192991	largeTSmallH	correct	incongruent	0.77344	no	T	H
754.6445312	n/a	193189	responseLargeT	correct	n/a	0.77344	no	n/a	n/a
755.7109375	n/a	193462	largeHSmallT	correct	incongruent	0.5625	no	H	T
756.2734375	n/a	193606	responseLargeH	correct	n/a	0.5625	no	n/a	n/a
757.3398438	n/a	193879	largeTSmallH	correct	incongruent	0.62109	no	T	H
757.9609375	n/a	194038	responseLargeT	correct	n/a	0.62109	no	n/a	n/a
759.0429688	n/a	194315	largeTSmallH	correct	incongruent	0.66797	no	T	H
759.7109375	n/a	194486	responseLargeT	correct	n/a	0.66797	no	n/a	n/a
760.7929688	n/a	194763	largeTSmallH	correct	incongruent	0.48828	no	T	H
761.28125	n/a	194888	responseLargeT	correct	n/a	0.48828	no	n/a	n/a
762.3515625	n/a	195162	largeTSmallH	correct	incongruent	0.42969	no	T	H
762.78125	n/a	195272	responseLargeT	correct	n/a	0.42969	no	n/a	n/a
763.859375	n/a	195548	largeTSmallH	correct	incongruent	0.49219	no	T	H
764.3515625	n/a	195674	responseLargeT	correct	n/a	0.49219	no	n/a	n/a
765.4179688	n/a	195947	largeHSmallH	correct	congruent	0.49609	no	H	H
765.9140625	n/a	196074	responseLargeH	correct	n/a	0.49609	no	n/a	n/a
766.9765625	n/a	196346	largeHSmallH	correct	congruent	0.46094	no	H	H
767.4375	n/a	196464	responseLargeH	correct	n/a	0.46094	no	n/a	n/a
768.5117188	n/a	196739	largeTSmallT	correct	congruent	0.55859	no	T	T
769.0703125	n/a	196882	responseLargeT	correct	n/a	0.55859	no	n/a	n/a
770.1523438	n/a	197159	largeHSmallH	correct	congruent	0.51172	no	H	H
770.6640625	n/a	197290	responseLargeH	correct	n/a	0.51172	no	n/a	n/a
771.7382812	n/a	197565	largeTSmallT	correct	congruent	0.67578	no	T	T
772.4140625	n/a	197738	responseLargeT	correct	n/a	0.67578	no	n/a	n/a
773.484375	n/a	198012	largeHSmallH	correct	congruent	0.66016	no	H	H
774.1445312	n/a	198181	responseLargeH	correct	n/a	0.66016	no	n/a	n/a
775.21875	n/a	198456	largeHSmallH	correct	congruent	0.67188	no	H	H
775.890625	n/a	198628	responseLargeH	correct	n/a	0.67188	no	n/a	n/a
776.9648438	n/a	198903	largeHSmallT	correct	incongruent	0.44141	no	H	T
777.40625	n/a	199016	responseLargeH	correct	n/a	0.44141	no	n/a	n/a
778.4726562	n/a	199289	largeHSmallT	correct	incongruent	0.41406	no	H	T
778.8867188	n/a	199395	responseLargeH	correct	n/a	0.41406	no	n/a	n/a
779.9492188	n/a	199667	largeHSmallH	correct	congruent	0.33594	no	H	H
780.2851562	n/a	199753	responseLargeH	correct	n/a	0.33594	no	n/a	n/a
781.3632812	n/a	200029	largeTSmallH	correct	incongruent	0.61328	no	T	H
781.9765625	n/a	200186	responseLargeT	correct	n/a	0.61328	no	n/a	n/a
783.0429688	n/a	200459	largeTSmallH	correct	incongruent	0.55469	no	T	H
783.5976562	n/a	200601	responseLargeT	correct	n/a	0.55469	no	n/a	n/a
784.671875	n/a	200876	largeTSmallT	correct	congruent	0.42188	no	T	T
785.09375	n/a	200984	responseLargeT	correct	n/a	0.42188	no	n/a	n/a
786.1640625	n/a	201258	largeTSmallT	correct	congruent	0.49219	no	T	T
786.65625	n/a	201384	responseLargeT	correct	n/a	0.49219	no	n/a	n/a
787.7226562	n/a	201657	largeTSmallH	correct	incongruent	0.51172	no	T	H
788.234375	n/a	201788	responseLargeT	correct	n/a	0.51172	no	n/a	n/a
789.296875	n/a	202060	largeHSmallH	correct	congruent	0.375	no	H	H
789.671875	n/a	202156	responseLargeH	correct	n/a	0.375	no	n/a	n/a
790.7382812	n/a	202429	largeTSmallH	correct	incongruent	0.47266	no	T	H
791.2109375	n/a	202550	responseLargeT	correct	n/a	0.47266	no	n/a	n/a
792.2851562	n/a	202825	largeHSmallT	correct	incongruent	0.42188	no	H	T
792.7070312	n/a	202933	responseLargeH	correct	n/a	0.42188	no	n/a	n/a
793.7773438	n/a	203207	largeHSmallH	correct	congruent	0.51953	no	H	H
794.296875	n/a	203340	responseLargeH	correct	n/a	0.51953	no	n/a	n/a
795.3632812	n/a	203613	largeHSmallT	correct	incongruent	0.39844	no	H	T
795.7617188	n/a	203715	responseLargeH	correct	n/a	0.39844	no	n/a	n/a
796.8320312	n/a	203989	largeTSmallT	correct	congruent	0.48438	no	T	T
797.3164062	n/a	204113	responseLargeT	correct	n/a	0.48438	no	n/a	n/a
798.3789062	n/a	204385	largeHSmallH	correct	congruent	0.34375	no	H	H
798.7226562	n/a	204473	responseLargeH	correct	n/a	0.34375	no	n/a	n/a
799.8046875	n/a	204750	largeTSmallH	correct	incongruent	0.41797	no	T	H
800.2226562	n/a	204857	responseLargeT	correct	n/a	0.41797	no	n/a	n/a
801.296875	n/a	205132	largeHSmallT	correct	incongruent	0.53125	no	H	T
801.828125	n/a	205268	responseLargeH	correct	n/a	0.53125	no	n/a	n/a
802.9101562	n/a	205545	largeHSmallT	correct	incongruent	0.40625	no	H	T
803.3164062	n/a	205649	responseLargeH	correct	n/a	0.40625	no	n/a	n/a
804.390625	n/a	205924	largeHSmallH	correct	congruent	0.48047	no	H	H
804.8710938	n/a	206047	responseLargeH	correct	n/a	0.48047	no	n/a	n/a
805.9492188	n/a	206323	largeHSmallT	correct	incongruent	0.43359	no	H	T
806.3828125	n/a	206434	responseLargeH	correct	n/a	0.43359	no	n/a	n/a
807.4570312	n/a	206709	largeHSmallH	correct	congruent	0.41016	no	H	H
807.8671875	n/a	206814	responseLargeH	correct	n/a	0.41016	no	n/a	n/a
808.9375	n/a	207088	largeTSmallH	correct	incongruent	0.8125	no	T	H
809.75	n/a	207296	responseLargeT	correct	n/a	0.8125	no	n/a	n/a
810.8164062	n/a	207569	largeHSmallH	correct	congruent	0.42578	no	H	H
811.2421875	n/a	207678	responseLargeH	correct	n/a	0.42578	no	n/a	n/a
812.3085938	n/a	207951	largeTSmallT	correct	congruent	0.44531	no	T	T
812.7539062	n/a	208065	responseLargeT	correct	n/a	0.44531	no	n/a	n/a
813.8320312	n/a	208341	largeHSmallT	correct	incongruent	0.44531	no	H	T
814.2773438	n/a	208455	responseLargeH	correct	n/a	0.44531	no	n/a	n/a
815.3515625	n/a	208730	largeTSmallH	correct	incongruent	0.53125	no	T	H
815.8828125	n/a	208866	responseLargeT	correct	n/a	0.53125	no	n/a	n/a
816.9492188	n/a	209139	largeHSmallH	correct	congruent	0.63672	no	H	H
817.5859375	n/a	209302	responseLargeH	correct	n/a	0.63672	no	n/a	n/a
818.65625	n/a	209576	largeHSmallH	correct	congruent	0.45703	no	H	H
819.1132812	n/a	209693	responseLargeH	correct	n/a	0.45703	no	n/a	n/a
820.1914062	n/a	209969	largeTSmallT	correct	congruent	0.42578	no	T	T
820.6171875	n/a	210078	responseLargeT	correct	n/a	0.42578	no	n/a	n/a
821.6835938	n/a	210351	largeTSmallH	correct	incongruent	0.55078	no	T	H
822.234375	n/a	210492	responseLargeT	correct	n/a	0.55078	no	n/a	n/a
823.3085938	n/a	210767	largeHSmallH	correct	congruent	0.50781	no	H	H
823.8164062	n/a	210897	responseLargeH	correct	n/a	0.50781	no	n/a	n/a
824.8828125	n/a	211170	largeTSmallH	correct	incongruent	0.52344	no	T	H
825.40625	n/a	211304	responseLargeT	correct	n/a	0.52344	no	n/a	n/a
826.4804688	n/a	211579	largeTSmallT	correct	congruent	0.45312	no	T	T
826.9335938	n/a	211695	responseLargeT	correct	n/a	0.45312	no	n/a	n/a
828.0039062	n/a	211969	largeTSmallT	correct	congruent	0.47266	no	T	T
828.4765625	n/a	212090	responseLargeT	correct	n/a	0.47266	no	n/a	n/a
829.5507812	n/a	212365	largeTSmallT	correct	congruent	0.41406	no	T	T
829.9648438	n/a	212471	responseLargeT	correct	n/a	0.41406	no	n/a	n/a
831.03125	n/a	212744	largeTSmallH	correct	incongruent	0.40625	no	T	H
831.4375	n/a	212848	responseLargeT	correct	n/a	0.40625	no	n/a	n/a
832.5078125	n/a	213122	largeTSmallT	correct	congruent	0.52344	no	T	T
833.03125	n/a	213256	responseLargeT	correct	n/a	0.52344	no	n/a	n/a
834.109375	n/a	213532	largeHSmallT	correct	incongruent	0.43359	no	H	T
834.5429688	n/a	213643	responseLargeH	correct	n/a	0.43359	no	n/a	n/a
835.6171875	n/a	213918	largeTSmallT	correct	congruent	0.49219	no	T	T
836.109375	n/a	214044	responseLargeT	correct	n/a	0.49219	no	n/a	n/a
837.1757812	n/a	214317	largeTSmallT	correct	congruent	0.42969	no	T	T
837.6054688	n/a	214427	responseLargeT	correct	n/a	0.42969	no	n/a	n/a
838.6835938	n/a	214703	largeTSmallT	correct	congruent	0.41406	no	T	T
839.0976562	n/a	214809	responseLargeT	correct	n/a	0.41406	no	n/a	n/a
840.1757812	n/a	215085	largeTSmallH	correct	incongruent	0.46094	no	T	H
840.6367188	n/a	215203	responseLargeT	correct	n/a	0.46094	no	n/a	n/a
841.6953125	n/a	215474	largeHSmallH	correct	congruent	0.42578	no	H	H
842.1210938	n/a	215583	responseLargeH	correct	n/a	0.42578	no	n/a	n/a
843.1875	n/a	215856	largeHSmallT	correct	incongruent	0.67188	no	H	T
843.859375	n/a	216028	responseLargeH	correct	n/a	0.67188	no	n/a	n/a
844.9375	n/a	216304	largeTSmallH	correct	incongruent	0.52734	no	T	H
845.4648438	n/a	216439	responseLargeT	correct	n/a	0.52734	no	n/a	n/a
846.5351562	n/a	216713	largeTSmallH	correct	incongruent	0.54297	no	T	H
847.078125	n/a	216852	responseLargeT	correct	n/a	0.54297	no	n/a	n/a
848.1484375	n/a	217126	largeHSmallT	correct	incongruent	0.42188	no	H	T
848.5703125	n/a	217234	responseLargeH	correct	n/a	0.42188	no	n/a	n/a
849.640625	n/a	217508	largeTSmallH	correct	incongruent	0.47266	no	T	H
850.1132812	n/a	217629	responseLargeT	correct	n/a	0.47266	no	n/a	n/a
851.1875	n/a	217904	largeHSmallH	correct	congruent	0.58594	no	H	H
851.7734375	n/a	218054	responseLargeH	correct	n/a	0.58594	no	n/a	n/a
852.8398438	n/a	218327	largeTSmallT	correct	congruent	0.32422	no	T	T
853.1640625	n/a	218410	responseLargeT	correct	n/a	0.32422	no	n/a	n/a
854.2304688	n/a	218683	largeHSmallH	error	congruent	0.46094	no	H	H
854.6914062	n/a	218801	responseLargeT	error	n/a	0.46094	no	n/a	n/a
855.7617188	n/a	219075	largeTSmallT	correct	congruent	0.45312	no	T	T
856.2148438	n/a	219191	responseLargeT	correct	n/a	0.45312	no	n/a	n/a
857.28125	n/a	219464	largeTSmallH	correct	incongruent	0.55859	no	T	H
857.8398438	n/a	219607	responseLargeT	correct	n/a	0.55859	no	n/a	n/a
858.9101562	n/a	219881	largeTSmallT	correct	congruent	0.44141	no	T	T
859.3515625	n/a	219994	responseLargeT	correct	n/a	0.44141	no	n/a	n/a
860.4296875	n/a	220270	largeTSmallH	correct	incongruent	0.46094	no	T	H
860.890625	n/a	220388	responseLargeT	correct	n/a	0.46094	no	n/a	n/a
861.9609375	n/a	220662	largeHSmallT	correct	incongruent	0.46875	no	H	T
862.4296875	n/a	220782	responseLargeH	correct	n/a	0.46875	no	n/a	n/a
863.4960938	n/a	221055	largeTSmallT	correct	congruent	0.63672	no	T	T
864.1328125	n/a	221218	responseLargeT	correct	n/a	0.63672	no	n/a	n/a
865.1875	n/a	221488	largeTSmallT	correct	congruent	0.44922	no	T	T
865.6367188	n/a	221603	responseLargeT	correct	n/a	0.44922	no	n/a	n/a
866.7070312	n/a	221877	largeHSmallH	correct	congruent	0.4375	no	H	H
867.1445312	n/a	221989	responseLargeH	correct	n/a	0.4375	no	n/a	n/a
868.2304688	n/a	222267	largeHSmallT	correct	incongruent	0.39062	no	H	T
868.6210938	n/a	222367	responseLargeH	correct	n/a	0.39062	no	n/a	n/a
869.6835938	n/a	222639	largeHSmallT	correct	incongruent	0.48047	no	H	T
870.1640625	n/a	222762	responseLargeH	correct	n/a	0.48047	no	n/a	n/a
871.2304688	n/a	223035	largeHSmallT	correct	incongruent	0.375	no	H	T
871.6054688	n/a	223131	responseLargeH	correct	n/a	0.375	no	n/a	n/a
872.6835938	n/a	223407	largeTSmallT	correct	congruent	0.69922	no	T	T
873.3828125	n/a	223586	responseLargeT	correct	n/a	0.69922	no	n/a	n/a
874.4414062	n/a	223857	largeHSmallH	correct	congruent	0.65625	no	H	H
875.0976562	n/a	224025	responseLargeH	correct	n/a	0.65625	no	n/a	n/a
876.1601562	n/a	224297	largeHSmallT	error	incongruent	0.50781	no	H	T
876.6679688	n/a	224427	responseLargeT	error	n/a	0.50781	no	n/a	n/a
877.734375	n/a	224700	largeHSmallT	correct	incongruent	0.65234	no	H	T
878.3867188	n/a	224867	responseLargeH	correct	n/a	0.65234	no	n/a	n/a
879.4570312	n/a	225141	largeHSmallT	correct	incongruent	0.49609	no	H	T
879.953125	n/a	225268	responseLargeH	correct	n/a	0.49609	no	n/a	n/a
881.0273438	n/a	225543	largeTSmallH	correct	incongruent	0.60156	no	T	H
881.6289062	n/a	225697	responseLargeT	correct	n/a	0.60156	no	n/a	n/a
882.6953125	n/a	225970	largeHSmallT	correct	incongruent	0.66406	no	H	T
883.359375	n/a	226140	responseLargeH	correct	n/a	0.66406	no	n/a	n/a
884.4296875	n/a	226414	largeHSmallT	correct	incongruent	0.36328	no	H	T
884.7929688	n/a	226507	responseLargeH	correct	n/a	0.36328	no	n/a	n/a
885.8671875	n/a	226782	largeHSmallT	correct	incongruent	0.41406	no	H	T
886.28125	n/a	226888	responseLargeH	correct	n/a	0.41406	no	n/a	n/a
887.3476562	n/a	227161	largeTSmallT	correct	congruent	0.51953	no	T	T
887.8671875	n/a	227294	responseLargeT	correct	n/a	0.51953	no	n/a	n/a
888.9335938	n/a	227567	largeTSmallT	correct	congruent	0.49219	no	T	T
889.4257812	n/a	227693	responseLargeT	correct	n/a	0.49219	no	n/a	n/a
890.4960938	n/a	227967	largeTSmallH	correct	incongruent	0.46875	no	T	H
890.9648438	n/a	228087	responseLargeT	correct	n/a	0.46875	no	n/a	n/a
892.0273438	n/a	228359	largeTSmallT	correct	congruent	0.44531	no	T	T
892.4726562	n/a	228473	responseLargeT	correct	n/a	0.44531	no	n/a	n/a
893.5351562	n/a	228745	largeTSmallT	correct	congruent	0.44531	no	T	T
893.9804688	n/a	228859	responseLargeT	correct	n/a	0.44531	no	n/a	n/a
895.0546875	n/a	229134	largeHSmallH	error	congruent	0.39453	no	H	H
895.4492188	n/a	229235	responseLargeT	error	n/a	0.39453	no	n/a	n/a
896.5195312	n/a	229509	largeTSmallT	correct	congruent	0.42188	no	T	T
896.9414062	n/a	229617	responseLargeT	correct	n/a	0.42188	no	n/a	n/a
898.015625	n/a	229892	largeTSmallH	correct	incongruent	0.40234	no	T	H
898.4179688	n/a	229995	responseLargeT	correct	n/a	0.40234	no	n/a	n/a
899.4804688	n/a	230267	largeHSmallT	correct	incongruent	0.51562	no	H	T
899.9960938	n/a	230399	responseLargeH	correct	n/a	0.51562	no	n/a	n/a
901.0820312	n/a	230677	largeTSmallH	correct	incongruent	0.50391	no	T	H
901.5859375	n/a	230806	responseLargeT	correct	n/a	0.50391	no	n/a	n/a
902.65625	n/a	231080	largeHSmallT	correct	incongruent	0.44141	no	H	T
903.0976562	n/a	231193	responseLargeH	correct	n/a	0.44141	no	n/a	n/a
904.1601562	n/a	231465	largeTSmallH	correct	incongruent	0.4375	no	T	H
904.5976562	n/a	231577	responseLargeT	correct	n/a	0.4375	no	n/a	n/a
905.6796875	n/a	231854	largeTSmallH	correct	incongruent	0.52344	no	T	H
906.203125	n/a	231988	responseLargeT	correct	n/a	0.52344	no	n/a	n/a
907.2695312	n/a	232261	largeHSmallT	correct	incongruent	0.44531	no	H	T
907.7148438	n/a	232375	responseLargeH	correct	n/a	0.44531	no	n/a	n/a
908.7734375	n/a	232646	largeHSmallH	correct	congruent	0.60938	no	H	H
909.3828125	n/a	232802	responseLargeH	correct	n/a	0.60938	no	n/a	n/a
910.453125	n/a	233076	largeTSmallH	correct	incongruent	0.43359	no	T	H
910.8867188	n/a	233187	responseLargeT	correct	n/a	0.43359	no	n/a	n/a
911.9609375	n/a	233462	largeHSmallH	correct	congruent	0.38281	no	H	H
912.34375	n/a	233560	responseLargeH	correct	n/a	0.38281	no	n/a	n/a
913.4140625	n/a	233834	largeHSmallT	correct	incongruent	0.41797	no	H	T
913.8320312	n/a	233941	responseLargeH	correct	n/a	0.41797	no	n/a	n/a
914.8945312	n/a	234213	largeTSmallT	correct	congruent	0.46875	no	T	T
915.3632812	n/a	234333	responseLargeT	correct	n/a	0.46875	no	n/a	n/a
916.4414062	n/a	234609	largeHSmallH	correct	congruent	0.34375	no	H	H
916.7851562	n/a	234697	responseLargeH	correct	n/a	0.34375	no	n/a	n/a
917.8554688	n/a	234971	largeHSmallT	correct	incongruent	0.59375	no	H	T
918.4492188	n/a	235123	responseLargeH	correct	n/a	0.59375	no	n/a	n/a
919.5195312	n/a	235397	largeHSmallT	correct	incongruent	0.42969	no	H	T
919.9492188	n/a	235507	responseLargeH	correct	n/a	0.42969	no	n/a	n/a
921.0273438	n/a	235783	largeTSmallT	correct	congruent	0.44922	no	T	T
921.4765625	n/a	235898	responseLargeT	correct	n/a	0.44922	no	n/a	n/a
922.546875	n/a	236172	largeHSmallT	correct	incongruent	0.51562	no	H	T
923.0625	n/a	236304	responseLargeH	correct	n/a	0.51562	no	n/a	n/a
924.1328125	n/a	236578	largeHSmallH	correct	congruent	0.42969	no	H	H
924.5625	n/a	236688	responseLargeH	correct	n/a	0.42969	no	n/a	n/a
925.6289062	n/a	236961	largeHSmallH	correct	congruent	0.39453	no	H	H
926.0234375	n/a	237062	responseLargeH	correct	n/a	0.39453	no	n/a	n/a
927.09375	n/a	237336	largeHSmallH	correct	congruent	0.45312	no	H	H
927.546875	n/a	237452	responseLargeH	correct	n/a	0.45312	no	n/a	n/a
928.6132812	n/a	237725	largeTSmallH	correct	incongruent	0.73438	no	T	H
929.3476562	n/a	237913	responseLargeT	correct	n/a	0.73438	no	n/a	n/a
930.4140625	n/a	238186	largeHSmallH	correct	congruent	0.35547	no	H	H
930.7695312	n/a	238277	responseLargeH	correct	n/a	0.35547	no	n/a	n/a
931.8398438	n/a	238551	largeTSmallH	correct	incongruent	0.59766	no	T	H
932.4375	n/a	238704	responseLargeT	correct	n/a	0.59766	no	n/a	n/a
933.5078125	n/a	238978	largeTSmallT	correct	congruent	0.46875	no	T	T
933.9765625	n/a	239098	responseLargeT	correct	n/a	0.46875	no	n/a	n/a
935.0546875	n/a	239374	largeTSmallT	correct	congruent	0.70312	no	T	T
935.7578125	n/a	239554	responseLargeT	correct	n/a	0.70312	no	n/a	n/a
936.828125	n/a	239828	largeTSmallT	correct	congruent	0.46094	no	T	T
937.2890625	n/a	239946	responseLargeT	correct	n/a	0.46094	no	n/a	n/a
938.359375	n/a	240220	largeTSmallH	correct	incongruent	0.45703	no	T	H
938.8164062	n/a	240337	responseLargeT	correct	n/a	0.45703	no	n/a	n/a
939.8945312	n/a	240613	largeHSmallT	correct	incongruent	0.42578	no	H	T
940.3203125	n/a	240722	responseLargeH	correct	n/a	0.42578	no	n/a	n/a
941.3867188	n/a	240995	largeHSmallH	correct	congruent	0.44922	no	H	H
941.8359375	n/a	241110	responseLargeH	correct	n/a	0.44922	no	n/a	n/a
942.921875	n/a	241388	largeTSmallT	error	congruent	0.46875	no	T	T
943.390625	n/a	241508	responseLargeH	error	n/a	0.46875	no	n/a	n/a
944.4648438	n/a	241783	largeHSmallH	error	congruent	0.44922	no	H	H
944.9140625	n/a	241898	responseLargeT	error	n/a	0.44922	no	n/a	n/a
945.9882812	n/a	242173	largeTSmallH	correct	incongruent	0.35156	no	T	H
946.3398438	n/a	242263	responseLargeT	correct	n/a	0.35156	no	n/a	n/a
947.4140625	n/a	242538	largeHSmallH	correct	congruent	0.63672	no	H	H
948.0507812	n/a	242701	responseLargeH	correct	n/a	0.63672	no	n/a	n/a
949.1210938	n/a	242975	largeHSmallT	correct	incongruent	0.89844	no	H	T
950.0195312	n/a	243205	responseLargeH	correct	n/a	0.89844	no	n/a	n/a
951.09375	n/a	243480	largeHSmallH	correct	congruent	1.5039	yes	H	H
952.5976562	n/a	243865	responseLargeH	correct	n/a	1.5039	yes	n/a	n/a
953.6679688	n/a	244139	largeHSmallH	correct	congruent	0.625	no	H	H
954.2929688	n/a	244299	responseLargeH	correct	n/a	0.625	no	n/a	n/a
955.3710938	n/a	244575	largeHSmallH	correct	congruent	1.0625	no	H	H
956.4335938	n/a	244847	responseLargeH	correct	n/a	1.0625	no	n/a	n/a
957.5078125	n/a	245122	largeHSmallH	correct	congruent	0.88281	no	H	H
958.390625	n/a	245348	responseLargeH	correct	n/a	0.88281	no	n/a	n/a
959.4648438	n/a	245623	largeTSmallH	correct	incongruent	1.0664	no	T	H
960.53125	n/a	245896	responseLargeT	correct	n/a	1.0664	no	n/a	n/a
961.5976562	n/a	246169	largeHSmallH	correct	congruent	1.0703	no	H	H
962.6679688	n/a	246443	responseLargeH	correct	n/a	1.0703	no	n/a	n/a
963.7460938	n/a	246719	largeHSmallT	correct	incongruent	0.88672	no	H	T
964.6328125	n/a	246946	responseLargeH	correct	n/a	0.88672	no	n/a	n/a
965.7070312	n/a	247221	largeHSmallH	correct	congruent	0.69922	no	H	H
966.40625	n/a	247400	responseLargeH	correct	n/a	0.69922	no	n/a	n/a
967.4648438	n/a	247671	largeTSmallT	correct	congruent	0.78125	no	T	T
968.2460938	n/a	247871	responseLargeT	correct	n/a	0.78125	no	n/a	n/a
969.3046875	n/a	248142	largeTSmallH	correct	incongruent	0.53516	no	T	H
969.8398438	n/a	248279	responseLargeT	correct	n/a	0.53516	no	n/a	n/a
970.9179688	n/a	248555	largeTSmallH	correct	incongruent	0.61719	no	T	H
971.5351562	n/a	248713	responseLargeT	correct	n/a	0.61719	no	n/a	n/a
985.3203125	n/a	252242	largeTSmallH	correct	incongruent	0.55469	no	T	H
985.875	n/a	252384	responseSmallH	correct	n/a	0.55469	no	n/a	n/a
986.9335938	n/a	252655	largeHSmallT	correct	incongruent	0.41797	no	H	T
987.3515625	n/a	252762	responseSmallT	correct	n/a	0.41797	no	n/a	n/a
988.4257812	n/a	253037	largeHSmallT	correct	incongruent	0.38672	no	H	T
988.8125	n/a	253136	responseSmallT	correct	n/a	0.38672	no	n/a	n/a
989.890625	n/a	253412	largeTSmallT	correct	congruent	0.49609	no	T	T
990.3867188	n/a	253539	responseSmallT	correct	n/a	0.49609	no	n/a	n/a
991.4648438	n/a	253815	largeHSmallH	correct	congruent	0.38672	no	H	H
991.8515625	n/a	253914	responseSmallH	correct	n/a	0.38672	no	n/a	n/a
992.9335938	n/a	254191	largeTSmallT	error	congruent	0.39844	no	T	T
993.3320312	n/a	254293	responseSmallH	error	n/a	0.39844	no	n/a	n/a
994.3984375	n/a	254566	largeHSmallT	correct	incongruent	0.51172	no	H	T
994.9101562	n/a	254697	responseSmallT	correct	n/a	0.51172	no	n/a	n/a
995.984375	n/a	254972	largeHSmallT	correct	incongruent	0.45703	no	H	T
996.4414062	n/a	255089	responseSmallT	correct	n/a	0.45703	no	n/a	n/a
997.5195312	n/a	255365	largeTSmallH	correct	incongruent	0.41797	no	T	H
997.9375	n/a	255472	responseSmallH	correct	n/a	0.41797	no	n/a	n/a
999.0117188	n/a	255747	largeTSmallT	correct	congruent	0.46484	no	T	T
999.4765625	n/a	255866	responseSmallT	correct	n/a	0.46484	no	n/a	n/a
1000.546875	n/a	256140	largeTSmallH	correct	incongruent	0.45312	no	T	H
1001	n/a	256256	responseSmallH	correct	n/a	0.45312	no	n/a	n/a
1002.066406	n/a	256529	largeTSmallT	correct	congruent	0.39453	no	T	T
1002.460938	n/a	256630	responseSmallT	correct	n/a	0.39453	no	n/a	n/a
1003.53125	n/a	256904	largeTSmallH	correct	incongruent	0.35547	no	T	H
1003.886719	n/a	256995	responseSmallH	correct	n/a	0.35547	no	n/a	n/a
1004.957031	n/a	257269	largeTSmallT	correct	congruent	0.39062	no	T	T
1005.347656	n/a	257369	responseSmallT	correct	n/a	0.39062	no	n/a	n/a
1006.425781	n/a	257645	largeTSmallH	correct	incongruent	0.33594	no	T	H
1006.761719	n/a	257731	responseSmallH	correct	n/a	0.33594	no	n/a	n/a
1007.824219	n/a	258003	largeHSmallT	correct	incongruent	0.43359	no	H	T
1008.257812	n/a	258114	responseSmallT	correct	n/a	0.43359	no	n/a	n/a
1009.316406	n/a	258385	largeHSmallT	n/a	incongruent	n/a	n/a	H	T
1010.839844	n/a	258775	largeHSmallT	correct	incongruent	0.53125	no	H	T
1011.371094	n/a	258911	responseSmallT	correct	n/a	0.53125	no	n/a	n/a
1012.4375	n/a	259184	largeTSmallH	correct	incongruent	0.44922	no	T	H
1012.886719	n/a	259299	responseSmallH	correct	n/a	0.44922	no	n/a	n/a
1013.957031	n/a	259573	largeTSmallH	correct	incongruent	0.37891	no	T	H
1014.335938	n/a	259670	responseSmallH	correct	n/a	0.37891	no	n/a	n/a
1015.410156	n/a	259945	largeTSmallH	correct	incongruent	0.41016	no	T	H
1015.820312	n/a	260050	responseSmallH	correct	n/a	0.41016	no	n/a	n/a
1016.890625	n/a	260324	largeTSmallT	correct	congruent	0.54688	no	T	T
1017.4375	n/a	260464	responseSmallT	correct	n/a	0.54688	no	n/a	n/a
1018.519531	n/a	260741	largeHSmallH	correct	congruent	0.48047	no	H	H
1019	n/a	260864	responseSmallH	correct	n/a	0.48047	no	n/a	n/a
1020.078125	n/a	261140	largeTSmallT	correct	congruent	0.37891	no	T	T
1020.457031	n/a	261237	responseSmallT	correct	n/a	0.37891	no	n/a	n/a
1021.519531	n/a	261509	largeTSmallT	correct	congruent	0.57422	no	T	T
1022.09375	n/a	261656	responseSmallT	correct	n/a	0.57422	no	n/a	n/a
1023.15625	n/a	261928	largeTSmallH	correct	incongruent	0.67188	no	T	H
1023.828125	n/a	262100	responseSmallH	correct	n/a	0.67188	no	n/a	n/a
1024.890625	n/a	262372	largeTSmallH	correct	incongruent	0.49609	no	T	H
1025.386719	n/a	262499	responseSmallH	correct	n/a	0.49609	no	n/a	n/a
1026.453125	n/a	262772	largeTSmallT	correct	congruent	0.46484	no	T	T
1026.917969	n/a	262891	responseSmallT	correct	n/a	0.46484	no	n/a	n/a
1027.996094	n/a	263167	largeTSmallH	correct	incongruent	0.49219	no	T	H
1028.488281	n/a	263293	responseSmallH	correct	n/a	0.49219	no	n/a	n/a
1029.558594	n/a	263567	largeHSmallH	correct	congruent	0.45312	no	H	H
1030.011719	n/a	263683	responseSmallH	correct	n/a	0.45312	no	n/a	n/a
1031.089844	n/a	263959	largeHSmallH	correct	congruent	0.47266	no	H	H
1031.5625	n/a	264080	responseSmallH	correct	n/a	0.47266	no	n/a	n/a
1032.636719	n/a	264355	largeHSmallT	error	incongruent	0.45703	no	H	T
1033.09375	n/a	264472	responseSmallH	error	n/a	0.45703	no	n/a	n/a
1034.15625	n/a	264744	largeTSmallT	correct	congruent	0.49219	no	T	T
1034.648438	n/a	264870	responseSmallT	correct	n/a	0.49219	no	n/a	n/a
1035.71875	n/a	265144	largeHSmallT	correct	incongruent	0.71094	no	H	T
1036.429688	n/a	265326	responseSmallT	correct	n/a	0.71094	no	n/a	n/a
1037.503906	n/a	265601	largeHSmallT	correct	incongruent	0.57812	no	H	T
1038.082031	n/a	265749	responseSmallT	correct	n/a	0.57812	no	n/a	n/a
1039.15625	n/a	266024	largeTSmallT	correct	congruent	0.52344	no	T	T
1039.679688	n/a	266158	responseSmallT	correct	n/a	0.52344	no	n/a	n/a
1040.742188	n/a	266430	largeHSmallT	correct	incongruent	0.44141	no	H	T
1041.183594	n/a	266543	responseSmallT	correct	n/a	0.44141	no	n/a	n/a
1042.25	n/a	266816	largeHSmallT	correct	incongruent	0.46094	no	H	T
1042.710938	n/a	266934	responseSmallT	correct	n/a	0.46094	no	n/a	n/a
1043.785156	n/a	267209	largeTSmallH	correct	incongruent	0.39062	no	T	H
1044.175781	n/a	267309	responseSmallH	correct	n/a	0.39062	no	n/a	n/a
1045.25	n/a	267584	largeTSmallT	correct	congruent	0.58594	no	T	T
1045.835938	n/a	267734	responseSmallT	correct	n/a	0.58594	no	n/a	n/a
1046.902344	n/a	268007	largeTSmallT	correct	congruent	0.48438	no	T	T
1047.386719	n/a	268131	responseSmallT	correct	n/a	0.48438	no	n/a	n/a
1048.449219	n/a	268403	largeTSmallT	correct	congruent	0.44531	no	T	T
1048.894531	n/a	268517	responseSmallT	correct	n/a	0.44531	no	n/a	n/a
1049.957031	n/a	268789	largeHSmallH	correct	congruent	0.42188	no	H	H
1050.378906	n/a	268897	responseSmallH	correct	n/a	0.42188	no	n/a	n/a
1051.449219	n/a	269171	largeHSmallH	correct	congruent	0.41797	no	H	H
1051.867188	n/a	269278	responseSmallH	correct	n/a	0.41797	no	n/a	n/a
1052.945312	n/a	269554	largeHSmallH	correct	congruent	0.40234	no	H	H
1053.347656	n/a	269657	responseSmallH	correct	n/a	0.40234	no	n/a	n/a
1054.421875	n/a	269932	largeTSmallH	correct	incongruent	0.44531	no	T	H
1054.867188	n/a	270046	responseSmallH	correct	n/a	0.44531	no	n/a	n/a
1055.945312	n/a	270322	largeTSmallH	correct	incongruent	0.4375	no	T	H
1056.382812	n/a	270434	responseSmallH	correct	n/a	0.4375	no	n/a	n/a
1057.449219	n/a	270707	largeHSmallT	correct	incongruent	0.5	no	H	T
1057.949219	n/a	270835	responseSmallT	correct	n/a	0.5	no	n/a	n/a
1059.023438	n/a	271110	largeHSmallH	correct	congruent	0.42188	no	H	H
1059.445312	n/a	271218	responseSmallH	correct	n/a	0.42188	no	n/a	n/a
1060.53125	n/a	271496	largeTSmallH	correct	incongruent	0.42188	no	T	H
1060.953125	n/a	271604	responseSmallH	correct	n/a	0.42188	no	n/a	n/a
1062.023438	n/a	271878	largeTSmallH	correct	incongruent	0.48438	no	T	H
1062.507812	n/a	272002	responseSmallH	correct	n/a	0.48438	no	n/a	n/a
1063.582031	n/a	272277	largeHSmallH	correct	congruent	0.41406	no	H	H
1063.996094	n/a	272383	responseSmallH	correct	n/a	0.41406	no	n/a	n/a
1065.0625	n/a	272656	largeTSmallH	correct	incongruent	0.46875	no	T	H
1065.53125	n/a	272776	responseSmallH	correct	n/a	0.46875	no	n/a	n/a
1066.609375	n/a	273052	largeHSmallT	correct	incongruent	0.43359	no	H	T
1067.042969	n/a	273163	responseSmallT	correct	n/a	0.43359	no	n/a	n/a
1068.117188	n/a	273438	largeHSmallT	correct	incongruent	0.38281	no	H	T
1068.5	n/a	273536	responseSmallT	correct	n/a	0.38281	no	n/a	n/a
1069.570312	n/a	273810	largeHSmallT	correct	incongruent	0.6875	no	H	T
1070.257812	n/a	273986	responseSmallT	correct	n/a	0.6875	no	n/a	n/a
1071.328125	n/a	274260	largeTSmallT	correct	congruent	0.61328	no	T	T
1071.941406	n/a	274417	responseSmallT	correct	n/a	0.61328	no	n/a	n/a
1072.996094	n/a	274687	largeHSmallH	correct	congruent	0.45312	no	H	H
1073.449219	n/a	274803	responseSmallH	correct	n/a	0.45312	no	n/a	n/a
1074.515625	n/a	275076	largeTSmallH	correct	incongruent	0.47266	no	T	H
1074.988281	n/a	275197	responseSmallH	correct	n/a	0.47266	no	n/a	n/a
1076.0625	n/a	275472	largeHSmallH	correct	congruent	0.54688	no	H	H
1076.609375	n/a	275612	responseSmallH	correct	n/a	0.54688	no	n/a	n/a
1077.691406	n/a	275889	largeTSmallT	correct	congruent	0.46875	no	T	T
1078.160156	n/a	276009	responseSmallT	correct	n/a	0.46875	no	n/a	n/a
1079.222656	n/a	276281	largeTSmallT	correct	congruent	0.41016	no	T	T
1079.632812	n/a	276386	responseSmallT	correct	n/a	0.41016	no	n/a	n/a
1080.714844	n/a	276663	largeTSmallT	correct	congruent	0.50391	no	T	T
1081.21875	n/a	276792	responseSmallT	correct	n/a	0.50391	no	n/a	n/a
1082.289062	n/a	277066	largeTSmallT	correct	congruent	0.69531	no	T	T
1082.984375	n/a	277244	responseSmallT	correct	n/a	0.69531	no	n/a	n/a
1084.050781	n/a	277517	largeTSmallT	correct	congruent	0.57812	no	T	T
1084.628906	n/a	277665	responseSmallT	correct	n/a	0.57812	no	n/a	n/a
1085.703125	n/a	277940	largeHSmallT	correct	incongruent	0.53906	no	H	T
1086.242188	n/a	278078	responseSmallT	correct	n/a	0.53906	no	n/a	n/a
1087.316406	n/a	278353	largeHSmallT	correct	incongruent	0.46484	no	H	T
1087.78125	n/a	278472	responseSmallT	correct	n/a	0.46484	no	n/a	n/a
1088.847656	n/a	278745	largeHSmallH	correct	congruent	0.38672	no	H	H
1089.234375	n/a	278844	responseSmallH	correct	n/a	0.38672	no	n/a	n/a
1090.300781	n/a	279117	largeTSmallH	correct	incongruent	0.44922	no	T	H
1090.75	n/a	279232	responseSmallH	correct	n/a	0.44922	no	n/a	n/a
1091.824219	n/a	279507	largeTSmallT	correct	congruent	0.40625	no	T	T
1092.230469	n/a	279611	responseSmallT	correct	n/a	0.40625	no	n/a	n/a
1093.300781	n/a	279885	largeTSmallH	correct	incongruent	0.57812	no	T	H
1093.878906	n/a	280033	responseSmallH	correct	n/a	0.57812	no	n/a	n/a
1094.957031	n/a	280309	largeHSmallH	correct	congruent	0.60547	no	H	H
1095.5625	n/a	280464	responseSmallH	correct	n/a	0.60547	no	n/a	n/a
1096.636719	n/a	280739	largeHSmallT	correct	incongruent	0.57812	no	H	T
1097.214844	n/a	280887	responseSmallT	correct	n/a	0.57812	no	n/a	n/a
1098.289062	n/a	281162	largeHSmallH	correct	congruent	0.46484	no	H	H
1098.753906	n/a	281281	responseSmallH	correct	n/a	0.46484	no	n/a	n/a
1099.824219	n/a	281555	largeHSmallH	correct	congruent	0.57031	no	H	H
1100.394531	n/a	281701	responseSmallH	correct	n/a	0.57031	no	n/a	n/a
1101.460938	n/a	281974	largeTSmallT	correct	congruent	0.52344	no	T	T
1101.984375	n/a	282108	responseSmallT	correct	n/a	0.52344	no	n/a	n/a
1103.046875	n/a	282380	largeTSmallH	correct	incongruent	0.59766	no	T	H
1103.644531	n/a	282533	responseSmallH	correct	n/a	0.59766	no	n/a	n/a
1104.714844	n/a	282807	largeTSmallH	correct	incongruent	0.60156	no	T	H
1105.316406	n/a	282961	responseSmallH	correct	n/a	0.60156	no	n/a	n/a
1106.382812	n/a	283234	largeTSmallH	correct	incongruent	0.48438	no	T	H
1106.867188	n/a	283358	responseSmallH	correct	n/a	0.48438	no	n/a	n/a
1107.933594	n/a	283631	largeHSmallH	correct	congruent	0.54688	no	H	H
1108.480469	n/a	283771	responseSmallH	correct	n/a	0.54688	no	n/a	n/a
1109.554688	n/a	284046	largeTSmallT	correct	congruent	1.2773	no	T	T
1110.832031	n/a	284373	responseSmallT	correct	n/a	1.2773	no	n/a	n/a
1111.890625	n/a	284644	largeTSmallT	correct	congruent	0.54688	no	T	T
1112.4375	n/a	284784	responseSmallT	correct	n/a	0.54688	no	n/a	n/a
1113.503906	n/a	285057	largeHSmallT	correct	incongruent	0.55859	no	H	T
1114.0625	n/a	285200	responseSmallT	correct	n/a	0.55859	no	n/a	n/a
1115.140625	n/a	285476	largeTSmallH	error	incongruent	0.47266	no	T	H
1115.613281	n/a	285597	responseSmallT	error	n/a	0.47266	no	n/a	n/a
1116.6875	n/a	285872	largeTSmallT	correct	congruent	0.44141	no	T	T
1117.128906	n/a	285985	responseSmallT	correct	n/a	0.44141	no	n/a	n/a
1118.195312	n/a	286258	largeHSmallH	correct	congruent	0.46484	no	H	H
1118.660156	n/a	286377	responseSmallH	correct	n/a	0.46484	no	n/a	n/a
1119.730469	n/a	286651	largeTSmallT	correct	congruent	0.39844	no	T	T
1120.128906	n/a	286753	responseSmallT	correct	n/a	0.39844	no	n/a	n/a
1121.195312	n/a	287026	largeTSmallT	correct	congruent	0.52344	no	T	T
1121.71875	n/a	287160	responseSmallT	correct	n/a	0.52344	no	n/a	n/a
1122.78125	n/a	287432	largeTSmallT	correct	congruent	0.52344	no	T	T
1123.304688	n/a	287566	responseSmallT	correct	n/a	0.52344	no	n/a	n/a
1124.382812	n/a	287842	largeTSmallT	correct	congruent	0.48047	no	T	T
1124.863281	n/a	287965	responseSmallT	correct	n/a	0.48047	no	n/a	n/a
1125.929688	n/a	288238	largeTSmallT	correct	congruent	0.55859	no	T	T
1126.488281	n/a	288381	responseSmallT	correct	n/a	0.55859	no	n/a	n/a
1127.554688	n/a	288654	largeTSmallT	correct	congruent	0.54297	no	T	T
1128.097656	n/a	288793	responseSmallT	correct	n/a	0.54297	no	n/a	n/a
1129.167969	n/a	289067	largeHSmallT	correct	incongruent	0.48438	no	H	T
1129.652344	n/a	289191	responseSmallT	correct	n/a	0.48438	no	n/a	n/a
1130.726562	n/a	289466	largeHSmallT	correct	incongruent	0.50781	no	H	T
1131.234375	n/a	289596	responseSmallT	correct	n/a	0.50781	no	n/a	n/a
1132.300781	n/a	289869	largeHSmallH	error	congruent	0.49609	no	H	H
1132.796875	n/a	289996	responseSmallT	error	n/a	0.49609	no	n/a	n/a
1133.875	n/a	290272	largeTSmallH	correct	incongruent	0.50391	no	T	H
1134.378906	n/a	290401	responseSmallH	correct	n/a	0.50391	no	n/a	n/a
1135.449219	n/a	290675	largeTSmallH	correct	incongruent	0.57422	no	T	H
1136.023438	n/a	290822	responseSmallH	correct	n/a	0.57422	no	n/a	n/a
1137.089844	n/a	291095	largeTSmallT	correct	congruent	0.73828	no	T	T
1137.828125	n/a	291284	responseSmallT	correct	n/a	0.73828	no	n/a	n/a
1138.902344	n/a	291559	largeHSmallH	correct	congruent	0.48047	no	H	H
1139.382812	n/a	291682	responseSmallH	correct	n/a	0.48047	no	n/a	n/a
1140.460938	n/a	291958	largeTSmallH	correct	incongruent	0.54688	no	T	H
1141.007812	n/a	292098	responseSmallH	correct	n/a	0.54688	no	n/a	n/a
1142.089844	n/a	292375	largeHSmallT	correct	incongruent	0.52344	no	H	T
1142.613281	n/a	292509	responseSmallT	correct	n/a	0.52344	no	n/a	n/a
1143.6875	n/a	292784	largeTSmallT	correct	congruent	0.86328	no	T	T
1144.550781	n/a	293005	responseSmallT	correct	n/a	0.86328	no	n/a	n/a
1145.621094	n/a	293279	largeTSmallT	correct	congruent	0.54297	no	T	T
1146.164062	n/a	293418	responseSmallT	correct	n/a	0.54297	no	n/a	n/a
1147.234375	n/a	293692	largeHSmallT	correct	incongruent	0.61719	no	H	T
1147.851562	n/a	293850	responseSmallT	correct	n/a	0.61719	no	n/a	n/a
1148.914062	n/a	294122	largeHSmallH	correct	congruent	0.44141	no	H	H
1149.355469	n/a	294235	responseSmallH	correct	n/a	0.44141	no	n/a	n/a
1150.433594	n/a	294511	largeHSmallH	correct	congruent	0.41016	no	H	H
1150.84375	n/a	294616	responseSmallH	correct	n/a	0.41016	no	n/a	n/a
1151.914062	n/a	294890	largeHSmallT	correct	incongruent	0.77734	no	H	T
1152.691406	n/a	295089	responseSmallT	correct	n/a	0.77734	no	n/a	n/a
1153.769531	n/a	295365	largeHSmallT	correct	incongruent	0.59766	no	H	T
1154.367188	n/a	295518	responseSmallT	correct	n/a	0.59766	no	n/a	n/a
1155.433594	n/a	295791	largeTSmallT	correct	congruent	0.53516	no	T	T
1155.96875	n/a	295928	responseSmallT	correct	n/a	0.53516	no	n/a	n/a
1157.046875	n/a	296204	largeHSmallT	correct	incongruent	0.63281	no	H	T
1157.679688	n/a	296366	responseSmallT	correct	n/a	0.63281	no	n/a	n/a
1158.753906	n/a	296641	largeTSmallH	correct	incongruent	0.44531	no	T	H
1159.199219	n/a	296755	responseSmallH	correct	n/a	0.44531	no	n/a	n/a
1160.273438	n/a	297030	largeHSmallH	correct	congruent	0.57422	no	H	H
1160.847656	n/a	297177	responseSmallH	correct	n/a	0.57422	no	n/a	n/a
1161.925781	n/a	297453	largeHSmallT	correct	incongruent	0.47656	no	H	T
1162.402344	n/a	297575	responseSmallT	correct	n/a	0.47656	no	n/a	n/a
1163.460938	n/a	297846	largeTSmallH	correct	incongruent	0.47266	no	T	H
1163.933594	n/a	297967	responseSmallH	correct	n/a	0.47266	no	n/a	n/a
1164.996094	n/a	298239	largeTSmallT	correct	congruent	0.53906	no	T	T
1165.535156	n/a	298377	responseSmallT	correct	n/a	0.53906	no	n/a	n/a
1166.605469	n/a	298651	largeHSmallT	correct	incongruent	0.49609	no	H	T
1167.101562	n/a	298778	responseSmallT	correct	n/a	0.49609	no	n/a	n/a
1168.167969	n/a	299051	largeHSmallT	correct	incongruent	0.51172	no	H	T
1168.679688	n/a	299182	responseSmallT	correct	n/a	0.51172	no	n/a	n/a
1169.753906	n/a	299457	largeTSmallT	correct	congruent	0.48828	no	T	T
1170.242188	n/a	299582	responseSmallT	correct	n/a	0.48828	no	n/a	n/a
1171.3125	n/a	299856	largeHSmallT	correct	incongruent	0.42969	no	H	T
1171.742188	n/a	299966	responseSmallT	correct	n/a	0.42969	no	n/a	n/a
1172.808594	n/a	300239	largeHSmallH	correct	congruent	0.62891	no	H	H
1173.4375	n/a	300400	responseSmallH	correct	n/a	0.62891	no	n/a	n/a
1174.515625	n/a	300676	largeHSmallH	correct	congruent	0.57422	no	H	H
1175.089844	n/a	300823	responseSmallH	correct	n/a	0.57422	no	n/a	n/a
1176.167969	n/a	301099	largeTSmallT	correct	congruent	0.57422	no	T	T
1176.742188	n/a	301246	responseSmallT	correct	n/a	0.57422	no	n/a	n/a
1177.808594	n/a	301519	largeHSmallH	correct	congruent	0.45703	no	H	H
1178.265625	n/a	301636	responseSmallH	correct	n/a	0.45703	no	n/a	n/a
1179.328125	n/a	301908	largeTSmallH	correct	incongruent	0.77344	no	T	H
1180.101562	n/a	302106	responseSmallH	correct	n/a	0.77344	no	n/a	n/a
1181.179688	n/a	302382	largeHSmallH	correct	congruent	0.39062	no	H	H
1181.570312	n/a	302482	responseSmallH	correct	n/a	0.39062	no	n/a	n/a
1182.648438	n/a	302758	largeHSmallT	correct	incongruent	0.57031	no	H	T
1183.21875	n/a	302904	responseSmallT	correct	n/a	0.57031	no	n/a	n/a
1184.300781	n/a	303181	largeHSmallT	correct	incongruent	0.84375	no	H	T
1185.144531	n/a	303397	responseSmallT	correct	n/a	0.84375	no	n/a	n/a
1186.21875	n/a	303672	largeTSmallH	correct	incongruent	0.34766	no	T	H
1186.566406	n/a	303761	responseSmallH	correct	n/a	0.34766	no	n/a	n/a
1187.632812	n/a	304034	largeHSmallT	error	incongruent	0.39453	no	H	T
1188.027344	n/a	304135	responseSmallH	error	n/a	0.39453	no	n/a	n/a
1189.101562	n/a	304410	largeTSmallT	correct	congruent	0.52734	no	T	T
1189.628906	n/a	304545	responseSmallT	correct	n/a	0.52734	no	n/a	n/a
