onset	duration	sample	value	stimulus	response_type	response_time
25.53125	n/a	6536	D	nontarget	n/a	n/a
27.10546875	n/a	6939	C	nontarget	n/a	n/a
28.69140625	n/a	7345	A	nontarget	n/a	n/a
30.25	n/a	7744	D	nontarget	n/a	n/a
31.8125	n/a	8144	D	target	hit	683.5938
32.49609375	n/a	8319	rt	n/a	hit	683.5938
33.3984375	n/a	8550	A	nontarget	n/a	n/a
34.97265625	n/a	8953	C	nontarget	n/a	n/a
36.546875	n/a	9356	B	nontarget	n/a	n/a
38.1171875	n/a	9758	A	nontarget	n/a	n/a
39.69140625	n/a	10161	C	nontarget	n/a	n/a
41.265625	n/a	10564	B	nontarget	n/a	n/a
42.828125	n/a	10964	D	nontarget	n/a	n/a
44.41015625	n/a	11369	A	nontarget	n/a	n/a
45.98828125	n/a	11773	B	nontarget	n/a	n/a
47.55859375	n/a	12175	D	nontarget	n/a	n/a
49.12890625	n/a	12577	C	nontarget	n/a	n/a
50.70703125	n/a	12981	B	nontarget	n/a	n/a
52.27734375	n/a	13383	C	nontarget	n/a	n/a
53.83984375	n/a	13783	B	nontarget	n/a	n/a
55.42578125	n/a	14189	C	nontarget	n/a	n/a
56.99609375	n/a	14591	A	nontarget	n/a	n/a
58.57421875	n/a	14995	C	nontarget	n/a	n/a
60.14453125	n/a	15397	B	nontarget	n/a	n/a
61.71875	n/a	15800	A	nontarget	n/a	n/a
63.2890625	n/a	16202	B	nontarget	n/a	n/a
64.86328125	n/a	16605	C	nontarget	n/a	n/a
66.44140625	n/a	17009	A	nontarget	n/a	n/a
68.01171875	n/a	17411	D	nontarget	n/a	n/a
69.5859375	n/a	17814	C	nontarget	n/a	n/a
71.15625	n/a	18216	C	target	hit	800.7812
71.95703125	n/a	18421	rt	n/a	hit	800.7812
72.734375	n/a	18620	D	nontarget	n/a	n/a
74.3046875	n/a	19022	C	nontarget	n/a	n/a
75.8671875	n/a	19422	A	nontarget	n/a	n/a
77.42578125	n/a	19821	A	target	hit	542.9688
77.96875	n/a	19960	rt	n/a	hit	542.9688
78.984375	n/a	20220	C	nontarget	n/a	n/a
80.55859375	n/a	20623	A	nontarget	n/a	n/a
82.1328125	n/a	21026	D	nontarget	n/a	n/a
83.703125	n/a	21428	B	nontarget	n/a	n/a
85.27734375	n/a	21831	B	target	hit	613.2812
85.890625	n/a	21988	rt	n/a	hit	613.2812
86.8515625	n/a	22234	D	nontarget	n/a	n/a
88.421875	n/a	22636	B	nontarget	n/a	n/a
89.984375	n/a	23036	A	nontarget	n/a	n/a
91.54296875	n/a	23435	A	target	hit	519.5312
92.0625	n/a	23568	rt	n/a	hit	519.5312
93.10546875	n/a	23835	B	nontarget	n/a	n/a
94.69140625	n/a	24241	A	nontarget	n/a	n/a
96.265625	n/a	24644	C	nontarget	n/a	n/a
97.8359375	n/a	25046	B	nontarget	n/a	n/a
99.41015625	n/a	25449	D	nontarget	n/a	n/a
100.984375	n/a	25852	D	target	hit	574.2188
101.5585938	n/a	25999	rt	n/a	hit	574.2188
102.5585938	n/a	26255	A	nontarget	n/a	n/a
104.1445312	n/a	26661	A	target	hit	765.625
104.9101562	n/a	26857	rt	n/a	hit	765.625
105.71875	n/a	27064	B	nontarget	n/a	n/a
107.2890625	n/a	27466	C	nontarget	n/a	n/a
108.8632812	n/a	27869	D	nontarget	n/a	n/a
110.4375	n/a	28272	B	nontarget	n/a	n/a
112.0117188	n/a	28675	D	nontarget	n/a	n/a
113.5976562	n/a	29081	A	nontarget	n/a	n/a
115.1679688	n/a	29483	A	target	hit	644.5312
115.8125	n/a	29648	rt	n/a	hit	644.5312
116.7460938	n/a	29887	C	nontarget	n/a	n/a
118.3164062	n/a	30289	C	target	hit	832.0312
119.1484375	n/a	30502	rt	n/a	hit	832.0312
119.890625	n/a	30692	D	nontarget	n/a	n/a
121.4765625	n/a	31098	A	nontarget	n/a	n/a
123.0507812	n/a	31501	A	target	hit	863.2812
123.9140625	n/a	31722	rt	n/a	hit	863.2812
124.6210938	n/a	31903	C	nontarget	n/a	n/a
126.1953125	n/a	32306	A	nontarget	n/a	n/a
127.7695312	n/a	32709	C	nontarget	n/a	n/a
129.34375	n/a	33112	D	nontarget	n/a	n/a
130.9296875	n/a	33518	B	nontarget	n/a	n/a
132.5039062	n/a	33921	A	nontarget	n/a	n/a
134.0742188	n/a	34323	C	nontarget	n/a	n/a
135.6523438	n/a	34727	A	nontarget	n/a	n/a
137.2226562	n/a	35129	D	nontarget	n/a	n/a
138.796875	n/a	35532	C	nontarget	n/a	n/a
140.3554688	n/a	35931	C	target	hit	671.875
141.0273438	n/a	36103	rt	n/a	hit	671.875
141.9179688	n/a	36331	A	nontarget	n/a	n/a
143.5039062	n/a	36737	A	target	hit	585.9375
144.0898438	n/a	36887	rt	n/a	hit	585.9375
145.078125	n/a	37140	A	target	hit	656.25
145.734375	n/a	37308	rt	n/a	hit	656.25
146.6484375	n/a	37542	D	nontarget	n/a	n/a
148.2226562	n/a	37945	B	nontarget	n/a	n/a
149.796875	n/a	38348	D	nontarget	n/a	n/a
151.3710938	n/a	38751	A	nontarget	n/a	n/a
152.9570312	n/a	39157	C	nontarget	n/a	n/a
154.53125	n/a	39560	B	nontarget	n/a	n/a
156.1054688	n/a	39963	B	target	hit	664.0625
156.7695312	n/a	40133	rt	n/a	hit	664.0625
157.6757812	n/a	40365	D	nontarget	n/a	n/a
159.25	n/a	40768	A	nontarget	n/a	n/a
160.8203125	n/a	41170	B	nontarget	n/a	n/a
162.3828125	n/a	41570	D	nontarget	n/a	n/a
163.9414062	n/a	41969	C	nontarget	n/a	n/a
165.5039062	n/a	42369	C	target	hit	667.9688
166.171875	n/a	42540	rt	n/a	hit	667.9688
167.0898438	n/a	42775	B	nontarget	n/a	n/a
168.6601562	n/a	43177	B	target	hit	644.5312
169.3046875	n/a	43342	rt	n/a	hit	644.5312
170.2382812	n/a	43581	B	target	hit	660.1562
170.8984375	n/a	43750	rt	n/a	hit	660.1562
171.8085938	n/a	43983	A	nontarget	n/a	n/a
173.3945312	n/a	44389	A	target	hit	609.375
174.0039062	n/a	44545	rt	n/a	hit	609.375
174.9570312	n/a	44789	B	nontarget	n/a	n/a
176.5273438	n/a	45191	C	nontarget	n/a	n/a
178.1054688	n/a	45595	D	nontarget	n/a	n/a
179.6757812	n/a	45997	C	nontarget	n/a	n/a
181.25	n/a	46400	C	target	hit	644.5312
181.8945312	n/a	46565	rt	n/a	hit	644.5312
182.8203125	n/a	46802	A	nontarget	n/a	n/a
184.3984375	n/a	47206	B	nontarget	n/a	n/a
185.9804688	n/a	47611	B	target	hit	550.7812
186.53125	n/a	47752	rt	n/a	hit	550.7812
187.5546875	n/a	48014	B	target	hit	636.7188
188.1914062	n/a	48177	rt	n/a	hit	636.7188
189.1289062	n/a	48417	D	nontarget	n/a	n/a
190.703125	n/a	48820	C	nontarget	n/a	n/a
192.2734375	n/a	49222	B	nontarget	n/a	n/a
193.8632812	n/a	49629	A	nontarget	n/a	n/a
195.4335938	n/a	50031	A	target	hit	507.8125
195.9414062	n/a	50161	rt	n/a	hit	507.8125
197.0078125	n/a	50434	B	nontarget	n/a	n/a
198.5820312	n/a	50837	A	nontarget	n/a	n/a
200.15625	n/a	51240	A	target	hit	460.9375
200.6171875	n/a	51358	rt	n/a	hit	460.9375
201.7304688	n/a	51643	A	target	hit	707.0312
202.4375	n/a	51824	rt	n/a	hit	707.0312
203.3125	n/a	52048	D	nontarget	n/a	n/a
204.8867188	n/a	52451	D	target	hit	503.9062
205.390625	n/a	52580	rt	n/a	hit	503.9062
206.4609375	n/a	52854	B	nontarget	n/a	n/a
208.0351562	n/a	53257	A	nontarget	n/a	n/a
209.609375	n/a	53660	B	nontarget	n/a	n/a
211.1953125	n/a	54066	A	nontarget	n/a	n/a
212.7695312	n/a	54469	D	nontarget	n/a	n/a
214.3398438	n/a	54871	D	target	hit	546.875
214.8867188	n/a	55011	rt	n/a	hit	546.875
215.9140625	n/a	55274	A	nontarget	n/a	n/a
217.4882812	n/a	55677	D	nontarget	n/a	n/a
219.0585938	n/a	56079	C	nontarget	n/a	n/a
220.6367188	n/a	56483	B	nontarget	n/a	n/a
222.21875	n/a	56888	B	target	hit	496.0938
222.7148438	n/a	57015	rt	n/a	hit	496.0938
223.7929688	n/a	57291	C	nontarget	n/a	n/a
225.3671875	n/a	57694	B	nontarget	n/a	n/a
226.9414062	n/a	58097	D	nontarget	n/a	n/a
228.515625	n/a	58500	D	target	hit	640.625
229.15625	n/a	58664	rt	n/a	hit	640.625
230.1015625	n/a	58906	D	target	hit	746.0938
230.8476562	n/a	59097	rt	n/a	hit	746.0938
231.6757812	n/a	59309	D	target	hit	683.5938
232.359375	n/a	59484	rt	n/a	hit	683.5938
233.2460938	n/a	59711	A	nontarget	n/a	n/a
234.8203125	n/a	60114	D	nontarget	n/a	n/a
236.3945312	n/a	60517	D	target	hit	546.875
236.9414062	n/a	60657	rt	n/a	hit	546.875
237.9648438	n/a	60919	D	target	hit	515.625
238.4804688	n/a	61051	rt	n/a	hit	515.625
239.5273438	n/a	61319	A	nontarget	n/a	n/a
241.1132812	n/a	61725	A	target	hit	582.0312
241.6953125	n/a	61874	rt	n/a	hit	582.0312
242.6875	n/a	62128	D	nontarget	n/a	n/a
244.2617188	n/a	62531	A	nontarget	n/a	n/a
245.8359375	n/a	62934	C	nontarget	n/a	n/a
247.40625	n/a	63336	A	nontarget	n/a	n/a
248.9804688	n/a	63739	A	target	hit	644.5312
249.625	n/a	63904	rt	n/a	hit	644.5312
250.5546875	n/a	64142	C	nontarget	n/a	n/a
252.125	n/a	64544	C	target	hit	500
252.625	n/a	64672	rt	n/a	hit	500
253.703125	n/a	64948	C	target	hit	566.4062
254.2695312	n/a	65093	rt	n/a	hit	566.4062
255.2734375	n/a	65350	A	nontarget	n/a	n/a
256.8476562	n/a	65753	C	nontarget	n/a	n/a
258.4179688	n/a	66155	C	target	hit	566.4062
258.984375	n/a	66300	rt	n/a	hit	566.4062
259.9960938	n/a	66559	A	nontarget	n/a	n/a
261.578125	n/a	66964	A	target	hit	484.375
262.0625	n/a	67088	rt	n/a	hit	484.375
263.1523438	n/a	67367	C	nontarget	n/a	n/a
264.7265625	n/a	67770	D	nontarget	n/a	n/a
266.3007812	n/a	68173	A	nontarget	n/a	n/a
267.875	n/a	68576	C	nontarget	n/a	n/a
269.4453125	n/a	68978	D	nontarget	n/a	n/a
271.0195312	n/a	69381	D	target	hit	609.375
271.6289062	n/a	69537	rt	n/a	hit	609.375
272.59375	n/a	69784	A	nontarget	n/a	n/a
274.1640625	n/a	70186	A	target	hit	472.6562
274.6367188	n/a	70307	rt	n/a	hit	472.6562
275.7382812	n/a	70589	D	nontarget	n/a	n/a
277.3125	n/a	70992	A	nontarget	n/a	n/a
278.8867188	n/a	71395	B	nontarget	n/a	n/a
280.4726562	n/a	71801	D	nontarget	n/a	n/a
282.046875	n/a	72204	C	nontarget	n/a	n/a
283.6171875	n/a	72606	C	target	hit	562.5
284.1796875	n/a	72750	rt	n/a	hit	562.5
285.1953125	n/a	73010	B	nontarget	n/a	n/a
286.765625	n/a	73412	C	nontarget	n/a	n/a
288.3398438	n/a	73815	A	nontarget	n/a	n/a
289.9257812	n/a	74221	C	nontarget	n/a	n/a
291.5	n/a	74624	D	nontarget	n/a	n/a
293.0703125	n/a	75026	B	nontarget	n/a	n/a
294.6445312	n/a	75429	D	nontarget	n/a	n/a
296.21875	n/a	75832	B	nontarget	n/a	n/a
297.7929688	n/a	76235	B	target	hit	535.1562
298.328125	n/a	76372	rt	n/a	hit	535.1562
299.3789062	n/a	76641	A	nontarget	n/a	n/a
300.953125	n/a	77044	D	nontarget	n/a	n/a
302.5234375	n/a	77446	B	nontarget	n/a	n/a
304.1015625	n/a	77850	A	nontarget	n/a	n/a
305.671875	n/a	78252	A	target	hit	468.75
306.140625	n/a	78372	rt	n/a	hit	468.75
307.2460938	n/a	78655	B	nontarget	n/a	n/a
308.8046875	n/a	79054	B	target	hit	585.9375
309.390625	n/a	79204	rt	n/a	hit	585.9375
310.3671875	n/a	79454	D	nontarget	n/a	n/a
311.9375	n/a	79856	B	nontarget	n/a	n/a
313.5117188	n/a	80259	A	nontarget	n/a	n/a
315.0859375	n/a	80662	B	nontarget	n/a	n/a
316.65625	n/a	81064	A	nontarget	n/a	n/a
318.2304688	n/a	81467	B	nontarget	n/a	n/a
319.8046875	n/a	81870	D	nontarget	n/a	n/a
321.3789062	n/a	82273	A	nontarget	n/a	n/a
322.9375	n/a	82672	B	nontarget	n/a	n/a
324.4960938	n/a	83071	B	target	hit	515.625
325.0117188	n/a	83203	rt	n/a	hit	515.625
326.0585938	n/a	83471	D	nontarget	n/a	n/a
327.6210938	n/a	83871	A	nontarget	n/a	n/a
329.203125	n/a	84276	A	target	hit	527.3438
329.7304688	n/a	84411	rt	n/a	hit	527.3438
330.78125	n/a	84680	B	nontarget	n/a	n/a
332.3515625	n/a	85082	C	nontarget	n/a	n/a
333.9257812	n/a	85485	C	target	hit	507.8125
334.4335938	n/a	85615	rt	n/a	hit	507.8125
335.4960938	n/a	85887	C	target	hit	589.8438
336.0859375	n/a	86038	rt	n/a	hit	589.8438
337.0585938	n/a	86287	D	nontarget	n/a	n/a
338.6445312	n/a	86693	B	nontarget	n/a	n/a
340.21875	n/a	87096	C	nontarget	n/a	n/a
341.7890625	n/a	87498	B	nontarget	n/a	n/a
343.3632812	n/a	87901	B	target	hit	519.5312
343.8828125	n/a	88034	rt	n/a	hit	519.5312
344.9414062	n/a	88305	D	nontarget	n/a	n/a
346.5234375	n/a	88710	C	nontarget	n/a	n/a
348.0976562	n/a	89113	A	nontarget	n/a	n/a
349.671875	n/a	89516	D	nontarget	n/a	n/a
351.2421875	n/a	89918	A	nontarget	n/a	n/a
352.8164062	n/a	90321	C	nontarget	n/a	n/a
354.390625	n/a	90724	B	nontarget	n/a	n/a
355.9765625	n/a	91130	B	target	hit	531.25
356.5078125	n/a	91266	rt	n/a	hit	531.25
357.5507812	n/a	91533	D	nontarget	n/a	n/a
359.125	n/a	91936	C	nontarget	n/a	n/a
360.6953125	n/a	92338	A	nontarget	n/a	n/a
362.2734375	n/a	92742	D	nontarget	n/a	n/a
363.84375	n/a	93144	B	nontarget	n/a	n/a
365.4023438	n/a	93543	B	target	hit	613.2812
366.015625	n/a	93700	rt	n/a	hit	613.2812
366.9882812	n/a	93949	C	nontarget	n/a	n/a
368.5625	n/a	94352	D	nontarget	n/a	n/a
370.140625	n/a	94756	D	target	hit	484.375
370.625	n/a	94880	rt	n/a	hit	484.375
371.7109375	n/a	95158	B	nontarget	n/a	n/a
373.2851562	n/a	95561	A	nontarget	n/a	n/a
374.8554688	n/a	95963	C	nontarget	n/a	n/a
376.4179688	n/a	96363	A	nontarget	n/a	n/a
378.0039062	n/a	96769	C	nontarget	n/a	n/a
379.578125	n/a	97172	B	nontarget	n/a	n/a
381.1484375	n/a	97574	B	target	hit	515.625
381.6640625	n/a	97706	rt	n/a	hit	515.625
382.7226562	n/a	97977	D	nontarget	n/a	n/a
384.296875	n/a	98380	A	nontarget	n/a	n/a
385.8828125	n/a	98786	B	nontarget	n/a	n/a
387.4570312	n/a	99189	B	target	hit	535.1562
387.9921875	n/a	99326	rt	n/a	hit	535.1562
389.03125	n/a	99592	C	nontarget	n/a	n/a
390.6054688	n/a	99995	B	nontarget	n/a	n/a
392.1757812	n/a	100397	A	nontarget	n/a	n/a
393.75	n/a	100800	C	nontarget	n/a	n/a
395.3242188	n/a	101203	C	target	hit	585.9375
395.9101562	n/a	101353	rt	n/a	hit	585.9375
396.8945312	n/a	101605	A	nontarget	n/a	n/a
398.4726562	n/a	102009	A	target	hit	464.8438
398.9375	n/a	102128	rt	n/a	hit	464.8438
400.0429688	n/a	102411	C	nontarget	n/a	n/a
401.6171875	n/a	102814	A	nontarget	n/a	n/a
403.1875	n/a	103216	D	nontarget	n/a	n/a
404.7617188	n/a	103619	D	target	hit	500
405.2617188	n/a	103747	rt	n/a	hit	500
406.3476562	n/a	104025	D	target	hit	480.4688
406.828125	n/a	104148	rt	n/a	hit	480.4688
407.921875	n/a	104428	B	nontarget	n/a	n/a
409.4960938	n/a	104831	B	target	hit	480.4688
409.9765625	n/a	104954	rt	n/a	hit	480.4688
411.0703125	n/a	105234	A	nontarget	n/a	n/a
412.640625	n/a	105636	A	target	hit	675.7812
413.3164062	n/a	105809	rt	n/a	hit	675.7812
414.2148438	n/a	106039	A	target	hit	574.2188
414.7890625	n/a	106186	rt	n/a	hit	574.2188
415.8007812	n/a	106445	A	target	hit	566.4062
416.3671875	n/a	106590	rt	n/a	hit	566.4062
417.3789062	n/a	106849	A	target	hit	539.0625
417.9179688	n/a	106987	rt	n/a	hit	539.0625
418.9492188	n/a	107251	B	nontarget	n/a	n/a
420.5234375	n/a	107654	C	nontarget	n/a	n/a
422.09375	n/a	108056	D	nontarget	n/a	n/a
423.671875	n/a	108460	B	nontarget	n/a	n/a
425.2539062	n/a	108865	B	target	hit	574.2188
425.828125	n/a	109012	rt	n/a	hit	574.2188
426.828125	n/a	109268	B	target	hit	542.9688
427.3710938	n/a	109407	rt	n/a	hit	542.9688
428.4023438	n/a	109671	C	nontarget	n/a	n/a
429.9765625	n/a	110074	D	nontarget	n/a	n/a
431.5507812	n/a	110477	A	nontarget	n/a	n/a
433.1367188	n/a	110883	C	nontarget	n/a	n/a
434.7109375	n/a	111286	A	nontarget	n/a	n/a
436.28125	n/a	111688	A	target	hit	574.2188
436.8554688	n/a	111835	rt	n/a	hit	574.2188
437.8554688	n/a	112091	D	nontarget	n/a	n/a
439.4296875	n/a	112494	B	nontarget	n/a	n/a
441.0039062	n/a	112897	B	target	hit	593.75
441.5976562	n/a	113049	rt	n/a	hit	593.75
442.5742188	n/a	113299	D	nontarget	n/a	n/a
444.1484375	n/a	113702	A	nontarget	n/a	n/a
445.7226562	n/a	114105	B	nontarget	n/a	n/a
447.2929688	n/a	114507	A	nontarget	n/a	n/a
448.8710938	n/a	114911	D	nontarget	n/a	n/a
450.4414062	n/a	115313	D	target	hit	515.625
450.9570312	n/a	115445	rt	n/a	hit	515.625
452.015625	n/a	115716	B	nontarget	n/a	n/a
453.6015625	n/a	116122	A	nontarget	n/a	n/a
455.1757812	n/a	116525	A	target	hit	617.1875
455.7929688	n/a	116683	rt	n/a	hit	617.1875
456.75	n/a	116928	C	nontarget	n/a	n/a
458.3203125	n/a	117330	A	nontarget	n/a	n/a
459.8945312	n/a	117733	B	nontarget	n/a	n/a
461.46875	n/a	118136	D	nontarget	n/a	n/a
463.0546875	n/a	118542	D	target	hit	562.5
463.6171875	n/a	118686	rt	n/a	hit	562.5
464.6289062	n/a	118945	C	nontarget	n/a	n/a
