onset	duration	sample	value	stimulus	response_type	response_time
20.265625	n/a	5188	D	nontarget	n/a	n/a
21.84375	n/a	5592	A	nontarget	n/a	n/a
23.4140625	n/a	5994	A	nontarget	n/a	n/a
24.98828125	n/a	6397	B	nontarget	n/a	n/a
26.5625	n/a	6800	A	target	hit	757.8125
27.3203125	n/a	6994	rt	n/a	hit	757.8125
28.1328125	n/a	7202	B	nontarget	n/a	n/a
29.70703125	n/a	7605	A	nontarget	n/a	n/a
31.28125	n/a	8008	D	nontarget	n/a	n/a
32.85546875	n/a	8411	D	nontarget	n/a	n/a
34.4296875	n/a	8814	D	nontarget	n/a	n/a
36	n/a	9216	C	nontarget	n/a	n/a
37.57421875	n/a	9619	B	nontarget	n/a	n/a
39.1484375	n/a	10022	D	target	miss	n/a
40.72265625	n/a	10425	A	nontarget	miss	n/a
42.30859375	n/a	10831	A	nontarget	n/a	n/a
43.87890625	n/a	11233	D	target	hit	578.125
44.45703125	n/a	11381	rt	n/a	hit	578.125
45.453125	n/a	11636	D	nontarget	n/a	n/a
47.02734375	n/a	12039	A	target	hit	656.25
47.68359375	n/a	12207	rt	n/a	hit	656.25
48.6015625	n/a	12442	D	target	miss	n/a
50.171875	n/a	12844	A	nontarget	miss	n/a
51.734375	n/a	13244	C	nontarget	n/a	n/a
53.3203125	n/a	13650	B	nontarget	n/a	n/a
54.89453125	n/a	14053	B	nontarget	n/a	n/a
56.46484375	n/a	14455	C	target	hit	460.9375
56.92578125	n/a	14573	rt	n/a	hit	460.9375
58.0390625	n/a	14858	B	target	hit	535.1562
58.57421875	n/a	14995	rt	n/a	hit	535.1562
59.61328125	n/a	15261	C	nontarget	n/a	n/a
61.1875	n/a	15664	D	nontarget	n/a	n/a
62.75	n/a	16064	A	nontarget	n/a	n/a
64.33203125	n/a	16469	C	target	miss	n/a
65.90625	n/a	16872	C	nontarget	false_alarm	640.625
66.546875	n/a	17036	rt	n/a	false_alarm	640.625
67.48046875	n/a	17275	B	nontarget	n/a	n/a
69.0546875	n/a	17678	D	nontarget	n/a	n/a
70.62890625	n/a	18081	B	nontarget	n/a	n/a
72.19921875	n/a	18483	A	nontarget	n/a	n/a
73.7734375	n/a	18886	C	nontarget	n/a	n/a
75.34765625	n/a	19289	A	nontarget	n/a	n/a
76.921875	n/a	19692	D	nontarget	n/a	n/a
78.4921875	n/a	20094	A	nontarget	n/a	n/a
80.06640625	n/a	20497	A	target	hit	558.5938
80.625	n/a	20640	rt	n/a	hit	558.5938
81.640625	n/a	20900	B	nontarget	n/a	n/a
83.19921875	n/a	21299	B	nontarget	false_alarm	468.75
83.66796875	n/a	21419	rt	n/a	false_alarm	468.75
84.76171875	n/a	21699	C	nontarget	n/a	n/a
86.34765625	n/a	22105	B	target	miss	n/a
87.91796875	n/a	22507	B	target	hit	449.2188
88.3671875	n/a	22622	rt	n/a	hit	449.2188
89.4921875	n/a	22910	A	nontarget	n/a	n/a
91.06640625	n/a	23313	D	nontarget	n/a	n/a
92.640625	n/a	23716	C	nontarget	false_alarm	722.6562
93.36328125	n/a	23901	rt	n/a	false_alarm	722.6562
94.21484375	n/a	24119	B	nontarget	n/a	n/a
95.78515625	n/a	24521	A	nontarget	n/a	n/a
97.359375	n/a	24924	C	target	miss	n/a
98.93359375	n/a	25327	B	target	miss	n/a
100.5078125	n/a	25730	A	target	miss	n/a
102.0820312	n/a	26133	D	nontarget	miss	n/a
103.6523438	n/a	26535	A	nontarget	n/a	n/a
105.2148438	n/a	26935	B	nontarget	n/a	n/a
106.7851562	n/a	27337	D	target	miss	n/a
108.3476562	n/a	27737	B	nontarget	miss	n/a
109.9179688	n/a	28139	A	nontarget	n/a	n/a
111.4921875	n/a	28542	D	target	miss	n/a
113.0664062	n/a	28945	A	nontarget	false_alarm	757.8125
113.8242188	n/a	29139	rt	n/a	false_alarm	757.8125
114.640625	n/a	29348	A	target	hit	804.6875
115.4453125	n/a	29554	rt	n/a	hit	804.6875
116.2109375	n/a	29750	D	target	hit	988.2812
117.1992188	n/a	30003	rt	n/a	hit	988.2812
117.7851562	n/a	30153	A	target	hit	835.9375
118.6210938	n/a	30367	rt	n/a	hit	835.9375
119.3710938	n/a	30559	B	nontarget	n/a	n/a
120.9453125	n/a	30962	D	target	miss	n/a
122.5195312	n/a	31365	A	target	miss	n/a
124.0898438	n/a	31767	D	nontarget	miss	n/a
125.6679688	n/a	32171	B	nontarget	n/a	n/a
127.2382812	n/a	32573	C	nontarget	n/a	n/a
128.8007812	n/a	32973	D	target	hit	652.3438
129.453125	n/a	33140	rt	n/a	hit	652.3438
130.3867188	n/a	33379	B	target	hit	585.9375
130.9726562	n/a	33529	rt	n/a	hit	585.9375
131.9570312	n/a	33781	C	target	hit	652.3438
132.609375	n/a	33948	rt	n/a	hit	652.3438
133.5351562	n/a	34185	D	target	hit	621.0938
134.15625	n/a	34344	rt	n/a	hit	621.0938
135.1054688	n/a	34587	B	target	hit	589.8438
135.6953125	n/a	34738	rt	n/a	hit	589.8438
136.6796875	n/a	34990	D	nontarget	n/a	n/a
138.265625	n/a	35396	A	nontarget	n/a	n/a
139.8242188	n/a	35795	D	nontarget	n/a	n/a
141.3984375	n/a	36198	C	nontarget	n/a	n/a
142.9726562	n/a	36601	C	nontarget	n/a	n/a
144.5429688	n/a	37003	C	nontarget	n/a	n/a
146.1210938	n/a	37407	B	nontarget	n/a	n/a
147.6914062	n/a	37809	B	nontarget	n/a	n/a
149.265625	n/a	38212	C	target	hit	527.3438
149.7929688	n/a	38347	rt	n/a	hit	527.3438
150.8242188	n/a	38611	C	nontarget	n/a	n/a
152.3984375	n/a	39014	B	target	hit	660.1562
153.0585938	n/a	39183	rt	n/a	hit	660.1562
153.9726562	n/a	39417	D	nontarget	n/a	n/a
155.5429688	n/a	39819	D	nontarget	n/a	n/a
157.1210938	n/a	40223	A	nontarget	n/a	n/a
158.6914062	n/a	40625	C	nontarget	n/a	n/a
160.265625	n/a	41028	D	target	miss	n/a
161.8359375	n/a	41430	C	nontarget	miss	n/a
163.3984375	n/a	41830	A	nontarget	n/a	n/a
164.9570312	n/a	42229	A	nontarget	n/a	n/a
166.515625	n/a	42628	D	nontarget	n/a	n/a
168.0820312	n/a	43029	A	target	hit	496.0938
168.578125	n/a	43156	rt	n/a	hit	496.0938
169.6640625	n/a	43434	A	target	hit	652.3438
170.3164062	n/a	43601	rt	n/a	hit	652.3438
171.2382812	n/a	43837	C	nontarget	n/a	n/a
172.8085938	n/a	44239	B	nontarget	n/a	n/a
174.3828125	n/a	44642	D	nontarget	n/a	n/a
175.96875	n/a	45048	D	nontarget	n/a	n/a
177.5429688	n/a	45451	C	nontarget	n/a	n/a
179.1210938	n/a	45855	C	nontarget	n/a	n/a
180.6914062	n/a	46257	B	nontarget	n/a	n/a
182.265625	n/a	46660	A	nontarget	n/a	n/a
183.8359375	n/a	47062	B	nontarget	n/a	n/a
185.4140625	n/a	47466	C	nontarget	n/a	n/a
186.9960938	n/a	47871	B	nontarget	n/a	n/a
188.5703125	n/a	48274	D	nontarget	n/a	n/a
190.1445312	n/a	48677	A	nontarget	n/a	n/a
191.71875	n/a	49080	C	nontarget	n/a	n/a
193.2890625	n/a	49482	B	nontarget	n/a	n/a
194.8515625	n/a	49882	B	nontarget	n/a	n/a
196.4101562	n/a	50281	A	nontarget	n/a	n/a
197.9960938	n/a	50687	A	nontarget	n/a	n/a
199.5703125	n/a	51090	A	nontarget	n/a	n/a
201.1445312	n/a	51493	A	target	hit	445.3125
201.5898438	n/a	51607	rt	n/a	hit	445.3125
202.71875	n/a	51896	C	nontarget	n/a	n/a
204.2890625	n/a	52298	A	target	hit	523.4375
204.8125	n/a	52432	rt	n/a	hit	523.4375
205.8632812	n/a	52701	B	nontarget	n/a	n/a
207.4492188	n/a	53107	D	nontarget	n/a	n/a
209.0234375	n/a	53510	D	nontarget	n/a	n/a
210.5976562	n/a	53913	B	target	hit	1296.875
211.8945312	n/a	54245	rt	n/a	hit	1296.875
212.171875	n/a	54316	B	nontarget	n/a	n/a
213.7421875	n/a	54718	C	nontarget	n/a	n/a
215.3320312	n/a	55125	C	nontarget	n/a	n/a
216.9023438	n/a	55527	A	nontarget	n/a	n/a
218.4765625	n/a	55930	D	nontarget	n/a	n/a
220.0507812	n/a	56333	C	target	hit	531.25
220.5820312	n/a	56469	rt	n/a	hit	531.25
221.625	n/a	56736	D	nontarget	n/a	n/a
223.1953125	n/a	57138	C	nontarget	n/a	n/a
224.7695312	n/a	57541	A	nontarget	n/a	n/a
226.3554688	n/a	57947	B	nontarget	n/a	n/a
227.9296875	n/a	58350	C	target	hit	582.0312
228.5117188	n/a	58499	rt	n/a	hit	582.0312
229.5039062	n/a	58753	A	target	hit	582.0312
230.0859375	n/a	58902	rt	n/a	hit	582.0312
231.078125	n/a	59156	C	nontarget	n/a	n/a
232.6484375	n/a	59558	D	nontarget	n/a	n/a
234.2265625	n/a	59962	A	target	hit	902.3438
235.1289062	n/a	60193	rt	n/a	hit	902.3438
235.8085938	n/a	60367	D	nontarget	n/a	n/a
237.3867188	n/a	60771	B	nontarget	n/a	n/a
238.9570312	n/a	61173	C	nontarget	n/a	n/a
240.53125	n/a	61576	C	nontarget	n/a	n/a
242.1015625	n/a	61978	D	nontarget	n/a	n/a
243.6640625	n/a	62378	C	target	hit	566.4062
244.2304688	n/a	62523	rt	n/a	hit	566.4062
245.25	n/a	62784	D	nontarget	n/a	n/a
246.8242188	n/a	63187	D	target	hit	550.7812
247.375	n/a	63328	rt	n/a	hit	550.7812
248.3945312	n/a	63589	C	target	hit	625
249.0195312	n/a	63749	rt	n/a	hit	625
249.96875	n/a	63992	C	nontarget	n/a	n/a
251.5429688	n/a	64395	A	nontarget	n/a	n/a
253.1171875	n/a	64798	C	target	hit	433.5938
253.5507812	n/a	64909	rt	n/a	hit	433.5938
254.6757812	n/a	65197	C	target	hit	558.5938
255.234375	n/a	65340	rt	n/a	hit	558.5938
256.2617188	n/a	65603	C	nontarget	n/a	n/a
257.8359375	n/a	66006	D	nontarget	n/a	n/a
259.4101562	n/a	66409	B	nontarget	n/a	n/a
260.9804688	n/a	66811	A	nontarget	n/a	n/a
262.5546875	n/a	67214	B	nontarget	n/a	n/a
264.140625	n/a	67620	A	nontarget	n/a	n/a
265.7148438	n/a	68023	A	target	hit	640.625
266.3554688	n/a	68187	rt	n/a	hit	640.625
267.2890625	n/a	68426	C	nontarget	n/a	n/a
268.8632812	n/a	68829	D	nontarget	n/a	n/a
270.4335938	n/a	69231	A	target	hit	523.4375
270.9570312	n/a	69365	rt	n/a	hit	523.4375
272.0078125	n/a	69634	D	nontarget	n/a	n/a
273.59375	n/a	70040	A	nontarget	n/a	n/a
275.1679688	n/a	70443	D	nontarget	n/a	n/a
276.7421875	n/a	70846	D	target	hit	835.9375
277.578125	n/a	71060	rt	n/a	hit	835.9375
278.3164062	n/a	71249	B	nontarget	n/a	n/a
279.8867188	n/a	71651	D	target	miss	n/a
281.4648438	n/a	72055	C	nontarget	miss	n/a
283.046875	n/a	72460	C	nontarget	n/a	n/a
284.6210938	n/a	72863	B	nontarget	n/a	n/a
286.1953125	n/a	73266	D	nontarget	n/a	n/a
287.7695312	n/a	73669	C	target	hit	496.0938
288.265625	n/a	73796	rt	n/a	hit	496.0938
289.3398438	n/a	74071	B	target	hit	617.1875
289.9570312	n/a	74229	rt	n/a	hit	617.1875
290.9140625	n/a	74474	D	target	hit	621.0938
291.5351562	n/a	74633	rt	n/a	hit	621.0938
292.5	n/a	74880	A	nontarget	n/a	n/a
294.0742188	n/a	75283	C	nontarget	n/a	n/a
295.6484375	n/a	75686	C	nontarget	n/a	n/a
297.2226562	n/a	76089	D	nontarget	n/a	n/a
298.7929688	n/a	76491	A	nontarget	n/a	n/a
300.3828125	n/a	76898	A	nontarget	n/a	n/a
301.953125	n/a	77300	A	nontarget	n/a	n/a
303.53125	n/a	77704	B	nontarget	n/a	n/a
305.1015625	n/a	78106	C	nontarget	n/a	n/a
306.6757812	n/a	78509	C	nontarget	n/a	n/a
308.2460938	n/a	78911	B	target	hit	523.4375
308.7695312	n/a	79045	rt	n/a	hit	523.4375
309.8242188	n/a	79315	A	nontarget	n/a	n/a
311.40625	n/a	79720	D	nontarget	n/a	n/a
312.984375	n/a	80124	B	target	miss	n/a
314.5546875	n/a	80526	B	nontarget	miss	n/a
316.125	n/a	80928	D	target	hit	1050.7812
317.1757812	n/a	81197	rt	n/a	hit	1050.7812
317.6992188	n/a	81331	B	target	hit	632.8125
318.3320312	n/a	81493	rt	n/a	hit	632.8125
319.2890625	n/a	81738	D	nontarget	n/a	n/a
320.859375	n/a	82140	D	target	hit	550.7812
321.4101562	n/a	82281	rt	n/a	hit	550.7812
322.4335938	n/a	82543	D	nontarget	n/a	n/a
324.0078125	n/a	82946	C	nontarget	n/a	n/a
325.5820312	n/a	83349	A	nontarget	n/a	n/a
327.1523438	n/a	83751	C	nontarget	n/a	n/a
328.71875	n/a	84152	B	nontarget	n/a	n/a
330.3007812	n/a	84557	C	nontarget	n/a	n/a
331.875	n/a	84960	D	nontarget	n/a	n/a
333.4453125	n/a	85362	C	nontarget	false_alarm	863.2812
334.3085938	n/a	85583	rt	n/a	false_alarm	863.2812
335.0195312	n/a	85765	C	target	hit	964.8438
335.984375	n/a	86012	rt	n/a	hit	964.8438
336.59375	n/a	86168	D	target	miss	n/a
338.1679688	n/a	86571	D	nontarget	miss	n/a
339.7539062	n/a	86977	D	nontarget	n/a	n/a
341.328125	n/a	87380	D	target	hit	675.7812
342.0039062	n/a	87553	rt	n/a	hit	675.7812
342.8984375	n/a	87782	D	target	hit	574.2188
343.4726562	n/a	87929	rt	n/a	hit	574.2188
344.4765625	n/a	88186	C	nontarget	n/a	n/a
346.046875	n/a	88588	B	nontarget	n/a	n/a
347.6210938	n/a	88991	D	target	hit	683.5938
348.3046875	n/a	89166	rt	n/a	hit	683.5938
349.2070312	n/a	89397	A	nontarget	n/a	n/a
350.78125	n/a	89800	D	nontarget	n/a	n/a
352.3515625	n/a	90202	B	nontarget	n/a	n/a
353.9296875	n/a	90606	A	target	hit	980.4688
354.9101562	n/a	90857	rt	n/a	hit	980.4688
355.5	n/a	91008	B	nontarget	n/a	n/a
357.0859375	n/a	91414	A	nontarget	n/a	n/a
358.6601562	n/a	91817	A	target	hit	648.4375
359.3085938	n/a	91983	rt	n/a	hit	648.4375
360.234375	n/a	92220	A	nontarget	n/a	n/a
361.8046875	n/a	92622	A	target	hit	546.875
362.3515625	n/a	92762	rt	n/a	hit	546.875
363.3828125	n/a	93026	A	target	hit	578.125
363.9609375	n/a	93174	rt	n/a	hit	578.125
364.953125	n/a	93428	D	nontarget	n/a	n/a
366.515625	n/a	93828	A	target	hit	957.0312
367.4726562	n/a	94073	rt	n/a	hit	957.0312
368.0976562	n/a	94233	C	nontarget	n/a	n/a
369.6757812	n/a	94637	C	nontarget	n/a	n/a
371.2460938	n/a	95039	C	nontarget	n/a	n/a
372.8203125	n/a	95442	B	nontarget	n/a	n/a
374.390625	n/a	95844	B	nontarget	n/a	n/a
375.9648438	n/a	96247	C	target	hit	574.2188
376.5390625	n/a	96394	rt	n/a	hit	574.2188
377.5273438	n/a	96647	C	nontarget	n/a	n/a
379.1132812	n/a	97053	B	target	hit	617.1875
379.7304688	n/a	97211	rt	n/a	hit	617.1875
380.6875	n/a	97456	C	target	hit	589.8438
381.2773438	n/a	97607	rt	n/a	hit	589.8438
382.2578125	n/a	97858	A	nontarget	n/a	n/a
383.8320312	n/a	98261	A	nontarget	n/a	n/a
385.40625	n/a	98664	B	nontarget	n/a	n/a
386.9921875	n/a	99070	C	nontarget	n/a	n/a
388.5664062	n/a	99473	B	nontarget	n/a	n/a
390.1367188	n/a	99875	A	nontarget	n/a	n/a
391.7148438	n/a	100279	B	nontarget	n/a	n/a
393.2851562	n/a	100681	C	nontarget	n/a	n/a
394.859375	n/a	101084	B	nontarget	n/a	n/a
396.4453125	n/a	101490	B	target	hit	718.75
397.1640625	n/a	101674	rt	n/a	hit	718.75
398.0195312	n/a	101893	D	nontarget	n/a	n/a
399.5898438	n/a	102295	B	target	hit	511.7188
400.1015625	n/a	102426	rt	n/a	hit	511.7188
401.1679688	n/a	102699	C	nontarget	n/a	n/a
402.7382812	n/a	103101	A	nontarget	n/a	n/a
404.3164062	n/a	103505	B	target	hit	554.6875
404.8710938	n/a	103647	rt	n/a	hit	554.6875
405.8984375	n/a	103910	C	target	hit	968.75
406.8671875	n/a	104158	rt	n/a	hit	968.75
407.4726562	n/a	104313	D	nontarget	n/a	n/a
409.0429688	n/a	104715	A	nontarget	n/a	n/a
410.6210938	n/a	105119	B	nontarget	n/a	n/a
412.1914062	n/a	105521	A	nontarget	n/a	n/a
413.78125	n/a	105928	B	nontarget	n/a	n/a
415.3515625	n/a	106330	A	nontarget	n/a	n/a
416.9257812	n/a	106733	C	nontarget	n/a	n/a
418.4960938	n/a	107135	C	nontarget	n/a	n/a
420.0742188	n/a	107539	B	nontarget	n/a	n/a
421.6445312	n/a	107941	C	target	hit	640.625
422.2851562	n/a	108105	rt	n/a	hit	640.625
423.2226562	n/a	108345	D	nontarget	n/a	n/a
424.8046875	n/a	108750	D	nontarget	n/a	n/a
426.3789062	n/a	109153	B	nontarget	n/a	n/a
427.9492188	n/a	109555	C	nontarget	n/a	n/a
429.5273438	n/a	109959	B	nontarget	n/a	n/a
431.0976562	n/a	110361	D	nontarget	n/a	n/a
432.671875	n/a	110764	A	nontarget	n/a	n/a
434.2578125	n/a	111170	C	nontarget	n/a	n/a
435.8320312	n/a	111573	D	target	hit	667.9688
436.5	n/a	111744	rt	n/a	hit	667.9688
437.4023438	n/a	111975	C	nontarget	n/a	n/a
438.9765625	n/a	112378	C	target	hit	730.4688
439.7070312	n/a	112565	rt	n/a	hit	730.4688
440.5507812	n/a	112781	C	nontarget	n/a	n/a
442.1367188	n/a	113187	B	nontarget	n/a	n/a
443.7109375	n/a	113590	D	nontarget	n/a	n/a
445.2851562	n/a	113993	B	nontarget	n/a	n/a
446.8554688	n/a	114395	B	target	hit	683.5938
447.5390625	n/a	114570	rt	n/a	hit	683.5938
448.4335938	n/a	114799	D	target	hit	679.6875
449.1132812	n/a	114973	rt	n/a	hit	679.6875
450.0039062	n/a	115201	B	target	hit	636.7188
450.640625	n/a	115364	rt	n/a	hit	636.7188
451.5664062	n/a	115601	A	nontarget	n/a	n/a
453.1484375	n/a	116006	B	nontarget	n/a	n/a
454.7265625	n/a	116410	D	nontarget	n/a	n/a
456.296875	n/a	116812	A	target	hit	613.2812
456.9101562	n/a	116969	rt	n/a	hit	613.2812
457.8710938	n/a	117215	C	nontarget	n/a	n/a
459.4453125	n/a	117618	B	nontarget	n/a	n/a
