onset	duration	sample	value	stimulus	response_type	response_time
26.11328125	n/a	6685	A	nontarget	n/a	n/a
27.765625	n/a	7108	A	nontarget	n/a	n/a
29.35546875	n/a	7515	B	nontarget	n/a	n/a
30.91796875	n/a	7915	B	nontarget	n/a	n/a
32.4921875	n/a	8318	D	nontarget	n/a	n/a
34.0546875	n/a	8718	C	nontarget	n/a	n/a
35.62890625	n/a	9121	B	nontarget	n/a	n/a
37.19921875	n/a	9523	D	nontarget	n/a	n/a
38.7734375	n/a	9926	B	target	hit	867.1875
39.640625	n/a	10148	rt	n/a	hit	867.1875
40.3515625	n/a	10330	A	nontarget	n/a	n/a
41.921875	n/a	10732	A	nontarget	n/a	n/a
43.4921875	n/a	11134	D	nontarget	n/a	n/a
45.06640625	n/a	11537	C	nontarget	n/a	n/a
46.640625	n/a	11940	C	nontarget	n/a	n/a
48.203125	n/a	12340	A	nontarget	n/a	n/a
49.7890625	n/a	12746	B	nontarget	n/a	n/a
51.359375	n/a	13148	C	nontarget	n/a	n/a
52.93359375	n/a	13551	C	nontarget	n/a	n/a
54.5078125	n/a	13954	A	nontarget	n/a	n/a
56.0859375	n/a	14358	D	nontarget	n/a	n/a
57.66796875	n/a	14763	A	target	hit	734.375
58.40234375	n/a	14951	rt	n/a	hit	734.375
59.2421875	n/a	15166	C	nontarget	n/a	n/a
60.8125	n/a	15568	B	nontarget	n/a	n/a
62.38671875	n/a	15971	D	nontarget	n/a	n/a
63.9609375	n/a	16374	C	nontarget	n/a	n/a
65.546875	n/a	16780	A	nontarget	n/a	n/a
67.12109375	n/a	17183	D	nontarget	n/a	n/a
68.6953125	n/a	17586	B	nontarget	n/a	n/a
70.265625	n/a	17988	D	target	hit	554.6875
70.8203125	n/a	18130	rt	n/a	hit	554.6875
71.84375	n/a	18392	A	nontarget	n/a	n/a
73.4140625	n/a	18794	C	nontarget	n/a	n/a
74.98828125	n/a	19197	B	nontarget	n/a	n/a
76.546875	n/a	19596	D	nontarget	n/a	n/a
78.12109375	n/a	19999	B	target	hit	515.625
78.63671875	n/a	20131	rt	n/a	hit	515.625
79.69140625	n/a	20401	D	target	hit	660.1562
80.3515625	n/a	20570	rt	n/a	hit	660.1562
81.265625	n/a	20804	D	nontarget	n/a	n/a
82.83984375	n/a	21207	B	nontarget	n/a	n/a
84.4140625	n/a	21610	A	nontarget	n/a	n/a
85.984375	n/a	22012	A	nontarget	n/a	n/a
87.55859375	n/a	22415	D	nontarget	n/a	n/a
89.12109375	n/a	22815	A	target	hit	460.9375
89.58203125	n/a	22933	rt	n/a	hit	460.9375
90.6796875	n/a	23214	A	nontarget	n/a	n/a
92.23828125	n/a	23613	B	nontarget	n/a	n/a
93.80078125	n/a	24013	B	nontarget	n/a	n/a
95.36328125	n/a	24413	D	nontarget	n/a	n/a
96.9453125	n/a	24818	B	target	hit	605.4688
97.55078125	n/a	24973	rt	n/a	hit	605.4688
98.51953125	n/a	25221	C	nontarget	n/a	n/a
100.09375	n/a	25624	B	target	miss	n/a
101.6640625	n/a	26026	B	nontarget	miss	n/a
103.2382812	n/a	26429	D	nontarget	n/a	n/a
104.8164062	n/a	26833	A	nontarget	n/a	n/a
106.3710938	n/a	27231	C	nontarget	n/a	n/a
107.9335938	n/a	27631	C	nontarget	n/a	n/a
109.4921875	n/a	28030	B	nontarget	n/a	n/a
111.0507812	n/a	28429	D	nontarget	n/a	n/a
112.6132812	n/a	28829	B	target	hit	914.0625
113.5273438	n/a	29063	rt	n/a	hit	914.0625
114.171875	n/a	29228	C	nontarget	n/a	n/a
115.7460938	n/a	29631	D	nontarget	n/a	n/a
117.3203125	n/a	30034	B	nontarget	n/a	n/a
118.890625	n/a	30436	C	nontarget	n/a	n/a
120.4648438	n/a	30839	A	nontarget	n/a	n/a
122.0390625	n/a	31242	A	nontarget	n/a	n/a
123.625	n/a	31648	D	nontarget	n/a	n/a
125.1992188	n/a	32051	D	nontarget	n/a	n/a
126.7734375	n/a	32454	C	nontarget	n/a	n/a
128.34375	n/a	32856	B	nontarget	n/a	n/a
129.9179688	n/a	33259	B	nontarget	n/a	n/a
131.4921875	n/a	33662	B	target	hit	585.9375
132.078125	n/a	33812	rt	n/a	hit	585.9375
133.078125	n/a	34068	D	nontarget	n/a	n/a
134.6523438	n/a	34471	A	nontarget	n/a	n/a
136.2265625	n/a	34874	A	nontarget	n/a	n/a
137.796875	n/a	35276	D	nontarget	n/a	n/a
139.375	n/a	35680	D	nontarget	n/a	n/a
140.9453125	n/a	36082	B	nontarget	n/a	n/a
142.53125	n/a	36488	B	nontarget	n/a	n/a
144.1054688	n/a	36891	A	nontarget	n/a	n/a
145.6796875	n/a	37294	A	nontarget	n/a	n/a
147.25	n/a	37696	A	target	hit	535.1562
147.7851562	n/a	37833	rt	n/a	hit	535.1562
148.8242188	n/a	38099	B	nontarget	n/a	n/a
150.4101562	n/a	38505	D	nontarget	n/a	n/a
151.984375	n/a	38908	A	nontarget	n/a	n/a
153.5585938	n/a	39311	B	nontarget	n/a	n/a
155.1328125	n/a	39714	C	nontarget	n/a	n/a
156.7070312	n/a	40117	A	nontarget	n/a	n/a
158.2773438	n/a	40519	A	nontarget	n/a	n/a
159.8515625	n/a	40922	C	nontarget	n/a	n/a
161.4101562	n/a	41321	C	nontarget	n/a	n/a
162.9726562	n/a	41721	A	nontarget	n/a	n/a
164.5585938	n/a	42127	C	target	hit	738.2812
165.296875	n/a	42316	rt	n/a	hit	738.2812
166.1328125	n/a	42530	B	nontarget	n/a	n/a
167.703125	n/a	42932	C	target	hit	832.0312
168.5351562	n/a	43145	rt	n/a	hit	832.0312
169.2773438	n/a	43335	D	nontarget	n/a	n/a
170.8515625	n/a	43738	C	target	miss	n/a
172.4375	n/a	44144	A	nontarget	miss	n/a
174.0117188	n/a	44547	B	nontarget	n/a	n/a
175.5859375	n/a	44950	B	nontarget	n/a	n/a
177.15625	n/a	45352	D	nontarget	n/a	n/a
178.7304688	n/a	45755	C	nontarget	n/a	n/a
180.3046875	n/a	46158	C	nontarget	n/a	n/a
181.890625	n/a	46564	B	nontarget	n/a	n/a
183.4648438	n/a	46967	C	target	hit	562.5
184.0273438	n/a	47111	rt	n/a	hit	562.5
185.0390625	n/a	47370	A	nontarget	n/a	n/a
186.609375	n/a	47772	D	nontarget	n/a	n/a
188.1835938	n/a	48175	C	nontarget	n/a	n/a
189.7578125	n/a	48578	D	target	hit	589.8438
190.3476562	n/a	48729	rt	n/a	hit	589.8438
191.34375	n/a	48984	C	target	hit	726.5625
192.0703125	n/a	49170	rt	n/a	hit	726.5625
192.9179688	n/a	49387	D	target	hit	605.4688
193.5234375	n/a	49542	rt	n/a	hit	605.4688
194.4921875	n/a	49790	B	nontarget	n/a	n/a
196.0625	n/a	50192	C	nontarget	n/a	n/a
197.640625	n/a	50596	C	nontarget	n/a	n/a
199.2109375	n/a	50998	C	target	hit	523.4375
199.734375	n/a	51132	rt	n/a	hit	523.4375
200.796875	n/a	51404	A	nontarget	n/a	n/a
202.3710938	n/a	51807	C	target	miss	n/a
203.9453125	n/a	52210	B	nontarget	miss	n/a
205.515625	n/a	52612	D	nontarget	n/a	n/a
207.0898438	n/a	53015	D	nontarget	n/a	n/a
208.6640625	n/a	53418	B	nontarget	n/a	n/a
210.2226562	n/a	53817	A	nontarget	n/a	n/a
211.8085938	n/a	54223	A	nontarget	n/a	n/a
213.3828125	n/a	54626	B	nontarget	n/a	n/a
214.9570312	n/a	55029	B	nontarget	n/a	n/a
216.53125	n/a	55432	C	nontarget	n/a	n/a
218.1054688	n/a	55835	B	target	hit	507.8125
218.6132812	n/a	55965	rt	n/a	hit	507.8125
219.6757812	n/a	56237	B	nontarget	n/a	n/a
221.2382812	n/a	56637	A	nontarget	n/a	n/a
222.796875	n/a	57036	D	nontarget	n/a	n/a
224.3710938	n/a	57439	B	nontarget	n/a	n/a
225.9414062	n/a	57841	C	nontarget	n/a	n/a
227.515625	n/a	58244	B	target	hit	773.4375
228.2890625	n/a	58442	rt	n/a	hit	773.4375
229.0898438	n/a	58647	B	nontarget	n/a	n/a
230.6640625	n/a	59050	B	target	hit	550.7812
231.2148438	n/a	59191	rt	n/a	hit	550.7812
232.234375	n/a	59452	D	nontarget	n/a	n/a
233.796875	n/a	59852	C	nontarget	n/a	n/a
235.3828125	n/a	60258	D	target	hit	457.0312
235.8398438	n/a	60375	rt	n/a	hit	457.0312
236.9570312	n/a	60661	D	nontarget	n/a	n/a
238.5273438	n/a	61063	C	nontarget	n/a	n/a
240.1015625	n/a	61466	A	nontarget	n/a	n/a
241.6757812	n/a	61869	C	target	hit	808.5938
242.484375	n/a	62076	rt	n/a	hit	808.5938
243.25	n/a	62272	A	target	hit	968.75
244.21875	n/a	62520	rt	n/a	hit	968.75
244.8085938	n/a	62671	A	nontarget	n/a	n/a
246.3945312	n/a	63077	A	target	hit	546.875
246.9414062	n/a	63217	rt	n/a	hit	546.875
247.96875	n/a	63480	D	nontarget	n/a	n/a
249.5429688	n/a	63883	C	nontarget	n/a	n/a
251.1171875	n/a	64286	B	nontarget	n/a	n/a
252.6914062	n/a	64689	C	target	hit	429.6875
253.1210938	n/a	64799	rt	n/a	hit	429.6875
254.2617188	n/a	65091	C	nontarget	n/a	n/a
255.8476562	n/a	65497	C	target	hit	457.0312
256.3046875	n/a	65614	rt	n/a	hit	457.0312
257.4257812	n/a	65901	B	nontarget	n/a	n/a
258.9960938	n/a	66303	C	target	hit	691.4062
259.6875	n/a	66480	rt	n/a	hit	691.4062
260.5703125	n/a	66706	B	target	hit	812.5
261.3828125	n/a	66914	rt	n/a	hit	812.5
262.140625	n/a	67108	C	target	miss	n/a
263.7304688	n/a	67515	D	nontarget	miss	n/a
265.3007812	n/a	67917	C	target	hit	535.1562
265.8359375	n/a	68054	rt	n/a	hit	535.1562
266.875	n/a	68320	B	nontarget	n/a	n/a
268.4492188	n/a	68723	D	nontarget	n/a	n/a
270.0234375	n/a	69126	D	nontarget	n/a	n/a
271.59375	n/a	69528	A	nontarget	n/a	n/a
273.15625	n/a	69928	B	nontarget	n/a	n/a
274.7421875	n/a	70334	C	nontarget	n/a	n/a
276.3164062	n/a	70737	C	nontarget	n/a	n/a
277.8867188	n/a	71139	C	target	hit	621.0938
278.5078125	n/a	71298	rt	n/a	hit	621.0938
279.4648438	n/a	71543	B	nontarget	n/a	n/a
281.0351562	n/a	71945	A	nontarget	n/a	n/a
282.609375	n/a	72348	D	nontarget	n/a	n/a
284.1679688	n/a	72747	D	nontarget	n/a	n/a
285.7265625	n/a	73146	B	nontarget	n/a	n/a
287.2890625	n/a	73546	C	nontarget	n/a	n/a
288.8476562	n/a	73945	D	nontarget	n/a	n/a
290.40625	n/a	74344	B	nontarget	n/a	n/a
291.96875	n/a	74744	C	nontarget	n/a	n/a
293.5546875	n/a	75150	B	target	hit	1027.3438
294.5820312	n/a	75413	rt	n/a	hit	1027.3438
295.1289062	n/a	75553	A	nontarget	n/a	n/a
296.703125	n/a	75956	D	nontarget	false_alarm	652.3438
297.3554688	n/a	76123	rt	n/a	false_alarm	652.3438
298.2734375	n/a	76358	C	nontarget	n/a	n/a
299.8476562	n/a	76761	C	nontarget	n/a	n/a
301.421875	n/a	77164	A	nontarget	n/a	n/a
302.9804688	n/a	77563	B	nontarget	n/a	n/a
304.5664062	n/a	77969	B	nontarget	n/a	n/a
306.1445312	n/a	78373	C	nontarget	n/a	n/a
307.7148438	n/a	78775	B	target	hit	781.25
308.4960938	n/a	78975	rt	n/a	hit	781.25
309.2890625	n/a	79178	D	nontarget	n/a	n/a
310.859375	n/a	79580	A	nontarget	n/a	n/a
312.4335938	n/a	79983	B	nontarget	n/a	n/a
314.0078125	n/a	80386	C	nontarget	n/a	n/a
315.5820312	n/a	80789	B	target	hit	527.3438
316.109375	n/a	80924	rt	n/a	hit	527.3438
317.1523438	n/a	81191	A	nontarget	n/a	n/a
318.7265625	n/a	81594	B	target	hit	500
319.2265625	n/a	81722	rt	n/a	hit	500
320.3007812	n/a	81997	B	nontarget	n/a	n/a
321.875	n/a	82400	A	nontarget	n/a	n/a
323.4609375	n/a	82806	B	target	hit	917.9688
324.3789062	n/a	83041	rt	n/a	hit	917.9688
325.0351562	n/a	83209	A	target	hit	660.1562
325.6953125	n/a	83378	rt	n/a	hit	660.1562
326.609375	n/a	83612	C	nontarget	n/a	n/a
328.1796875	n/a	84014	D	nontarget	n/a	n/a
329.7539062	n/a	84417	C	target	hit	710.9375
330.4648438	n/a	84599	rt	n/a	hit	710.9375
331.3398438	n/a	84823	D	target	hit	550.7812
331.890625	n/a	84964	rt	n/a	hit	550.7812
332.9140625	n/a	85226	D	nontarget	n/a	n/a
334.4882812	n/a	85629	D	target	hit	664.0625
335.1523438	n/a	85799	rt	n/a	hit	664.0625
336.0585938	n/a	86031	D	target	hit	773.4375
336.8320312	n/a	86229	rt	n/a	hit	773.4375
337.6367188	n/a	86435	A	nontarget	n/a	n/a
339.2070312	n/a	86837	D	target	miss	n/a
340.78125	n/a	87240	A	target	hit	546.875
341.328125	n/a	87380	rt	n/a	hit	546.875
342.3671875	n/a	87646	B	nontarget	n/a	n/a
343.9414062	n/a	88049	A	target	miss	n/a
345.5117188	n/a	88451	A	nontarget	miss	n/a
347.0859375	n/a	88854	A	target	hit	562.5
347.6484375	n/a	88998	rt	n/a	hit	562.5
348.6601562	n/a	89257	D	nontarget	n/a	n/a
350.234375	n/a	89660	A	target	hit	718.75
350.953125	n/a	89844	rt	n/a	hit	718.75
351.7929688	n/a	90059	C	nontarget	n/a	n/a
353.3554688	n/a	90459	B	nontarget	n/a	n/a
354.9140625	n/a	90858	A	nontarget	n/a	n/a
356.4726562	n/a	91257	A	nontarget	n/a	n/a
358.03125	n/a	91656	B	nontarget	n/a	n/a
359.59375	n/a	92056	A	target	hit	789.0625
360.3828125	n/a	92258	rt	n/a	hit	789.0625
361.1796875	n/a	92462	A	nontarget	n/a	n/a
362.7539062	n/a	92865	C	nontarget	n/a	n/a
364.328125	n/a	93268	A	target	miss	n/a
365.8984375	n/a	93670	D	nontarget	miss	n/a
367.4726562	n/a	94073	C	nontarget	n/a	n/a
369.0585938	n/a	94479	B	nontarget	n/a	n/a
370.6328125	n/a	94882	A	nontarget	n/a	n/a
372.2070312	n/a	95285	C	nontarget	n/a	n/a
373.7773438	n/a	95687	D	nontarget	n/a	n/a
375.3554688	n/a	96091	B	nontarget	n/a	n/a
376.9257812	n/a	96493	C	nontarget	n/a	n/a
378.5117188	n/a	96899	B	target	miss	n/a
380.0859375	n/a	97302	A	nontarget	miss	n/a
381.6601562	n/a	97705	D	nontarget	n/a	n/a
383.2304688	n/a	98107	D	nontarget	n/a	n/a
384.8046875	n/a	98510	B	nontarget	n/a	n/a
386.390625	n/a	98916	C	nontarget	false_alarm	796.875
387.1875	n/a	99120	rt	n/a	false_alarm	796.875
387.9648438	n/a	99319	B	target	hit	492.1875
388.4570312	n/a	99445	rt	n/a	hit	492.1875
389.5390625	n/a	99722	A	nontarget	n/a	n/a
391.1132812	n/a	100125	A	nontarget	n/a	n/a
392.6835938	n/a	100527	D	nontarget	n/a	n/a
394.2617188	n/a	100931	C	nontarget	n/a	n/a
395.84375	n/a	101336	B	nontarget	n/a	n/a
397.4179688	n/a	101739	A	nontarget	n/a	n/a
398.9921875	n/a	102142	C	nontarget	n/a	n/a
400.5664062	n/a	102545	D	nontarget	n/a	n/a
402.1367188	n/a	102947	D	nontarget	n/a	n/a
403.7109375	n/a	103350	A	nontarget	n/a	n/a
405.296875	n/a	103756	A	nontarget	n/a	n/a
406.8710938	n/a	104159	B	nontarget	n/a	n/a
408.4453125	n/a	104562	B	nontarget	n/a	n/a
410.0195312	n/a	104965	B	target	hit	519.5312
410.5390625	n/a	105098	rt	n/a	hit	519.5312
411.5898438	n/a	105367	A	nontarget	n/a	n/a
413.1679688	n/a	105771	C	nontarget	n/a	n/a
414.75	n/a	106176	B	nontarget	n/a	n/a
416.328125	n/a	106580	B	nontarget	n/a	n/a
417.8984375	n/a	106982	B	target	hit	546.875
418.4453125	n/a	107122	rt	n/a	hit	546.875
419.4726562	n/a	107385	D	nontarget	n/a	n/a
421.0429688	n/a	107787	A	nontarget	n/a	n/a
422.6171875	n/a	108190	A	nontarget	n/a	n/a
424.1914062	n/a	108593	A	target	hit	914.0625
425.1054688	n/a	108827	rt	n/a	hit	914.0625
425.765625	n/a	108996	B	nontarget	n/a	n/a
427.3359375	n/a	109398	A	target	miss	n/a
428.9101562	n/a	109801	C	nontarget	miss	n/a
430.4882812	n/a	110205	D	nontarget	n/a	n/a
432.0585938	n/a	110607	B	nontarget	n/a	n/a
433.6328125	n/a	111010	B	nontarget	n/a	n/a
435.21875	n/a	111416	D	nontarget	n/a	n/a
436.7929688	n/a	111819	D	nontarget	n/a	n/a
438.3632812	n/a	112221	C	nontarget	n/a	n/a
439.9375	n/a	112624	A	nontarget	n/a	n/a
441.5117188	n/a	113027	A	nontarget	n/a	n/a
443.0976562	n/a	113433	D	nontarget	n/a	n/a
444.671875	n/a	113836	C	nontarget	n/a	n/a
446.2421875	n/a	114238	D	target	miss	n/a
447.8164062	n/a	114641	B	nontarget	miss	n/a
449.3945312	n/a	115045	B	nontarget	n/a	n/a
450.9648438	n/a	115447	A	nontarget	n/a	n/a
452.5234375	n/a	115846	A	nontarget	n/a	n/a
454.109375	n/a	116252	C	nontarget	n/a	n/a
455.6835938	n/a	116655	A	target	hit	1203.125
456.8867188	n/a	116963	rt	n/a	hit	1203.125
457.2578125	n/a	117058	A	nontarget	n/a	n/a
458.8320312	n/a	117461	D	nontarget	n/a	n/a
460.4023438	n/a	117863	D	nontarget	n/a	n/a
461.9765625	n/a	118266	C	nontarget	n/a	n/a
463.5390625	n/a	118666	C	nontarget	n/a	n/a
465.125	n/a	119072	C	target	hit	410.1562
465.5351562	n/a	119177	rt	n/a	hit	410.1562
