onset	duration	sample	value	response_type	congruence	response_time	response_out_of_range	largeletter	smallletter
17.1953125	n/a	4402	largeTSmallH	correct	incongruent	1.3906	no	T	H
18.5859375	n/a	4758	responseLargeT	correct	n/a	1.3906	no	n/a	n/a
19.66015625	n/a	5033	largeTSmallT	correct	congruent	1.543	yes	T	T
21.203125	n/a	5428	responseLargeT	correct	n/a	1.543	yes	n/a	n/a
22.2734375	n/a	5702	largeHSmallT	correct	incongruent	0.69141	no	H	T
22.96484375	n/a	5879	responseLargeH	correct	n/a	0.69141	no	n/a	n/a
24.03515625	n/a	6153	largeHSmallH	correct	congruent	0.50781	no	H	H
24.54296875	n/a	6283	responseLargeH	correct	n/a	0.50781	no	n/a	n/a
25.609375	n/a	6556	largeHSmallT	correct	incongruent	0.48047	no	H	T
26.08984375	n/a	6679	responseLargeH	correct	n/a	0.48047	no	n/a	n/a
27.15234375	n/a	6951	largeHSmallT	correct	incongruent	0.39453	no	H	T
27.546875	n/a	7052	responseLargeH	correct	n/a	0.39453	no	n/a	n/a
28.609375	n/a	7324	largeTSmallT	correct	congruent	0.48828	no	T	T
29.09765625	n/a	7449	responseLargeT	correct	n/a	0.48828	no	n/a	n/a
30.16796875	n/a	7723	largeHSmallT	correct	incongruent	0.45703	no	H	T
30.625	n/a	7840	responseLargeH	correct	n/a	0.45703	no	n/a	n/a
31.69921875	n/a	8115	largeTSmallH	correct	incongruent	1.1914	no	T	H
32.890625	n/a	8420	responseLargeT	correct	n/a	1.1914	no	n/a	n/a
33.953125	n/a	8692	largeTSmallH	correct	incongruent	0.52734	no	T	H
34.48046875	n/a	8827	responseLargeT	correct	n/a	0.52734	no	n/a	n/a
35.5546875	n/a	9102	largeTSmallT	correct	congruent	0.44141	no	T	T
35.99609375	n/a	9215	responseLargeT	correct	n/a	0.44141	no	n/a	n/a
37.0625	n/a	9488	largeTSmallT	correct	congruent	0.41797	no	T	T
37.48046875	n/a	9595	responseLargeT	correct	n/a	0.41797	no	n/a	n/a
38.5390625	n/a	9866	largeTSmallT	correct	congruent	0.41406	no	T	T
38.953125	n/a	9972	responseLargeT	correct	n/a	0.41406	no	n/a	n/a
40.0078125	n/a	10242	largeHSmallT	correct	incongruent	0.51172	no	H	T
40.51953125	n/a	10373	responseLargeH	correct	n/a	0.51172	no	n/a	n/a
41.59375	n/a	10648	largeTSmallT	correct	congruent	0.58984	no	T	T
42.18359375	n/a	10799	responseLargeT	correct	n/a	0.58984	no	n/a	n/a
43.26171875	n/a	11075	largeHSmallH	correct	congruent	0.44922	no	H	H
43.7109375	n/a	11190	responseLargeH	correct	n/a	0.44922	no	n/a	n/a
44.78125	n/a	11464	largeHSmallH	correct	congruent	0.42578	no	H	H
45.20703125	n/a	11573	responseLargeH	correct	n/a	0.42578	no	n/a	n/a
46.2734375	n/a	11846	largeTSmallH	correct	incongruent	0.51953	no	T	H
46.79296875	n/a	11979	responseLargeT	correct	n/a	0.51953	no	n/a	n/a
47.859375	n/a	12252	largeHSmallT	correct	incongruent	0.41016	no	H	T
48.26953125	n/a	12357	responseLargeH	correct	n/a	0.41016	no	n/a	n/a
49.33984375	n/a	12631	largeHSmallH	correct	congruent	0.40625	no	H	H
49.74609375	n/a	12735	responseLargeH	correct	n/a	0.40625	no	n/a	n/a
50.80859375	n/a	13007	largeHSmallT	correct	incongruent	0.35156	no	H	T
51.16015625	n/a	13097	responseLargeH	correct	n/a	0.35156	no	n/a	n/a
52.234375	n/a	13372	largeTSmallH	error	incongruent	0.44531	no	T	H
52.6796875	n/a	13486	responseLargeH	error	n/a	0.44531	no	n/a	n/a
53.7421875	n/a	13758	largeTSmallH	correct	incongruent	0.64844	no	T	H
54.390625	n/a	13924	responseLargeT	correct	n/a	0.64844	no	n/a	n/a
55.4609375	n/a	14198	largeHSmallT	correct	incongruent	0.63672	no	H	T
56.09765625	n/a	14361	responseLargeH	correct	n/a	0.63672	no	n/a	n/a
57.1796875	n/a	14638	largeTSmallH	correct	incongruent	0.49219	no	T	H
57.671875	n/a	14764	responseLargeT	correct	n/a	0.49219	no	n/a	n/a
58.7421875	n/a	15038	largeTSmallH	correct	incongruent	0.55469	no	T	H
59.296875	n/a	15180	responseLargeT	correct	n/a	0.55469	no	n/a	n/a
60.3671875	n/a	15454	largeTSmallH	correct	incongruent	0.47656	no	T	H
60.84375	n/a	15576	responseLargeT	correct	n/a	0.47656	no	n/a	n/a
61.9140625	n/a	15850	largeTSmallT	correct	congruent	0.40625	no	T	T
62.3203125	n/a	15954	responseLargeT	correct	n/a	0.40625	no	n/a	n/a
63.37890625	n/a	16225	largeHSmallT	correct	incongruent	0.47266	no	H	T
63.8515625	n/a	16346	responseLargeH	correct	n/a	0.47266	no	n/a	n/a
64.92578125	n/a	16621	largeTSmallH	correct	incongruent	0.46875	no	T	H
65.39453125	n/a	16741	responseLargeT	correct	n/a	0.46875	no	n/a	n/a
66.4609375	n/a	17014	largeHSmallT	correct	incongruent	0.49609	no	H	T
66.95703125	n/a	17141	responseLargeH	correct	n/a	0.49609	no	n/a	n/a
68.03515625	n/a	17417	largeHSmallT	correct	incongruent	0.44531	no	H	T
68.48046875	n/a	17531	responseLargeH	correct	n/a	0.44531	no	n/a	n/a
69.5390625	n/a	17802	largeHSmallH	correct	congruent	0.38672	no	H	H
69.92578125	n/a	17901	responseLargeH	correct	n/a	0.38672	no	n/a	n/a
70.9921875	n/a	18174	largeTSmallT	correct	congruent	0.44531	no	T	T
71.4375	n/a	18288	responseLargeT	correct	n/a	0.44531	no	n/a	n/a
72.51171875	n/a	18563	largeHSmallH	correct	congruent	0.4375	no	H	H
72.94921875	n/a	18675	responseLargeH	correct	n/a	0.4375	no	n/a	n/a
74.01953125	n/a	18949	largeHSmallT	correct	incongruent	0.66016	no	H	T
74.6796875	n/a	19118	responseLargeH	correct	n/a	0.66016	no	n/a	n/a
75.75390625	n/a	19393	largeTSmallT	correct	congruent	0.50391	no	T	T
76.2578125	n/a	19522	responseLargeT	correct	n/a	0.50391	no	n/a	n/a
77.328125	n/a	19796	largeHSmallH	correct	congruent	0.42578	no	H	H
77.75390625	n/a	19905	responseLargeH	correct	n/a	0.42578	no	n/a	n/a
78.83203125	n/a	20181	largeTSmallT	correct	congruent	0.47266	no	T	T
79.3046875	n/a	20302	responseLargeT	correct	n/a	0.47266	no	n/a	n/a
80.3671875	n/a	20574	largeTSmallT	correct	congruent	0.48828	no	T	T
80.85546875	n/a	20699	responseLargeT	correct	n/a	0.48828	no	n/a	n/a
81.92578125	n/a	20973	largeHSmallT	correct	incongruent	0.39453	no	H	T
82.3203125	n/a	21074	responseLargeH	correct	n/a	0.39453	no	n/a	n/a
83.37890625	n/a	21345	largeTSmallT	correct	congruent	0.44531	no	T	T
83.82421875	n/a	21459	responseLargeT	correct	n/a	0.44531	no	n/a	n/a
84.8984375	n/a	21734	largeTSmallT	correct	congruent	0.50781	no	T	T
85.40625	n/a	21864	responseLargeT	correct	n/a	0.50781	no	n/a	n/a
86.47265625	n/a	22137	largeHSmallH	correct	congruent	0.42969	no	H	H
86.90234375	n/a	22247	responseLargeH	correct	n/a	0.42969	no	n/a	n/a
87.96484375	n/a	22519	largeHSmallT	correct	incongruent	0.40234	no	H	T
88.3671875	n/a	22622	responseLargeH	correct	n/a	0.40234	no	n/a	n/a
89.43359375	n/a	22895	largeHSmallT	correct	incongruent	0.39453	no	H	T
89.828125	n/a	22996	responseLargeH	correct	n/a	0.39453	no	n/a	n/a
90.8984375	n/a	23270	largeTSmallT	correct	congruent	0.47656	no	T	T
91.375	n/a	23392	responseLargeT	correct	n/a	0.47656	no	n/a	n/a
92.4453125	n/a	23666	largeTSmallH	correct	incongruent	0.52344	no	T	H
92.96875	n/a	23800	responseLargeT	correct	n/a	0.52344	no	n/a	n/a
94.03125	n/a	24072	largeTSmallH	correct	incongruent	0.42969	no	T	H
94.4609375	n/a	24182	responseLargeT	correct	n/a	0.42969	no	n/a	n/a
95.52734375	n/a	24455	largeTSmallT	correct	congruent	0.41406	no	T	T
95.94140625	n/a	24561	responseLargeT	correct	n/a	0.41406	no	n/a	n/a
97.01953125	n/a	24837	largeTSmallT	correct	congruent	0.41406	no	T	T
97.43359375	n/a	24943	responseLargeT	correct	n/a	0.41406	no	n/a	n/a
98.5	n/a	25216	largeHSmallT	correct	incongruent	0.46484	no	H	T
98.96484375	n/a	25335	responseLargeH	correct	n/a	0.46484	no	n/a	n/a
100.03125	n/a	25608	largeTSmallT	correct	congruent	0.48047	no	T	T
100.5117188	n/a	25731	responseLargeT	correct	n/a	0.48047	no	n/a	n/a
101.59375	n/a	26008	largeHSmallH	correct	congruent	0.45312	no	H	H
102.046875	n/a	26124	responseLargeH	correct	n/a	0.45312	no	n/a	n/a
103.1132812	n/a	26397	largeTSmallT	correct	congruent	0.44531	no	T	T
103.5585938	n/a	26511	responseLargeT	correct	n/a	0.44531	no	n/a	n/a
104.6328125	n/a	26786	largeHSmallH	correct	congruent	0.44141	no	H	H
105.0742188	n/a	26899	responseLargeH	correct	n/a	0.44141	no	n/a	n/a
106.140625	n/a	27172	largeHSmallH	correct	congruent	0.45312	no	H	H
106.59375	n/a	27288	responseLargeH	correct	n/a	0.45312	no	n/a	n/a
107.6601562	n/a	27561	largeHSmallH	correct	congruent	0.37891	no	H	H
108.0390625	n/a	27658	responseLargeH	correct	n/a	0.37891	no	n/a	n/a
109.1132812	n/a	27933	largeTSmallH	correct	incongruent	0.46875	no	T	H
109.5820312	n/a	28053	responseLargeT	correct	n/a	0.46875	no	n/a	n/a
110.6445312	n/a	28325	largeTSmallT	correct	congruent	0.51562	no	T	T
111.1601562	n/a	28457	responseLargeT	correct	n/a	0.51562	no	n/a	n/a
112.2304688	n/a	28731	largeTSmallH	correct	incongruent	0.46875	no	T	H
112.6992188	n/a	28851	responseLargeT	correct	n/a	0.46875	no	n/a	n/a
113.765625	n/a	29124	largeHSmallT	correct	incongruent	0.39062	no	H	T
114.15625	n/a	29224	responseLargeH	correct	n/a	0.39062	no	n/a	n/a
115.21875	n/a	29496	largeHSmallT	correct	incongruent	0.40234	no	H	T
115.6210938	n/a	29599	responseLargeH	correct	n/a	0.40234	no	n/a	n/a
116.6835938	n/a	29871	largeTSmallH	correct	incongruent	0.48828	no	T	H
117.171875	n/a	29996	responseLargeT	correct	n/a	0.48828	no	n/a	n/a
118.2460938	n/a	30271	largeTSmallT	correct	congruent	0.48047	no	T	T
118.7265625	n/a	30394	responseLargeT	correct	n/a	0.48047	no	n/a	n/a
119.7929688	n/a	30667	largeHSmallH	correct	congruent	0.40625	no	H	H
120.1992188	n/a	30771	responseLargeH	correct	n/a	0.40625	no	n/a	n/a
121.2734375	n/a	31046	largeTSmallH	correct	incongruent	0.47656	no	T	H
121.75	n/a	31168	responseLargeT	correct	n/a	0.47656	no	n/a	n/a
122.8203125	n/a	31442	largeTSmallT	correct	congruent	0.41797	no	T	T
123.2382812	n/a	31549	responseLargeT	correct	n/a	0.41797	no	n/a	n/a
124.296875	n/a	31820	largeHSmallH	correct	congruent	0.39062	no	H	H
124.6875	n/a	31920	responseLargeH	correct	n/a	0.39062	no	n/a	n/a
125.7539062	n/a	32193	largeHSmallT	correct	incongruent	0.44531	no	H	T
126.1992188	n/a	32307	responseLargeH	correct	n/a	0.44531	no	n/a	n/a
127.2578125	n/a	32578	largeTSmallH	correct	incongruent	0.46094	no	T	H
127.71875	n/a	32696	responseLargeT	correct	n/a	0.46094	no	n/a	n/a
128.7929688	n/a	32971	largeHSmallH	correct	congruent	0.41016	no	H	H
129.203125	n/a	33076	responseLargeH	correct	n/a	0.41016	no	n/a	n/a
130.2734375	n/a	33350	largeHSmallT	correct	incongruent	0.54688	no	H	T
130.8203125	n/a	33490	responseLargeH	correct	n/a	0.54688	no	n/a	n/a
131.8867188	n/a	33763	largeTSmallH	correct	incongruent	0.43359	no	T	H
132.3203125	n/a	33874	responseLargeT	correct	n/a	0.43359	no	n/a	n/a
133.390625	n/a	34148	largeTSmallT	correct	congruent	0.42188	no	T	T
133.8125	n/a	34256	responseLargeT	correct	n/a	0.42188	no	n/a	n/a
134.8710938	n/a	34527	largeHSmallH	correct	congruent	0.41797	no	H	H
135.2890625	n/a	34634	responseLargeH	correct	n/a	0.41797	no	n/a	n/a
136.3671875	n/a	34910	largeHSmallT	correct	incongruent	0.42969	no	H	T
136.796875	n/a	35020	responseLargeH	correct	n/a	0.42969	no	n/a	n/a
137.859375	n/a	35292	largeHSmallT	correct	incongruent	0.40234	no	H	T
138.2617188	n/a	35395	responseLargeH	correct	n/a	0.40234	no	n/a	n/a
139.3242188	n/a	35667	largeHSmallH	error	congruent	0.625	no	H	H
139.9492188	n/a	35827	responseLargeT	error	n/a	0.625	no	n/a	n/a
141.0195312	n/a	36101	largeHSmallH	correct	congruent	0.58203	no	H	H
141.6015625	n/a	36250	responseLargeH	correct	n/a	0.58203	no	n/a	n/a
142.671875	n/a	36524	largeHSmallT	correct	incongruent	0.54297	no	H	T
143.2148438	n/a	36663	responseLargeH	correct	n/a	0.54297	no	n/a	n/a
144.2851562	n/a	36937	largeTSmallH	correct	incongruent	0.46094	no	T	H
144.7460938	n/a	37055	responseLargeT	correct	n/a	0.46094	no	n/a	n/a
145.8046875	n/a	37326	largeHSmallT	correct	incongruent	0.60156	no	H	T
146.40625	n/a	37480	responseLargeH	correct	n/a	0.60156	no	n/a	n/a
147.4726562	n/a	37753	largeTSmallT	correct	congruent	0.45312	no	T	T
147.9257812	n/a	37869	responseLargeT	correct	n/a	0.45312	no	n/a	n/a
148.9921875	n/a	38142	largeTSmallT	correct	congruent	0.48438	no	T	T
149.4765625	n/a	38266	responseLargeT	correct	n/a	0.48438	no	n/a	n/a
150.5390625	n/a	38538	largeHSmallT	correct	incongruent	0.48828	no	H	T
151.0273438	n/a	38663	responseLargeH	correct	n/a	0.48828	no	n/a	n/a
152.0976562	n/a	38937	largeHSmallT	correct	incongruent	0.49609	no	H	T
152.59375	n/a	39064	responseLargeH	correct	n/a	0.49609	no	n/a	n/a
153.65625	n/a	39336	largeHSmallT	correct	incongruent	0.48828	no	H	T
154.1445312	n/a	39461	responseLargeH	correct	n/a	0.48828	no	n/a	n/a
155.21875	n/a	39736	largeTSmallT	correct	congruent	0.46094	no	T	T
155.6796875	n/a	39854	responseLargeT	correct	n/a	0.46094	no	n/a	n/a
156.75	n/a	40128	largeHSmallT	correct	incongruent	0.50391	no	H	T
157.2539062	n/a	40257	responseLargeH	correct	n/a	0.50391	no	n/a	n/a
158.3242188	n/a	40531	largeTSmallT	correct	congruent	0.44922	no	T	T
158.7734375	n/a	40646	responseLargeT	correct	n/a	0.44922	no	n/a	n/a
159.8320312	n/a	40917	largeHSmallH	correct	congruent	0.39062	no	H	H
160.2226562	n/a	41017	responseLargeH	correct	n/a	0.39062	no	n/a	n/a
161.2851562	n/a	41289	largeHSmallH	correct	congruent	0.43359	no	H	H
161.71875	n/a	41400	responseLargeH	correct	n/a	0.43359	no	n/a	n/a
162.7929688	n/a	41675	largeTSmallH	correct	incongruent	0.52734	no	T	H
163.3203125	n/a	41810	responseLargeT	correct	n/a	0.52734	no	n/a	n/a
164.390625	n/a	42084	largeHSmallT	correct	incongruent	0.45703	no	H	T
164.8476562	n/a	42201	responseLargeH	correct	n/a	0.45703	no	n/a	n/a
165.9257812	n/a	42477	largeHSmallH	correct	congruent	0.57031	no	H	H
166.4960938	n/a	42623	responseLargeH	correct	n/a	0.57031	no	n/a	n/a
167.5664062	n/a	42897	largeTSmallH	correct	incongruent	0.53125	no	T	H
168.0976562	n/a	43033	responseLargeT	correct	n/a	0.53125	no	n/a	n/a
169.1640625	n/a	43306	largeHSmallH	correct	congruent	0.46875	no	H	H
169.6328125	n/a	43426	responseLargeH	correct	n/a	0.46875	no	n/a	n/a
170.6992188	n/a	43699	largeHSmallH	correct	congruent	0.43359	no	H	H
171.1328125	n/a	43810	responseLargeH	correct	n/a	0.43359	no	n/a	n/a
172.1914062	n/a	44081	largeHSmallH	correct	congruent	0.46875	no	H	H
172.6601562	n/a	44201	responseLargeH	correct	n/a	0.46875	no	n/a	n/a
173.7226562	n/a	44473	largeTSmallT	correct	congruent	0.46484	no	T	T
174.1875	n/a	44592	responseLargeT	correct	n/a	0.46484	no	n/a	n/a
175.2460938	n/a	44863	largeTSmallH	correct	incongruent	0.51953	no	T	H
175.765625	n/a	44996	responseLargeT	correct	n/a	0.51953	no	n/a	n/a
176.84375	n/a	45272	largeHSmallH	correct	congruent	0.42578	no	H	H
177.2695312	n/a	45381	responseLargeH	correct	n/a	0.42578	no	n/a	n/a
178.3359375	n/a	45654	largeHSmallH	correct	congruent	0.4375	no	H	H
178.7734375	n/a	45766	responseLargeH	correct	n/a	0.4375	no	n/a	n/a
179.8320312	n/a	46037	largeHSmallH	correct	congruent	0.50391	no	H	H
180.3359375	n/a	46166	responseLargeH	correct	n/a	0.50391	no	n/a	n/a
181.4179688	n/a	46443	largeTSmallH	correct	incongruent	0.50391	no	T	H
181.921875	n/a	46572	responseLargeT	correct	n/a	0.50391	no	n/a	n/a
182.9921875	n/a	46846	largeHSmallH	correct	congruent	0.4375	no	H	H
183.4296875	n/a	46958	responseLargeH	correct	n/a	0.4375	no	n/a	n/a
184.4960938	n/a	47231	largeTSmallT	correct	congruent	0.42969	no	T	T
184.9257812	n/a	47341	responseLargeT	correct	n/a	0.42969	no	n/a	n/a
186.0039062	n/a	47617	largeTSmallH	error	incongruent	0.35156	no	T	H
186.3554688	n/a	47707	responseLargeH	error	n/a	0.35156	no	n/a	n/a
187.4179688	n/a	47979	largeHSmallH	correct	congruent	0.4375	no	H	H
187.8554688	n/a	48091	responseLargeH	correct	n/a	0.4375	no	n/a	n/a
188.9101562	n/a	48361	largeHSmallT	correct	incongruent	0.4375	no	H	T
189.3476562	n/a	48473	responseLargeH	correct	n/a	0.4375	no	n/a	n/a
190.4179688	n/a	48747	largeHSmallT	correct	incongruent	0.47266	no	H	T
190.890625	n/a	48868	responseLargeH	correct	n/a	0.47266	no	n/a	n/a
191.9648438	n/a	49143	largeTSmallH	correct	incongruent	0.53125	no	T	H
192.4960938	n/a	49279	responseLargeT	correct	n/a	0.53125	no	n/a	n/a
193.5625	n/a	49552	largeHSmallH	correct	congruent	0.42188	no	H	H
193.984375	n/a	49660	responseLargeH	correct	n/a	0.42188	no	n/a	n/a
195.0429688	n/a	49931	largeTSmallH	correct	incongruent	0.45703	no	T	H
195.5	n/a	50048	responseLargeT	correct	n/a	0.45703	no	n/a	n/a
196.5625	n/a	50320	largeTSmallT	correct	congruent	0.57422	no	T	T
197.1367188	n/a	50467	responseLargeT	correct	n/a	0.57422	no	n/a	n/a
198.1914062	n/a	50737	largeTSmallT	correct	congruent	0.50391	no	T	T
198.6953125	n/a	50866	responseLargeT	correct	n/a	0.50391	no	n/a	n/a
199.765625	n/a	51140	largeTSmallT	correct	congruent	0.41797	no	T	T
200.1835938	n/a	51247	responseLargeT	correct	n/a	0.41797	no	n/a	n/a
201.2578125	n/a	51522	largeTSmallH	correct	incongruent	0.60156	no	T	H
201.859375	n/a	51676	responseLargeT	correct	n/a	0.60156	no	n/a	n/a
202.921875	n/a	51948	largeHSmallH	correct	congruent	0.46875	no	H	H
203.390625	n/a	52068	responseLargeH	correct	n/a	0.46875	no	n/a	n/a
204.4570312	n/a	52341	largeHSmallT	correct	incongruent	0.48438	no	H	T
204.9414062	n/a	52465	responseLargeH	correct	n/a	0.48438	no	n/a	n/a
206.015625	n/a	52740	largeHSmallT	correct	incongruent	0.71875	no	H	T
206.734375	n/a	52924	responseLargeH	correct	n/a	0.71875	no	n/a	n/a
207.8046875	n/a	53198	largeTSmallH	correct	incongruent	0.54688	no	T	H
208.3515625	n/a	53338	responseLargeT	correct	n/a	0.54688	no	n/a	n/a
209.4179688	n/a	53611	largeHSmallH	correct	congruent	0.52734	no	H	H
209.9453125	n/a	53746	responseLargeH	correct	n/a	0.52734	no	n/a	n/a
211.0039062	n/a	54017	largeTSmallH	correct	incongruent	0.57422	no	T	H
211.578125	n/a	54164	responseLargeT	correct	n/a	0.57422	no	n/a	n/a
212.6445312	n/a	54437	largeTSmallH	correct	incongruent	0.57422	no	T	H
213.21875	n/a	54584	responseLargeT	correct	n/a	0.57422	no	n/a	n/a
214.2851562	n/a	54857	largeHSmallH	correct	congruent	0.4375	no	H	H
214.7226562	n/a	54969	responseLargeH	correct	n/a	0.4375	no	n/a	n/a
215.7890625	n/a	55242	largeHSmallT	correct	incongruent	0.625	no	H	T
216.4140625	n/a	55402	responseLargeH	correct	n/a	0.625	no	n/a	n/a
217.484375	n/a	55676	largeHSmallH	correct	congruent	0.47656	no	H	H
217.9609375	n/a	55798	responseLargeH	correct	n/a	0.47656	no	n/a	n/a
219.03125	n/a	56072	largeTSmallH	correct	incongruent	0.57812	no	T	H
219.609375	n/a	56220	responseLargeT	correct	n/a	0.57812	no	n/a	n/a
220.671875	n/a	56492	largeHSmallT	correct	incongruent	0.55078	no	H	T
221.2226562	n/a	56633	responseLargeH	correct	n/a	0.55078	no	n/a	n/a
222.2851562	n/a	56905	largeTSmallH	correct	incongruent	0.53125	no	T	H
222.8164062	n/a	57041	responseLargeT	correct	n/a	0.53125	no	n/a	n/a
223.8984375	n/a	57318	largeTSmallH	correct	incongruent	0.625	no	T	H
224.5234375	n/a	57478	responseLargeT	correct	n/a	0.625	no	n/a	n/a
225.5898438	n/a	57751	largeTSmallT	correct	congruent	0.40234	no	T	T
225.9921875	n/a	57854	responseLargeT	correct	n/a	0.40234	no	n/a	n/a
227.0546875	n/a	58126	largeTSmallT	correct	congruent	0.44922	no	T	T
227.5039062	n/a	58241	responseLargeT	correct	n/a	0.44922	no	n/a	n/a
228.5625	n/a	58512	largeHSmallT	correct	incongruent	0.53906	no	H	T
229.1015625	n/a	58650	responseLargeH	correct	n/a	0.53906	no	n/a	n/a
230.1640625	n/a	58922	largeTSmallH	correct	incongruent	0.60156	no	T	H
230.765625	n/a	59076	responseLargeT	correct	n/a	0.60156	no	n/a	n/a
231.828125	n/a	59348	largeTSmallH	correct	incongruent	0.57422	no	T	H
232.4023438	n/a	59495	responseLargeT	correct	n/a	0.57422	no	n/a	n/a
233.46875	n/a	59768	largeHSmallT	correct	incongruent	0.50391	no	H	T
233.9726562	n/a	59897	responseLargeH	correct	n/a	0.50391	no	n/a	n/a
235.0429688	n/a	60171	largeTSmallH	correct	incongruent	0.41797	no	T	H
235.4609375	n/a	60278	responseLargeT	correct	n/a	0.41797	no	n/a	n/a
236.5234375	n/a	60550	largeTSmallH	correct	incongruent	0.48438	no	T	H
237.0078125	n/a	60674	responseLargeT	correct	n/a	0.48438	no	n/a	n/a
238.0703125	n/a	60946	largeHSmallT	correct	incongruent	0.44922	no	H	T
238.5195312	n/a	61061	responseLargeH	correct	n/a	0.44922	no	n/a	n/a
239.5898438	n/a	61335	largeTSmallT	correct	congruent	0.53516	no	T	T
240.125	n/a	61472	responseLargeT	correct	n/a	0.53516	no	n/a	n/a
241.1914062	n/a	61745	largeHSmallT	correct	incongruent	0.42969	no	H	T
241.6210938	n/a	61855	responseLargeH	correct	n/a	0.42969	no	n/a	n/a
242.6835938	n/a	62127	largeHSmallH	correct	congruent	0.48047	no	H	H
243.1640625	n/a	62250	responseLargeH	correct	n/a	0.48047	no	n/a	n/a
244.2304688	n/a	62523	largeHSmallH	correct	congruent	0.45703	no	H	H
244.6875	n/a	62640	responseLargeH	correct	n/a	0.45703	no	n/a	n/a
245.7617188	n/a	62915	largeTSmallT	correct	congruent	0.46484	no	T	T
246.2265625	n/a	63034	responseLargeT	correct	n/a	0.46484	no	n/a	n/a
247.296875	n/a	63308	largeHSmallH	correct	congruent	0.40234	no	H	H
247.6992188	n/a	63411	responseLargeH	correct	n/a	0.40234	no	n/a	n/a
248.7773438	n/a	63687	largeTSmallT	correct	congruent	0.50391	no	T	T
249.28125	n/a	63816	responseLargeT	correct	n/a	0.50391	no	n/a	n/a
250.3476562	n/a	64089	largeTSmallT	correct	congruent	0.55078	no	T	T
250.8984375	n/a	64230	responseLargeT	correct	n/a	0.55078	no	n/a	n/a
251.9765625	n/a	64506	largeTSmallT	correct	congruent	0.5625	no	T	T
252.5390625	n/a	64650	responseLargeT	correct	n/a	0.5625	no	n/a	n/a
253.6171875	n/a	64926	largeHSmallT	correct	incongruent	0.44141	no	H	T
254.0585938	n/a	65039	responseLargeH	correct	n/a	0.44141	no	n/a	n/a
255.1210938	n/a	65311	largeTSmallH	correct	incongruent	0.51562	no	T	H
255.6367188	n/a	65443	responseLargeT	correct	n/a	0.51562	no	n/a	n/a
256.6953125	n/a	65714	largeTSmallT	correct	congruent	0.5	no	T	T
257.1953125	n/a	65842	responseLargeT	correct	n/a	0.5	no	n/a	n/a
258.2578125	n/a	66114	largeHSmallT	correct	incongruent	0.41797	no	H	T
258.6757812	n/a	66221	responseLargeH	correct	n/a	0.41797	no	n/a	n/a
259.734375	n/a	66492	largeHSmallH	correct	congruent	0.46094	no	H	H
260.1953125	n/a	66610	responseLargeH	correct	n/a	0.46094	no	n/a	n/a
261.2695312	n/a	66885	largeTSmallT	correct	congruent	0.48047	no	T	T
261.75	n/a	67008	responseLargeT	correct	n/a	0.48047	no	n/a	n/a
262.8164062	n/a	67281	largeTSmallT	correct	congruent	0.53906	no	T	T
263.3554688	n/a	67419	responseLargeT	correct	n/a	0.53906	no	n/a	n/a
264.4140625	n/a	67690	largeHSmallT	correct	incongruent	0.53125	no	H	T
264.9453125	n/a	67826	responseLargeH	correct	n/a	0.53125	no	n/a	n/a
266.015625	n/a	68100	largeHSmallH	correct	congruent	0.57031	no	H	H
266.5859375	n/a	68246	responseLargeH	correct	n/a	0.57031	no	n/a	n/a
267.640625	n/a	68516	largeHSmallH	correct	congruent	0.46875	no	H	H
268.109375	n/a	68636	responseLargeH	correct	n/a	0.46875	no	n/a	n/a
269.1757812	n/a	68909	largeHSmallH	correct	congruent	0.42969	no	H	H
269.6054688	n/a	69019	responseLargeH	correct	n/a	0.42969	no	n/a	n/a
270.6835938	n/a	69295	largeHSmallT	correct	incongruent	0.46484	no	H	T
271.1484375	n/a	69414	responseLargeH	correct	n/a	0.46484	no	n/a	n/a
272.2148438	n/a	69687	largeTSmallT	correct	congruent	0.45312	no	T	T
272.6679688	n/a	69803	responseLargeT	correct	n/a	0.45312	no	n/a	n/a
273.734375	n/a	70076	largeTSmallT	correct	congruent	0.54297	no	T	T
274.2773438	n/a	70215	responseLargeT	correct	n/a	0.54297	no	n/a	n/a
275.3359375	n/a	70486	largeHSmallT	correct	incongruent	0.4375	no	H	T
275.7734375	n/a	70598	responseLargeH	correct	n/a	0.4375	no	n/a	n/a
276.84375	n/a	70872	largeHSmallT	correct	incongruent	0.42969	no	H	T
277.2734375	n/a	70982	responseLargeH	correct	n/a	0.42969	no	n/a	n/a
278.3359375	n/a	71254	largeTSmallH	correct	incongruent	0.48047	no	T	H
278.8164062	n/a	71377	responseLargeT	correct	n/a	0.48047	no	n/a	n/a
279.8828125	n/a	71650	largeTSmallH	correct	incongruent	0.74609	no	T	H
280.6289062	n/a	71841	responseLargeT	correct	n/a	0.74609	no	n/a	n/a
281.6953125	n/a	72114	largeTSmallH	correct	incongruent	0.49609	no	T	H
282.1914062	n/a	72241	responseLargeT	correct	n/a	0.49609	no	n/a	n/a
283.2695312	n/a	72517	largeTSmallH	correct	incongruent	0.48438	no	T	H
283.7539062	n/a	72641	responseLargeT	correct	n/a	0.48438	no	n/a	n/a
284.828125	n/a	72916	largeTSmallH	correct	incongruent	0.44922	no	T	H
285.2773438	n/a	73031	responseLargeT	correct	n/a	0.44922	no	n/a	n/a
286.3359375	n/a	73302	largeHSmallH	correct	congruent	0.50781	no	H	H
286.84375	n/a	73432	responseLargeH	correct	n/a	0.50781	no	n/a	n/a
287.9101562	n/a	73705	largeTSmallT	correct	congruent	0.52734	no	T	T
288.4375	n/a	73840	responseLargeT	correct	n/a	0.52734	no	n/a	n/a
289.5078125	n/a	74114	largeTSmallH	correct	incongruent	0.56641	no	T	H
290.0742188	n/a	74259	responseLargeT	correct	n/a	0.56641	no	n/a	n/a
291.1484375	n/a	74534	largeTSmallH	correct	incongruent	0.47266	no	T	H
291.6210938	n/a	74655	responseLargeT	correct	n/a	0.47266	no	n/a	n/a
292.6835938	n/a	74927	largeHSmallH	correct	congruent	0.47266	no	H	H
293.15625	n/a	75048	responseLargeH	correct	n/a	0.47266	no	n/a	n/a
294.2148438	n/a	75319	largeHSmallT	correct	incongruent	0.76953	no	H	T
294.984375	n/a	75516	responseLargeH	correct	n/a	0.76953	no	n/a	n/a
296.0546875	n/a	75790	largeTSmallT	correct	congruent	0.46094	no	T	T
296.515625	n/a	75908	responseLargeT	correct	n/a	0.46094	no	n/a	n/a
297.5898438	n/a	76183	largeTSmallH	correct	incongruent	0.5	no	T	H
298.0898438	n/a	76311	responseLargeT	correct	n/a	0.5	no	n/a	n/a
299.1601562	n/a	76585	largeTSmallH	correct	incongruent	0.46094	no	T	H
299.6210938	n/a	76703	responseLargeT	correct	n/a	0.46094	no	n/a	n/a
300.6953125	n/a	76978	largeHSmallH	correct	congruent	0.48438	no	H	H
301.1796875	n/a	77102	responseLargeH	correct	n/a	0.48438	no	n/a	n/a
302.2539062	n/a	77377	largeHSmallH	correct	congruent	0.44922	no	H	H
302.703125	n/a	77492	responseLargeH	correct	n/a	0.44922	no	n/a	n/a
303.7617188	n/a	77763	largeHSmallH	correct	congruent	0.42969	no	H	H
304.1914062	n/a	77873	responseLargeH	correct	n/a	0.42969	no	n/a	n/a
305.2539062	n/a	78145	largeTSmallH	correct	incongruent	0.47656	no	T	H
305.7304688	n/a	78267	responseLargeT	correct	n/a	0.47656	no	n/a	n/a
306.8007812	n/a	78541	largeTSmallT	correct	congruent	0.46875	no	T	T
307.2695312	n/a	78661	responseLargeT	correct	n/a	0.46875	no	n/a	n/a
308.3359375	n/a	78934	largeHSmallT	correct	incongruent	0.41016	no	H	T
308.7460938	n/a	79039	responseLargeH	correct	n/a	0.41016	no	n/a	n/a
309.8164062	n/a	79313	largeTSmallH	correct	incongruent	0.48828	no	T	H
310.3046875	n/a	79438	responseLargeT	correct	n/a	0.48828	no	n/a	n/a
311.375	n/a	79712	largeTSmallT	error	congruent	0.32031	no	T	T
311.6953125	n/a	79794	responseLargeH	error	n/a	0.32031	no	n/a	n/a
312.7617188	n/a	80067	largeHSmallH	correct	congruent	0.40625	no	H	H
313.1679688	n/a	80171	responseLargeH	correct	n/a	0.40625	no	n/a	n/a
314.2265625	n/a	80442	largeHSmallH	correct	congruent	0.45312	no	H	H
314.6796875	n/a	80558	responseLargeH	correct	n/a	0.45312	no	n/a	n/a
315.7460938	n/a	80831	largeHSmallH	correct	congruent	0.37891	no	H	H
316.125	n/a	80928	responseLargeH	correct	n/a	0.37891	no	n/a	n/a
317.1875	n/a	81200	largeHSmallT	correct	incongruent	0.46094	no	H	T
317.6484375	n/a	81318	responseLargeH	correct	n/a	0.46094	no	n/a	n/a
318.7226562	n/a	81593	largeTSmallH	correct	incongruent	0.45703	no	T	H
319.1796875	n/a	81710	responseLargeT	correct	n/a	0.45703	no	n/a	n/a
320.2539062	n/a	81985	largeTSmallT	correct	congruent	0.4375	no	T	T
320.6914062	n/a	82097	responseLargeT	correct	n/a	0.4375	no	n/a	n/a
321.7617188	n/a	82371	largeHSmallT	correct	incongruent	0.41016	no	H	T
322.171875	n/a	82476	responseLargeH	correct	n/a	0.41016	no	n/a	n/a
323.2265625	n/a	82746	largeHSmallT	correct	incongruent	0.44531	no	H	T
323.671875	n/a	82860	responseLargeH	correct	n/a	0.44531	no	n/a	n/a
324.7460938	n/a	83135	largeTSmallT	correct	congruent	0.48047	no	T	T
325.2265625	n/a	83258	responseLargeT	correct	n/a	0.48047	no	n/a	n/a
326.2929688	n/a	83531	largeTSmallT	correct	congruent	0.46484	no	T	T
326.7578125	n/a	83650	responseLargeT	correct	n/a	0.46484	no	n/a	n/a
327.8125	n/a	83920	largeHSmallH	correct	congruent	0.44922	no	H	H
328.2617188	n/a	84035	responseLargeH	correct	n/a	0.44922	no	n/a	n/a
336.7890625	n/a	86218	largeTSmallT	correct	congruent	0.52734	no	T	T
337.3164062	n/a	86353	responseSmallT	correct	n/a	0.52734	no	n/a	n/a
338.375	n/a	86624	largeHSmallT	correct	incongruent	0.76172	no	H	T
339.1367188	n/a	86819	responseSmallT	correct	n/a	0.76172	no	n/a	n/a
340.1992188	n/a	87091	largeHSmallT	correct	incongruent	0.49219	no	H	T
340.6914062	n/a	87217	responseSmallT	correct	n/a	0.49219	no	n/a	n/a
341.7460938	n/a	87487	largeHSmallH	correct	congruent	0.47656	no	H	H
342.2226562	n/a	87609	responseSmallH	correct	n/a	0.47656	no	n/a	n/a
343.2929688	n/a	87883	largeHSmallH	correct	congruent	0.44531	no	H	H
343.7382812	n/a	87997	responseSmallH	correct	n/a	0.44531	no	n/a	n/a
344.8125	n/a	88272	largeTSmallT	correct	congruent	0.47656	no	T	T
345.2890625	n/a	88394	responseSmallT	correct	n/a	0.47656	no	n/a	n/a
346.3476562	n/a	88665	largeTSmallH	correct	incongruent	0.68359	no	T	H
347.03125	n/a	88840	responseSmallH	correct	n/a	0.68359	no	n/a	n/a
348.09375	n/a	89112	largeTSmallT	correct	congruent	0.41797	no	T	T
348.5117188	n/a	89219	responseSmallT	correct	n/a	0.41797	no	n/a	n/a
349.5742188	n/a	89491	largeTSmallT	correct	congruent	0.49219	no	T	T
350.0664062	n/a	89617	responseSmallT	correct	n/a	0.49219	no	n/a	n/a
351.1484375	n/a	89894	largeHSmallH	correct	congruent	0.48828	no	H	H
351.6367188	n/a	90019	responseSmallH	correct	n/a	0.48828	no	n/a	n/a
352.6953125	n/a	90290	largeTSmallH	correct	incongruent	0.4375	no	T	H
353.1328125	n/a	90402	responseSmallH	correct	n/a	0.4375	no	n/a	n/a
354.1992188	n/a	90675	largeTSmallT	correct	congruent	0.46094	no	T	T
354.6601562	n/a	90793	responseSmallT	correct	n/a	0.46094	no	n/a	n/a
355.71875	n/a	91064	largeTSmallH	correct	incongruent	0.39844	no	T	H
356.1171875	n/a	91166	responseSmallH	correct	n/a	0.39844	no	n/a	n/a
357.1757812	n/a	91437	largeTSmallH	correct	incongruent	0.48047	no	T	H
357.65625	n/a	91560	responseSmallH	correct	n/a	0.48047	no	n/a	n/a
358.71875	n/a	91832	largeHSmallH	correct	congruent	0.44531	no	H	H
359.1640625	n/a	91946	responseSmallH	correct	n/a	0.44531	no	n/a	n/a
360.2421875	n/a	92222	largeHSmallT	correct	incongruent	0.44922	no	H	T
360.6914062	n/a	92337	responseSmallT	correct	n/a	0.44922	no	n/a	n/a
361.7617188	n/a	92611	largeHSmallT	correct	incongruent	0.49219	no	H	T
362.2539062	n/a	92737	responseSmallT	correct	n/a	0.49219	no	n/a	n/a
363.3203125	n/a	93010	largeTSmallT	correct	congruent	0.49219	no	T	T
363.8125	n/a	93136	responseSmallT	correct	n/a	0.49219	no	n/a	n/a
364.8789062	n/a	93409	largeHSmallT	correct	incongruent	0.48047	no	H	T
365.359375	n/a	93532	responseSmallT	correct	n/a	0.48047	no	n/a	n/a
366.4257812	n/a	93805	largeTSmallH	correct	incongruent	0.5	no	T	H
366.9257812	n/a	93933	responseSmallH	correct	n/a	0.5	no	n/a	n/a
367.9882812	n/a	94205	largeHSmallT	correct	incongruent	0.62109	no	H	T
368.609375	n/a	94364	responseSmallT	correct	n/a	0.62109	no	n/a	n/a
369.6679688	n/a	94635	largeHSmallT	correct	incongruent	0.48828	no	H	T
370.15625	n/a	94760	responseSmallT	correct	n/a	0.48828	no	n/a	n/a
371.2148438	n/a	95031	largeTSmallH	correct	incongruent	0.44141	no	T	H
371.65625	n/a	95144	responseSmallH	correct	n/a	0.44141	no	n/a	n/a
372.734375	n/a	95420	largeHSmallH	correct	congruent	0.53906	no	H	H
373.2734375	n/a	95558	responseSmallH	correct	n/a	0.53906	no	n/a	n/a
374.3320312	n/a	95829	largeTSmallH	correct	incongruent	0.4375	no	T	H
374.7695312	n/a	95941	responseSmallH	correct	n/a	0.4375	no	n/a	n/a
375.8398438	n/a	96215	largeTSmallT	correct	congruent	0.46484	no	T	T
376.3046875	n/a	96334	responseSmallT	correct	n/a	0.46484	no	n/a	n/a
377.3867188	n/a	96611	largeHSmallH	correct	congruent	0.46094	no	H	H
377.8476562	n/a	96729	responseSmallH	correct	n/a	0.46094	no	n/a	n/a
378.90625	n/a	97000	largeHSmallH	correct	congruent	0.40234	no	H	H
379.3085938	n/a	97103	responseSmallH	correct	n/a	0.40234	no	n/a	n/a
380.375	n/a	97376	largeTSmallT	correct	congruent	0.44141	no	T	T
380.8164062	n/a	97489	responseSmallT	correct	n/a	0.44141	no	n/a	n/a
381.8945312	n/a	97765	largeHSmallH	correct	congruent	0.42969	no	H	H
382.3242188	n/a	97875	responseSmallH	correct	n/a	0.42969	no	n/a	n/a
383.3867188	n/a	98147	largeHSmallH	correct	congruent	0.39062	no	H	H
383.7773438	n/a	98247	responseSmallH	correct	n/a	0.39062	no	n/a	n/a
384.8515625	n/a	98522	largeHSmallH	correct	congruent	0.40234	no	H	H
385.2539062	n/a	98625	responseSmallH	correct	n/a	0.40234	no	n/a	n/a
386.3203125	n/a	98898	largeTSmallT	correct	congruent	0.46875	no	T	T
386.7890625	n/a	99018	responseSmallT	correct	n/a	0.46875	no	n/a	n/a
387.8671875	n/a	99294	largeTSmallT	correct	congruent	0.45703	no	T	T
388.3242188	n/a	99411	responseSmallT	correct	n/a	0.45703	no	n/a	n/a
389.3867188	n/a	99683	largeTSmallT	correct	congruent	0.42188	no	T	T
389.8085938	n/a	99791	responseSmallT	correct	n/a	0.42188	no	n/a	n/a
390.8789062	n/a	100065	largeHSmallT	correct	incongruent	0.54688	no	H	T
391.4257812	n/a	100205	responseSmallT	correct	n/a	0.54688	no	n/a	n/a
392.4921875	n/a	100478	largeTSmallH	correct	incongruent	0.50781	no	T	H
393	n/a	100608	responseSmallH	correct	n/a	0.50781	no	n/a	n/a
394.0664062	n/a	100881	largeHSmallT	correct	incongruent	0.48438	no	H	T
394.5507812	n/a	101005	responseSmallT	correct	n/a	0.48438	no	n/a	n/a
395.6132812	n/a	101277	largeTSmallH	correct	incongruent	0.32422	no	T	H
395.9375	n/a	101360	responseSmallH	correct	n/a	0.32422	no	n/a	n/a
397	n/a	101632	largeTSmallH	correct	incongruent	0.39844	no	T	H
397.3984375	n/a	101734	responseSmallH	correct	n/a	0.39844	no	n/a	n/a
398.4648438	n/a	102007	largeHSmallT	correct	incongruent	0.41016	no	H	T
398.875	n/a	102112	responseSmallT	correct	n/a	0.41016	no	n/a	n/a
399.9453125	n/a	102386	largeHSmallT	correct	incongruent	0.47656	no	H	T
400.421875	n/a	102508	responseSmallT	correct	n/a	0.47656	no	n/a	n/a
401.4921875	n/a	102782	largeHSmallH	correct	congruent	0.41406	no	H	H
401.90625	n/a	102888	responseSmallH	correct	n/a	0.41406	no	n/a	n/a
402.984375	n/a	103164	largeHSmallH	correct	congruent	0.45312	no	H	H
403.4375	n/a	103280	responseSmallH	correct	n/a	0.45312	no	n/a	n/a
404.5078125	n/a	103554	largeHSmallT	correct	incongruent	0.38281	no	H	T
404.890625	n/a	103652	responseSmallT	correct	n/a	0.38281	no	n/a	n/a
405.9609375	n/a	103926	largeHSmallT	correct	incongruent	0.51953	no	H	T
406.4804688	n/a	104059	responseSmallT	correct	n/a	0.51953	no	n/a	n/a
407.546875	n/a	104332	largeTSmallH	correct	incongruent	0.375	no	T	H
407.921875	n/a	104428	responseSmallH	correct	n/a	0.375	no	n/a	n/a
408.984375	n/a	104700	largeHSmallT	correct	incongruent	0.50391	no	H	T
409.4882812	n/a	104829	responseSmallT	correct	n/a	0.50391	no	n/a	n/a
410.5585938	n/a	105103	largeTSmallH	correct	incongruent	0.39453	no	T	H
410.953125	n/a	105204	responseSmallH	correct	n/a	0.39453	no	n/a	n/a
412.0117188	n/a	105475	largeTSmallT	correct	congruent	0.38672	no	T	T
412.3984375	n/a	105574	responseSmallT	correct	n/a	0.38672	no	n/a	n/a
413.4648438	n/a	105847	largeTSmallT	correct	congruent	0.45312	no	T	T
413.9179688	n/a	105963	responseSmallT	correct	n/a	0.45312	no	n/a	n/a
414.984375	n/a	106236	largeTSmallH	correct	incongruent	0.37891	no	T	H
415.3632812	n/a	106333	responseSmallH	correct	n/a	0.37891	no	n/a	n/a
416.4257812	n/a	106605	largeHSmallH	correct	congruent	0.42969	no	H	H
416.8554688	n/a	106715	responseSmallH	correct	n/a	0.42969	no	n/a	n/a
417.9179688	n/a	106987	largeTSmallH	correct	incongruent	0.39844	no	T	H
418.3164062	n/a	107089	responseSmallH	correct	n/a	0.39844	no	n/a	n/a
419.3867188	n/a	107363	largeHSmallT	correct	incongruent	0.48438	no	H	T
419.8710938	n/a	107487	responseSmallT	correct	n/a	0.48438	no	n/a	n/a
420.9335938	n/a	107759	largeTSmallT	correct	congruent	0.44922	no	T	T
421.3828125	n/a	107874	responseSmallT	correct	n/a	0.44922	no	n/a	n/a
422.453125	n/a	108148	largeHSmallH	correct	congruent	0.39453	no	H	H
422.8476562	n/a	108249	responseSmallH	correct	n/a	0.39453	no	n/a	n/a
423.9179688	n/a	108523	largeTSmallH	correct	incongruent	0.47266	no	T	H
424.390625	n/a	108644	responseSmallH	correct	n/a	0.47266	no	n/a	n/a
425.4648438	n/a	108919	largeTSmallT	correct	congruent	0.47266	no	T	T
425.9375	n/a	109040	responseSmallT	correct	n/a	0.47266	no	n/a	n/a
427	n/a	109312	largeTSmallH	correct	incongruent	0.40234	no	T	H
427.4023438	n/a	109415	responseSmallH	correct	n/a	0.40234	no	n/a	n/a
428.4648438	n/a	109687	largeHSmallH	correct	congruent	0.47656	no	H	H
428.9414062	n/a	109809	responseSmallH	correct	n/a	0.47656	no	n/a	n/a
430.0117188	n/a	110083	largeHSmallH	correct	congruent	0.42578	no	H	H
430.4375	n/a	110192	responseSmallH	correct	n/a	0.42578	no	n/a	n/a
431.4921875	n/a	110462	largeHSmallT	correct	incongruent	0.46094	no	H	T
431.953125	n/a	110580	responseSmallT	correct	n/a	0.46094	no	n/a	n/a
433.0273438	n/a	110855	largeTSmallH	correct	incongruent	0.42578	no	T	H
433.453125	n/a	110964	responseSmallH	correct	n/a	0.42578	no	n/a	n/a
434.5195312	n/a	111237	largeHSmallH	correct	congruent	0.44922	no	H	H
434.96875	n/a	111352	responseSmallH	correct	n/a	0.44922	no	n/a	n/a
436.0390625	n/a	111626	largeHSmallH	correct	congruent	0.42188	no	H	H
436.4609375	n/a	111734	responseSmallH	correct	n/a	0.42188	no	n/a	n/a
437.53125	n/a	112008	largeHSmallH	correct	congruent	0.38672	no	H	H
437.9179688	n/a	112107	responseSmallH	correct	n/a	0.38672	no	n/a	n/a
438.984375	n/a	112380	largeHSmallT	correct	incongruent	0.52344	no	H	T
439.5078125	n/a	112514	responseSmallT	correct	n/a	0.52344	no	n/a	n/a
440.5703125	n/a	112786	largeHSmallT	correct	incongruent	0.46875	no	H	T
441.0390625	n/a	112906	responseSmallT	correct	n/a	0.46875	no	n/a	n/a
442.1054688	n/a	113179	largeHSmallT	correct	incongruent	0.40625	no	H	T
442.5117188	n/a	113283	responseSmallT	correct	n/a	0.40625	no	n/a	n/a
443.5859375	n/a	113558	largeTSmallH	correct	incongruent	0.50781	no	T	H
444.09375	n/a	113688	responseSmallH	correct	n/a	0.50781	no	n/a	n/a
445.1601562	n/a	113961	largeTSmallT	correct	congruent	0.47656	no	T	T
445.6367188	n/a	114083	responseSmallT	correct	n/a	0.47656	no	n/a	n/a
446.7070312	n/a	114357	largeHSmallH	correct	congruent	0.35938	no	H	H
447.0664062	n/a	114449	responseSmallH	correct	n/a	0.35938	no	n/a	n/a
448.1328125	n/a	114722	largeTSmallT	correct	congruent	0.47656	no	T	T
448.609375	n/a	114844	responseSmallT	correct	n/a	0.47656	no	n/a	n/a
449.6640625	n/a	115114	largeTSmallH	correct	incongruent	0.36328	no	T	H
450.0273438	n/a	115207	responseSmallH	correct	n/a	0.36328	no	n/a	n/a
451.0898438	n/a	115479	largeTSmallH	correct	incongruent	0.44141	no	T	H
451.53125	n/a	115592	responseSmallH	correct	n/a	0.44141	no	n/a	n/a
452.5976562	n/a	115865	largeHSmallH	correct	congruent	0.42578	no	H	H
453.0234375	n/a	115974	responseSmallH	correct	n/a	0.42578	no	n/a	n/a
454.0898438	n/a	116247	largeTSmallT	correct	congruent	0.44531	no	T	T
454.5351562	n/a	116361	responseSmallT	correct	n/a	0.44531	no	n/a	n/a
455.5976562	n/a	116633	largeHSmallT	correct	incongruent	0.60938	no	H	T
456.2070312	n/a	116789	responseSmallT	correct	n/a	0.60938	no	n/a	n/a
457.265625	n/a	117060	largeHSmallH	correct	congruent	0.43359	no	H	H
457.6992188	n/a	117171	responseSmallH	correct	n/a	0.43359	no	n/a	n/a
458.7734375	n/a	117446	largeTSmallH	correct	incongruent	0.42578	no	T	H
459.1992188	n/a	117555	responseSmallH	correct	n/a	0.42578	no	n/a	n/a
460.265625	n/a	117828	largeTSmallT	correct	congruent	0.51172	no	T	T
460.7773438	n/a	117959	responseSmallT	correct	n/a	0.51172	no	n/a	n/a
461.8398438	n/a	118231	largeTSmallH	correct	incongruent	0.36719	no	T	H
462.2070312	n/a	118325	responseSmallH	correct	n/a	0.36719	no	n/a	n/a
463.2773438	n/a	118599	largeTSmallT	correct	congruent	0.39844	no	T	T
463.6757812	n/a	118701	responseSmallT	correct	n/a	0.39844	no	n/a	n/a
464.7460938	n/a	118975	largeTSmallT	correct	congruent	0.44531	no	T	T
465.1914062	n/a	119089	responseSmallT	correct	n/a	0.44531	no	n/a	n/a
466.25	n/a	119360	largeTSmallH	correct	incongruent	0.47266	no	T	H
466.7226562	n/a	119481	responseSmallH	correct	n/a	0.47266	no	n/a	n/a
467.796875	n/a	119756	largeTSmallH	correct	incongruent	0.45703	no	T	H
468.2539062	n/a	119873	responseSmallH	correct	n/a	0.45703	no	n/a	n/a
469.3320312	n/a	120149	largeTSmallT	correct	congruent	0.44531	no	T	T
469.7773438	n/a	120263	responseSmallT	correct	n/a	0.44531	no	n/a	n/a
470.8398438	n/a	120535	largeHSmallT	correct	incongruent	0.52344	no	H	T
471.3632812	n/a	120669	responseSmallT	correct	n/a	0.52344	no	n/a	n/a
472.4257812	n/a	120941	largeHSmallH	correct	congruent	0.40234	no	H	H
472.828125	n/a	121044	responseSmallH	correct	n/a	0.40234	no	n/a	n/a
473.90625	n/a	121320	largeHSmallH	correct	congruent	0.46875	no	H	H
474.375	n/a	121440	responseSmallH	correct	n/a	0.46875	no	n/a	n/a
475.4375	n/a	121712	largeHSmallH	correct	congruent	0.45703	no	H	H
475.8945312	n/a	121829	responseSmallH	correct	n/a	0.45703	no	n/a	n/a
476.9570312	n/a	122101	largeTSmallT	correct	congruent	0.49609	no	T	T
477.453125	n/a	122228	responseSmallT	correct	n/a	0.49609	no	n/a	n/a
478.5195312	n/a	122501	largeTSmallH	correct	incongruent	0.56641	no	T	H
479.0859375	n/a	122646	responseSmallH	correct	n/a	0.56641	no	n/a	n/a
480.15625	n/a	122920	largeHSmallT	correct	incongruent	0.44531	no	H	T
480.6015625	n/a	123034	responseSmallT	correct	n/a	0.44531	no	n/a	n/a
481.6640625	n/a	123306	largeTSmallH	correct	incongruent	0.41797	no	T	H
482.0820312	n/a	123413	responseSmallH	correct	n/a	0.41797	no	n/a	n/a
483.1445312	n/a	123685	largeTSmallT	correct	congruent	0.44922	no	T	T
483.59375	n/a	123800	responseSmallT	correct	n/a	0.44922	no	n/a	n/a
484.6640625	n/a	124074	largeHSmallH	correct	congruent	0.39062	no	H	H
485.0546875	n/a	124174	responseSmallH	correct	n/a	0.39062	no	n/a	n/a
486.1328125	n/a	124450	largeTSmallT	correct	congruent	0.46484	no	T	T
486.5976562	n/a	124569	responseSmallT	correct	n/a	0.46484	no	n/a	n/a
487.6523438	n/a	124839	largeHSmallH	correct	congruent	0.34375	no	H	H
487.9960938	n/a	124927	responseSmallH	correct	n/a	0.34375	no	n/a	n/a
489.0625	n/a	125200	largeHSmallT	correct	incongruent	0.39453	no	H	T
489.4570312	n/a	125301	responseSmallT	correct	n/a	0.39453	no	n/a	n/a
490.53125	n/a	125576	largeHSmallT	error	incongruent	0.42969	no	H	T
490.9609375	n/a	125686	responseSmallH	error	n/a	0.42969	no	n/a	n/a
492.0234375	n/a	125958	largeTSmallT	correct	congruent	0.46484	no	T	T
492.4882812	n/a	126077	responseSmallT	correct	n/a	0.46484	no	n/a	n/a
493.5585938	n/a	126351	largeHSmallH	correct	congruent	0.45312	no	H	H
494.0117188	n/a	126467	responseSmallH	correct	n/a	0.45312	no	n/a	n/a
495.078125	n/a	126740	largeHSmallH	correct	congruent	0.47656	no	H	H
495.5546875	n/a	126862	responseSmallH	correct	n/a	0.47656	no	n/a	n/a
496.625	n/a	127136	largeHSmallT	correct	incongruent	0.39453	no	H	T
497.0195312	n/a	127237	responseSmallT	correct	n/a	0.39453	no	n/a	n/a
498.0898438	n/a	127511	largeTSmallH	correct	incongruent	0.45703	no	T	H
498.546875	n/a	127628	responseSmallH	correct	n/a	0.45703	no	n/a	n/a
499.609375	n/a	127900	largeHSmallH	correct	congruent	0.44922	no	H	H
500.0585938	n/a	128015	responseSmallH	correct	n/a	0.44922	no	n/a	n/a
501.1171875	n/a	128286	largeTSmallT	correct	congruent	0.41016	no	T	T
501.5273438	n/a	128391	responseSmallT	correct	n/a	0.41016	no	n/a	n/a
502.5976562	n/a	128665	largeTSmallT	correct	congruent	0.44141	no	T	T
503.0390625	n/a	128778	responseSmallT	correct	n/a	0.44141	no	n/a	n/a
504.0898438	n/a	129047	largeTSmallH	correct	incongruent	0.55859	no	T	H
504.6484375	n/a	129190	responseSmallH	correct	n/a	0.55859	no	n/a	n/a
505.71875	n/a	129464	largeHSmallT	correct	incongruent	0.41406	no	H	T
506.1328125	n/a	129570	responseSmallT	correct	n/a	0.41406	no	n/a	n/a
507.1953125	n/a	129842	largeHSmallH	correct	congruent	0.45703	no	H	H
507.6523438	n/a	129959	responseSmallH	correct	n/a	0.45703	no	n/a	n/a
508.71875	n/a	130232	largeTSmallH	correct	incongruent	0.52344	no	T	H
509.2421875	n/a	130366	responseSmallH	correct	n/a	0.52344	no	n/a	n/a
510.3046875	n/a	130638	largeHSmallT	correct	incongruent	0.50391	no	H	T
510.8085938	n/a	130767	responseSmallT	correct	n/a	0.50391	no	n/a	n/a
511.8632812	n/a	131037	largeHSmallT	correct	incongruent	0.54688	no	H	T
512.4101562	n/a	131177	responseSmallT	correct	n/a	0.54688	no	n/a	n/a
513.4765625	n/a	131450	largeHSmallT	correct	incongruent	0.50391	no	H	T
513.9804688	n/a	131579	responseSmallT	correct	n/a	0.50391	no	n/a	n/a
515.0507812	n/a	131853	largeTSmallH	correct	incongruent	0.48047	no	T	H
515.53125	n/a	131976	responseSmallH	correct	n/a	0.48047	no	n/a	n/a
516.5976562	n/a	132249	largeHSmallT	correct	incongruent	0.57422	no	H	T
517.171875	n/a	132396	responseSmallT	correct	n/a	0.57422	no	n/a	n/a
518.2382812	n/a	132669	largeHSmallT	correct	incongruent	0.50781	no	H	T
518.7460938	n/a	132799	responseSmallT	correct	n/a	0.50781	no	n/a	n/a
519.8085938	n/a	133071	largeTSmallH	correct	incongruent	0.48828	no	T	H
520.296875	n/a	133196	responseSmallH	correct	n/a	0.48828	no	n/a	n/a
521.3710938	n/a	133471	largeHSmallT	correct	incongruent	0.53516	no	H	T
521.90625	n/a	133608	responseSmallT	correct	n/a	0.53516	no	n/a	n/a
522.96875	n/a	133880	largeTSmallH	correct	incongruent	0.39062	no	T	H
523.359375	n/a	133980	responseSmallH	correct	n/a	0.39062	no	n/a	n/a
524.421875	n/a	134252	largeTSmallH	correct	incongruent	0.43359	no	T	H
524.8554688	n/a	134363	responseSmallH	correct	n/a	0.43359	no	n/a	n/a
525.9296875	n/a	134638	largeHSmallT	correct	incongruent	0.53516	no	H	T
526.4648438	n/a	134775	responseSmallT	correct	n/a	0.53516	no	n/a	n/a
527.53125	n/a	135048	largeHSmallH	correct	congruent	0.51172	no	H	H
528.0429688	n/a	135179	responseSmallH	correct	n/a	0.51172	no	n/a	n/a
529.1015625	n/a	135450	largeHSmallH	correct	congruent	0.49219	no	H	H
529.59375	n/a	135576	responseSmallH	correct	n/a	0.49219	no	n/a	n/a
530.6640625	n/a	135850	largeTSmallH	correct	incongruent	0.46094	no	T	H
531.125	n/a	135968	responseSmallH	correct	n/a	0.46094	no	n/a	n/a
532.1953125	n/a	136242	largeTSmallT	correct	congruent	0.51172	no	T	T
532.7070312	n/a	136373	responseSmallT	correct	n/a	0.51172	no	n/a	n/a
533.7695312	n/a	136645	largeTSmallH	correct	incongruent	0.47656	no	T	H
534.2460938	n/a	136767	responseSmallH	correct	n/a	0.47656	no	n/a	n/a
535.3164062	n/a	137041	largeHSmallT	correct	incongruent	0.47266	no	H	T
535.7890625	n/a	137162	responseSmallT	correct	n/a	0.47266	no	n/a	n/a
536.8632812	n/a	137437	largeHSmallT	correct	incongruent	0.5	no	H	T
537.3632812	n/a	137565	responseSmallT	correct	n/a	0.5	no	n/a	n/a
538.4375	n/a	137840	largeHSmallH	correct	congruent	0.45703	no	H	H
538.8945312	n/a	137957	responseSmallH	correct	n/a	0.45703	no	n/a	n/a
539.96875	n/a	138232	largeTSmallT	correct	congruent	0.42188	no	T	T
540.390625	n/a	138340	responseSmallT	correct	n/a	0.42188	no	n/a	n/a
541.4648438	n/a	138615	largeTSmallT	correct	congruent	0.46094	no	T	T
541.9257812	n/a	138733	responseSmallT	correct	n/a	0.46094	no	n/a	n/a
542.9960938	n/a	139007	largeTSmallH	correct	incongruent	0.50781	no	T	H
543.5039062	n/a	139137	responseSmallH	correct	n/a	0.50781	no	n/a	n/a
544.5703125	n/a	139410	largeTSmallT	correct	congruent	0.51172	no	T	T
545.0820312	n/a	139541	responseSmallT	correct	n/a	0.51172	no	n/a	n/a
546.1445312	n/a	139813	largeTSmallT	correct	congruent	0.48828	no	T	T
546.6328125	n/a	139938	responseSmallT	correct	n/a	0.48828	no	n/a	n/a
547.703125	n/a	140212	largeHSmallT	correct	incongruent	0.875	no	H	T
548.578125	n/a	140436	responseSmallT	correct	n/a	0.875	no	n/a	n/a
549.6484375	n/a	140710	largeTSmallT	correct	congruent	0.59766	no	T	T
550.2460938	n/a	140863	responseSmallT	correct	n/a	0.59766	no	n/a	n/a
551.3046875	n/a	141134	largeTSmallT	correct	congruent	0.49609	no	T	T
551.8007812	n/a	141261	responseSmallT	correct	n/a	0.49609	no	n/a	n/a
552.8632812	n/a	141533	largeTSmallH	correct	incongruent	0.70312	no	T	H
553.5664062	n/a	141713	responseSmallH	correct	n/a	0.70312	no	n/a	n/a
554.6210938	n/a	141983	largeTSmallH	correct	incongruent	0.46094	no	T	H
555.0820312	n/a	142101	responseSmallH	correct	n/a	0.46094	no	n/a	n/a
556.15625	n/a	142376	largeTSmallH	correct	incongruent	0.44141	no	T	H
556.5976562	n/a	142489	responseSmallH	correct	n/a	0.44141	no	n/a	n/a
557.6757812	n/a	142765	largeHSmallT	correct	incongruent	0.52734	no	H	T
558.203125	n/a	142900	responseSmallT	correct	n/a	0.52734	no	n/a	n/a
559.2773438	n/a	143175	largeTSmallH	correct	incongruent	0.51953	no	T	H
559.796875	n/a	143308	responseSmallH	correct	n/a	0.51953	no	n/a	n/a
560.8632812	n/a	143581	largeTSmallT	correct	congruent	0.42188	no	T	T
561.2851562	n/a	143689	responseSmallT	correct	n/a	0.42188	no	n/a	n/a
562.3554688	n/a	143963	largeHSmallH	correct	congruent	0.4375	no	H	H
562.7929688	n/a	144075	responseSmallH	correct	n/a	0.4375	no	n/a	n/a
563.8632812	n/a	144349	largeHSmallT	correct	incongruent	0.42969	no	H	T
564.2929688	n/a	144459	responseSmallT	correct	n/a	0.42969	no	n/a	n/a
565.3554688	n/a	144731	largeTSmallH	correct	incongruent	0.44922	no	T	H
565.8046875	n/a	144846	responseSmallH	correct	n/a	0.44922	no	n/a	n/a
566.875	n/a	145120	largeTSmallT	correct	congruent	0.50781	no	T	T
567.3828125	n/a	145250	responseSmallT	correct	n/a	0.50781	no	n/a	n/a
568.4492188	n/a	145523	largeHSmallT	correct	incongruent	0.51172	no	H	T
568.9609375	n/a	145654	responseSmallT	correct	n/a	0.51172	no	n/a	n/a
570.0234375	n/a	145926	largeHSmallT	correct	incongruent	0.45312	no	H	T
570.4765625	n/a	146042	responseSmallT	correct	n/a	0.45312	no	n/a	n/a
571.5429688	n/a	146315	largeTSmallT	correct	congruent	0.46094	no	T	T
572.0039062	n/a	146433	responseSmallT	correct	n/a	0.46094	no	n/a	n/a
573.0625	n/a	146704	largeTSmallH	correct	incongruent	0.5625	no	T	H
573.625	n/a	146848	responseSmallH	correct	n/a	0.5625	no	n/a	n/a
574.6875	n/a	147120	largeTSmallT	correct	congruent	0.49219	no	T	T
575.1796875	n/a	147246	responseSmallT	correct	n/a	0.49219	no	n/a	n/a
576.25	n/a	147520	largeHSmallH	correct	congruent	0.50781	no	H	H
576.7578125	n/a	147650	responseSmallH	correct	n/a	0.50781	no	n/a	n/a
577.8242188	n/a	147923	largeHSmallT	correct	incongruent	0.60547	no	H	T
578.4296875	n/a	148078	responseSmallT	correct	n/a	0.60547	no	n/a	n/a
579.4882812	n/a	148349	largeHSmallT	correct	incongruent	0.45703	no	H	T
579.9453125	n/a	148466	responseSmallT	correct	n/a	0.45703	no	n/a	n/a
581.0078125	n/a	148738	largeTSmallH	correct	incongruent	0.48828	no	T	H
581.4960938	n/a	148863	responseSmallH	correct	n/a	0.48828	no	n/a	n/a
582.5703125	n/a	149138	largeTSmallT	correct	congruent	0.36719	no	T	T
582.9375	n/a	149232	responseSmallT	correct	n/a	0.36719	no	n/a	n/a
584.0078125	n/a	149506	largeHSmallH	correct	congruent	0.47656	no	H	H
584.484375	n/a	149628	responseSmallH	correct	n/a	0.47656	no	n/a	n/a
585.5429688	n/a	149899	largeHSmallT	correct	incongruent	0.48047	no	H	T
586.0234375	n/a	150022	responseSmallT	correct	n/a	0.48047	no	n/a	n/a
587.0898438	n/a	150295	largeTSmallH	correct	incongruent	0.51172	no	T	H
587.6015625	n/a	150426	responseSmallH	correct	n/a	0.51172	no	n/a	n/a
588.6601562	n/a	150697	largeTSmallT	correct	congruent	0.44531	no	T	T
589.1054688	n/a	150811	responseSmallT	correct	n/a	0.44531	no	n/a	n/a
590.1679688	n/a	151083	largeHSmallH	correct	congruent	0.42969	no	H	H
590.5976562	n/a	151193	responseSmallH	correct	n/a	0.42969	no	n/a	n/a
591.6601562	n/a	151465	largeHSmallH	correct	congruent	0.45312	no	H	H
592.1132812	n/a	151581	responseSmallH	correct	n/a	0.45312	no	n/a	n/a
593.1835938	n/a	151855	largeHSmallT	correct	incongruent	0.55078	no	H	T
593.734375	n/a	151996	responseSmallT	correct	n/a	0.55078	no	n/a	n/a
594.796875	n/a	152268	largeHSmallT	correct	incongruent	0.62891	no	H	T
595.4257812	n/a	152429	responseSmallT	correct	n/a	0.62891	no	n/a	n/a
596.5039062	n/a	152705	largeHSmallT	correct	incongruent	0.52344	no	H	T
597.0273438	n/a	152839	responseSmallT	correct	n/a	0.52344	no	n/a	n/a
598.0898438	n/a	153111	largeHSmallH	correct	congruent	0.50781	no	H	H
598.5976562	n/a	153241	responseSmallH	correct	n/a	0.50781	no	n/a	n/a
599.6601562	n/a	153513	largeTSmallH	correct	incongruent	0.51953	no	T	H
600.1796875	n/a	153646	responseSmallH	correct	n/a	0.51953	no	n/a	n/a
601.234375	n/a	153916	largeHSmallH	correct	congruent	0.43359	no	H	H
601.6679688	n/a	154027	responseSmallH	correct	n/a	0.43359	no	n/a	n/a
602.7421875	n/a	154302	largeTSmallH	correct	incongruent	0.52734	no	T	H
603.2695312	n/a	154437	responseSmallH	correct	n/a	0.52734	no	n/a	n/a
604.328125	n/a	154708	largeTSmallT	correct	congruent	0.47266	no	T	T
604.8007812	n/a	154829	responseSmallT	correct	n/a	0.47266	no	n/a	n/a
605.875	n/a	155104	largeTSmallT	correct	congruent	0.47656	no	T	T
606.3515625	n/a	155226	responseSmallT	correct	n/a	0.47656	no	n/a	n/a
607.421875	n/a	155500	largeHSmallT	correct	incongruent	0.62109	no	H	T
608.0429688	n/a	155659	responseSmallT	correct	n/a	0.62109	no	n/a	n/a
609.1015625	n/a	155930	largeHSmallT	correct	incongruent	0.46875	no	H	T
609.5703125	n/a	156050	responseSmallT	correct	n/a	0.46875	no	n/a	n/a
610.6367188	n/a	156323	largeHSmallH	correct	congruent	0.52734	no	H	H
611.1640625	n/a	156458	responseSmallH	correct	n/a	0.52734	no	n/a	n/a
612.2226562	n/a	156729	largeTSmallT	correct	congruent	0.47656	no	T	T
612.6992188	n/a	156851	responseSmallT	correct	n/a	0.47656	no	n/a	n/a
613.7695312	n/a	157125	largeHSmallH	correct	congruent	0.44531	no	H	H
614.2148438	n/a	157239	responseSmallH	correct	n/a	0.44531	no	n/a	n/a
615.2734375	n/a	157510	largeHSmallH	correct	congruent	0.42188	no	H	H
615.6953125	n/a	157618	responseSmallH	correct	n/a	0.42188	no	n/a	n/a
616.7695312	n/a	157893	largeTSmallT	correct	congruent	0.47266	no	T	T
617.2421875	n/a	158014	responseSmallT	correct	n/a	0.47266	no	n/a	n/a
618.3164062	n/a	158289	largeHSmallT	correct	incongruent	0.48438	no	H	T
618.8007812	n/a	158413	responseSmallT	correct	n/a	0.48438	no	n/a	n/a
619.875	n/a	158688	largeTSmallT	correct	congruent	0.43359	no	T	T
620.3085938	n/a	158799	responseSmallT	correct	n/a	0.43359	no	n/a	n/a
621.3828125	n/a	159074	largeTSmallT	correct	congruent	0.42188	no	T	T
621.8046875	n/a	159182	responseSmallT	correct	n/a	0.42188	no	n/a	n/a
622.875	n/a	159456	largeHSmallH	correct	congruent	0.55859	no	H	H
623.4335938	n/a	159599	responseSmallH	correct	n/a	0.55859	no	n/a	n/a
624.5	n/a	159872	largeHSmallH	correct	congruent	0.48828	no	H	H
624.9882812	n/a	159997	responseSmallH	correct	n/a	0.48828	no	n/a	n/a
626.0625	n/a	160272	largeTSmallH	correct	incongruent	0.47656	no	T	H
626.5390625	n/a	160394	responseSmallH	correct	n/a	0.47656	no	n/a	n/a
627.609375	n/a	160668	largeHSmallH	correct	congruent	0.5	no	H	H
628.109375	n/a	160796	responseSmallH	correct	n/a	0.5	no	n/a	n/a
629.1796875	n/a	161070	largeTSmallT	correct	congruent	0.46094	no	T	T
629.640625	n/a	161188	responseSmallT	correct	n/a	0.46094	no	n/a	n/a
630.7148438	n/a	161463	largeTSmallT	correct	congruent	0.51562	no	T	T
631.2304688	n/a	161595	responseSmallT	correct	n/a	0.51562	no	n/a	n/a
632.3007812	n/a	161869	largeTSmallH	correct	incongruent	0.48047	no	T	H
632.78125	n/a	161992	responseSmallH	correct	n/a	0.48047	no	n/a	n/a
633.8476562	n/a	162265	largeHSmallT	correct	incongruent	0.40234	no	H	T
634.25	n/a	162368	responseSmallT	correct	n/a	0.40234	no	n/a	n/a
635.3164062	n/a	162641	largeTSmallH	correct	incongruent	0.42578	no	T	H
635.7421875	n/a	162750	responseSmallH	correct	n/a	0.42578	no	n/a	n/a
636.8085938	n/a	163023	largeTSmallT	correct	congruent	0.45312	no	T	T
637.2617188	n/a	163139	responseSmallT	correct	n/a	0.45312	no	n/a	n/a
638.3398438	n/a	163415	largeHSmallH	correct	congruent	0.44531	no	H	H
638.7851562	n/a	163529	responseSmallH	correct	n/a	0.44531	no	n/a	n/a
639.8476562	n/a	163801	largeTSmallH	correct	incongruent	0.51562	no	T	H
640.3632812	n/a	163933	responseSmallH	correct	n/a	0.51562	no	n/a	n/a
641.4335938	n/a	164207	largeHSmallH	correct	congruent	0.45703	no	H	H
641.890625	n/a	164324	responseSmallH	correct	n/a	0.45703	no	n/a	n/a
642.953125	n/a	164596	largeHSmallH	correct	congruent	0.41406	no	H	H
643.3671875	n/a	164702	responseSmallH	correct	n/a	0.41406	no	n/a	n/a
651.0351562	n/a	166665	largeTSmallT	correct	congruent	0.51953	no	T	T
651.5546875	n/a	166798	responseLargeT	correct	n/a	0.51953	no	n/a	n/a
652.6210938	n/a	167071	largeHSmallH	correct	congruent	0.36719	no	H	H
652.9882812	n/a	167165	responseLargeH	correct	n/a	0.36719	no	n/a	n/a
654.0625	n/a	167440	largeTSmallH	correct	incongruent	0.50781	no	T	H
654.5703125	n/a	167570	responseLargeT	correct	n/a	0.50781	no	n/a	n/a
655.6328125	n/a	167842	largeTSmallT	correct	congruent	0.5	no	T	T
656.1328125	n/a	167970	responseLargeT	correct	n/a	0.5	no	n/a	n/a
657.1953125	n/a	168242	largeHSmallT	correct	incongruent	0.44922	no	H	T
657.6445312	n/a	168357	responseLargeH	correct	n/a	0.44922	no	n/a	n/a
658.7148438	n/a	168631	largeTSmallT	correct	congruent	0.46875	no	T	T
659.1835938	n/a	168751	responseLargeT	correct	n/a	0.46875	no	n/a	n/a
660.2617188	n/a	169027	largeHSmallH	correct	congruent	0.42969	no	H	H
660.6914062	n/a	169137	responseLargeH	correct	n/a	0.42969	no	n/a	n/a
661.7539062	n/a	169409	largeTSmallH	correct	incongruent	0.56641	no	T	H
662.3203125	n/a	169554	responseLargeT	correct	n/a	0.56641	no	n/a	n/a
663.3945312	n/a	169829	largeTSmallT	correct	congruent	0.51562	no	T	T
663.9101562	n/a	169961	responseLargeT	correct	n/a	0.51562	no	n/a	n/a
664.9804688	n/a	170235	largeTSmallH	correct	incongruent	0.45312	no	T	H
665.4335938	n/a	170351	responseLargeT	correct	n/a	0.45312	no	n/a	n/a
666.5	n/a	170624	largeTSmallH	correct	incongruent	0.46094	no	T	H
666.9609375	n/a	170742	responseLargeT	correct	n/a	0.46094	no	n/a	n/a
668.0195312	n/a	171013	largeHSmallH	correct	congruent	0.35938	no	H	H
668.3789062	n/a	171105	responseLargeH	correct	n/a	0.35938	no	n/a	n/a
669.4453125	n/a	171378	largeTSmallH	correct	incongruent	0.58203	no	T	H
670.0273438	n/a	171527	responseLargeT	correct	n/a	0.58203	no	n/a	n/a
671.1015625	n/a	171802	largeTSmallT	correct	congruent	0.43359	no	T	T
671.5351562	n/a	171913	responseLargeT	correct	n/a	0.43359	no	n/a	n/a
672.59375	n/a	172184	largeTSmallT	correct	congruent	0.47656	no	T	T
673.0703125	n/a	172306	responseLargeT	correct	n/a	0.47656	no	n/a	n/a
674.140625	n/a	172580	largeHSmallT	correct	incongruent	0.50781	no	H	T
674.6484375	n/a	172710	responseLargeH	correct	n/a	0.50781	no	n/a	n/a
675.7148438	n/a	172983	largeTSmallH	correct	incongruent	0.53516	no	T	H
676.25	n/a	173120	responseLargeT	correct	n/a	0.53516	no	n/a	n/a
677.328125	n/a	173396	largeHSmallH	correct	congruent	0.4375	no	H	H
677.765625	n/a	173508	responseLargeH	correct	n/a	0.4375	no	n/a	n/a
678.8320312	n/a	173781	largeTSmallH	correct	incongruent	0.49219	no	T	H
679.3242188	n/a	173907	responseLargeT	correct	n/a	0.49219	no	n/a	n/a
680.3945312	n/a	174181	largeTSmallH	correct	incongruent	0.44531	no	T	H
680.8398438	n/a	174295	responseLargeT	correct	n/a	0.44531	no	n/a	n/a
681.9140625	n/a	174570	largeHSmallH	correct	congruent	0.42969	no	H	H
682.34375	n/a	174680	responseLargeH	correct	n/a	0.42969	no	n/a	n/a
683.40625	n/a	174952	largeHSmallH	correct	congruent	0.44922	no	H	H
683.8554688	n/a	175067	responseLargeH	correct	n/a	0.44922	no	n/a	n/a
684.9140625	n/a	175338	largeHSmallT	correct	incongruent	0.44531	no	H	T
685.359375	n/a	175452	responseLargeH	correct	n/a	0.44531	no	n/a	n/a
686.4335938	n/a	175727	largeHSmallT	correct	incongruent	0.44141	no	H	T
686.875	n/a	175840	responseLargeH	correct	n/a	0.44141	no	n/a	n/a
687.9414062	n/a	176113	largeHSmallH	correct	congruent	0.40625	no	H	H
688.3476562	n/a	176217	responseLargeH	correct	n/a	0.40625	no	n/a	n/a
689.40625	n/a	176488	largeHSmallT	correct	incongruent	0.35547	no	H	T
689.7617188	n/a	176579	responseLargeH	correct	n/a	0.35547	no	n/a	n/a
690.8320312	n/a	176853	largeHSmallH	correct	congruent	0.35547	no	H	H
691.1875	n/a	176944	responseLargeH	correct	n/a	0.35547	no	n/a	n/a
692.2460938	n/a	177215	largeHSmallH	correct	congruent	0.33984	no	H	H
692.5859375	n/a	177302	responseLargeH	correct	n/a	0.33984	no	n/a	n/a
693.6601562	n/a	177577	largeTSmallH	correct	incongruent	0.45312	no	T	H
694.1132812	n/a	177693	responseLargeT	correct	n/a	0.45312	no	n/a	n/a
695.1796875	n/a	177966	largeHSmallT	correct	incongruent	0.46094	no	H	T
695.640625	n/a	178084	responseLargeH	correct	n/a	0.46094	no	n/a	n/a
696.7148438	n/a	178359	largeHSmallT	correct	incongruent	0.48828	no	H	T
697.203125	n/a	178484	responseLargeH	correct	n/a	0.48828	no	n/a	n/a
698.2734375	n/a	178758	largeHSmallT	correct	incongruent	0.44141	no	H	T
698.7148438	n/a	178871	responseLargeH	correct	n/a	0.44141	no	n/a	n/a
699.7929688	n/a	179147	largeHSmallT	correct	incongruent	0.42969	no	H	T
700.2226562	n/a	179257	responseLargeH	correct	n/a	0.42969	no	n/a	n/a
701.2851562	n/a	179529	largeHSmallT	correct	incongruent	0.41406	no	H	T
701.6992188	n/a	179635	responseLargeH	correct	n/a	0.41406	no	n/a	n/a
702.765625	n/a	179908	largeHSmallT	correct	incongruent	0.33594	no	H	T
703.1015625	n/a	179994	responseLargeH	correct	n/a	0.33594	no	n/a	n/a
704.1679688	n/a	180267	largeHSmallT	correct	incongruent	0.3125	no	H	T
704.4804688	n/a	180347	responseLargeH	correct	n/a	0.3125	no	n/a	n/a
705.5390625	n/a	180618	largeTSmallT	correct	congruent	0.44141	no	T	T
705.9804688	n/a	180731	responseLargeT	correct	n/a	0.44141	no	n/a	n/a
707.046875	n/a	181004	largeHSmallH	correct	congruent	0.33594	no	H	H
707.3828125	n/a	181090	responseLargeH	correct	n/a	0.33594	no	n/a	n/a
708.4453125	n/a	181362	largeTSmallH	correct	incongruent	0.51562	no	T	H
708.9609375	n/a	181494	responseLargeT	correct	n/a	0.51562	no	n/a	n/a
710.03125	n/a	181768	largeTSmallT	error	congruent	0.30078	no	T	T
710.3320312	n/a	181845	responseLargeH	error	n/a	0.30078	no	n/a	n/a
711.3945312	n/a	182117	largeTSmallT	correct	congruent	0.41797	no	T	T
711.8125	n/a	182224	responseLargeT	correct	n/a	0.41797	no	n/a	n/a
712.8710938	n/a	182495	largeHSmallH	correct	congruent	0.48047	no	H	H
713.3515625	n/a	182618	responseLargeH	correct	n/a	0.48047	no	n/a	n/a
714.4179688	n/a	182891	largeHSmallT	correct	incongruent	0.375	no	H	T
714.7929688	n/a	182987	responseLargeH	correct	n/a	0.375	no	n/a	n/a
715.859375	n/a	183260	largeTSmallH	correct	incongruent	0.44531	no	T	H
716.3046875	n/a	183374	responseLargeT	correct	n/a	0.44531	no	n/a	n/a
717.3671875	n/a	183646	largeTSmallT	correct	congruent	0.43359	no	T	T
717.8007812	n/a	183757	responseLargeT	correct	n/a	0.43359	no	n/a	n/a
718.859375	n/a	184028	largeHSmallT	correct	incongruent	0.4375	no	H	T
719.296875	n/a	184140	responseLargeH	correct	n/a	0.4375	no	n/a	n/a
720.3671875	n/a	184414	largeTSmallT	correct	congruent	0.4375	no	T	T
720.8046875	n/a	184526	responseLargeT	correct	n/a	0.4375	no	n/a	n/a
721.8710938	n/a	184799	largeHSmallT	correct	incongruent	0.42188	no	H	T
722.2929688	n/a	184907	responseLargeH	correct	n/a	0.42188	no	n/a	n/a
723.3515625	n/a	185178	largeTSmallT	correct	congruent	0.44141	no	T	T
723.7929688	n/a	185291	responseLargeT	correct	n/a	0.44141	no	n/a	n/a
724.859375	n/a	185564	largeTSmallT	correct	congruent	0.42969	no	T	T
725.2890625	n/a	185674	responseLargeT	correct	n/a	0.42969	no	n/a	n/a
726.3515625	n/a	185946	largeHSmallT	correct	incongruent	0.40625	no	H	T
726.7578125	n/a	186050	responseLargeH	correct	n/a	0.40625	no	n/a	n/a
727.8203125	n/a	186322	largeHSmallH	correct	congruent	0.52344	no	H	H
728.34375	n/a	186456	responseLargeH	correct	n/a	0.52344	no	n/a	n/a
729.40625	n/a	186728	largeHSmallT	correct	incongruent	0.375	no	H	T
729.78125	n/a	186824	responseLargeH	correct	n/a	0.375	no	n/a	n/a
730.84375	n/a	187096	largeHSmallT	correct	incongruent	0.35547	no	H	T
731.1992188	n/a	187187	responseLargeH	correct	n/a	0.35547	no	n/a	n/a
732.2578125	n/a	187458	largeTSmallH	correct	incongruent	0.49219	no	T	H
732.75	n/a	187584	responseLargeT	correct	n/a	0.49219	no	n/a	n/a
733.8203125	n/a	187858	largeHSmallT	correct	incongruent	0.35156	no	H	T
734.171875	n/a	187948	responseLargeH	correct	n/a	0.35156	no	n/a	n/a
735.2460938	n/a	188223	largeTSmallH	correct	incongruent	0.37891	no	T	H
735.625	n/a	188320	responseLargeT	correct	n/a	0.37891	no	n/a	n/a
736.6992188	n/a	188595	largeHSmallH	correct	congruent	0.39453	no	H	H
737.09375	n/a	188696	responseLargeH	correct	n/a	0.39453	no	n/a	n/a
738.1640625	n/a	188970	largeHSmallT	correct	incongruent	0.43359	no	H	T
738.5976562	n/a	189081	responseLargeH	correct	n/a	0.43359	no	n/a	n/a
739.6601562	n/a	189353	largeTSmallT	correct	congruent	0.41406	no	T	T
740.0742188	n/a	189459	responseLargeT	correct	n/a	0.41406	no	n/a	n/a
741.140625	n/a	189732	largeTSmallH	error	incongruent	0.28906	no	T	H
741.4296875	n/a	189806	responseLargeH	error	n/a	0.28906	no	n/a	n/a
742.5	n/a	190080	largeTSmallH	correct	incongruent	0.42578	no	T	H
742.9257812	n/a	190189	responseLargeT	correct	n/a	0.42578	no	n/a	n/a
743.9921875	n/a	190462	largeHSmallH	correct	congruent	0.41797	no	H	H
744.4101562	n/a	190569	responseLargeH	correct	n/a	0.41797	no	n/a	n/a
745.484375	n/a	190844	largeHSmallH	correct	congruent	0.44141	no	H	H
745.9257812	n/a	190957	responseLargeH	correct	n/a	0.44141	no	n/a	n/a
746.9921875	n/a	191230	largeTSmallH	correct	incongruent	0.41797	no	T	H
747.4101562	n/a	191337	responseLargeT	correct	n/a	0.41797	no	n/a	n/a
748.4726562	n/a	191609	largeHSmallT	correct	incongruent	0.40234	no	H	T
748.875	n/a	191712	responseLargeH	correct	n/a	0.40234	no	n/a	n/a
749.9375	n/a	191984	largeTSmallH	correct	incongruent	0.38672	no	T	H
750.3242188	n/a	192083	responseLargeT	correct	n/a	0.38672	no	n/a	n/a
751.390625	n/a	192356	largeTSmallH	error	incongruent	0.36719	no	T	H
751.7578125	n/a	192450	responseLargeH	error	n/a	0.36719	no	n/a	n/a
752.8320312	n/a	192725	largeTSmallH	correct	incongruent	0.41797	no	T	H
753.25	n/a	192832	responseLargeT	correct	n/a	0.41797	no	n/a	n/a
754.3242188	n/a	193107	largeTSmallT	correct	congruent	0.34375	no	T	T
754.6679688	n/a	193195	responseLargeT	correct	n/a	0.34375	no	n/a	n/a
755.7265625	n/a	193466	largeTSmallT	correct	congruent	0.33594	no	T	T
756.0625	n/a	193552	responseLargeT	correct	n/a	0.33594	no	n/a	n/a
757.1367188	n/a	193827	largeTSmallH	correct	incongruent	0.36328	no	T	H
757.5	n/a	193920	responseLargeT	correct	n/a	0.36328	no	n/a	n/a
758.5664062	n/a	194193	largeTSmallT	correct	congruent	0.35938	no	T	T
758.9257812	n/a	194285	responseLargeT	correct	n/a	0.35938	no	n/a	n/a
759.9921875	n/a	194558	largeHSmallH	correct	congruent	0.48438	no	H	H
760.4765625	n/a	194682	responseLargeH	correct	n/a	0.48438	no	n/a	n/a
761.5507812	n/a	194957	largeTSmallH	correct	incongruent	0.40625	no	T	H
761.9570312	n/a	195061	responseLargeT	correct	n/a	0.40625	no	n/a	n/a
763.03125	n/a	195336	largeHSmallT	correct	incongruent	0.33984	no	H	T
763.3710938	n/a	195423	responseLargeH	correct	n/a	0.33984	no	n/a	n/a
764.4335938	n/a	195695	largeHSmallH	correct	congruent	0.40234	no	H	H
764.8359375	n/a	195798	responseLargeH	correct	n/a	0.40234	no	n/a	n/a
765.8984375	n/a	196070	largeTSmallT	correct	congruent	0.40625	no	T	T
766.3046875	n/a	196174	responseLargeT	correct	n/a	0.40625	no	n/a	n/a
767.3632812	n/a	196445	largeTSmallT	correct	congruent	0.5	no	T	T
767.8632812	n/a	196573	responseLargeT	correct	n/a	0.5	no	n/a	n/a
768.9257812	n/a	196845	largeHSmallT	correct	incongruent	0.5	no	H	T
769.4257812	n/a	196973	responseLargeH	correct	n/a	0.5	no	n/a	n/a
770.5	n/a	197248	largeHSmallT	correct	incongruent	0.44141	no	H	T
770.9414062	n/a	197361	responseLargeH	correct	n/a	0.44141	no	n/a	n/a
772.0195312	n/a	197637	largeTSmallT	correct	congruent	0.4375	no	T	T
772.4570312	n/a	197749	responseLargeT	correct	n/a	0.4375	no	n/a	n/a
773.5234375	n/a	198022	largeHSmallH	correct	congruent	0.375	no	H	H
773.8984375	n/a	198118	responseLargeH	correct	n/a	0.375	no	n/a	n/a
774.9648438	n/a	198391	largeTSmallT	correct	congruent	0.38281	no	T	T
775.3476562	n/a	198489	responseLargeT	correct	n/a	0.38281	no	n/a	n/a
776.4179688	n/a	198763	largeHSmallT	correct	incongruent	0.34375	no	H	T
776.7617188	n/a	198851	responseLargeH	correct	n/a	0.34375	no	n/a	n/a
777.8320312	n/a	199125	largeTSmallT	correct	congruent	0.44531	no	T	T
778.2773438	n/a	199239	responseLargeT	correct	n/a	0.44531	no	n/a	n/a
779.3515625	n/a	199514	largeHSmallH	correct	congruent	0.39062	no	H	H
779.7421875	n/a	199614	responseLargeH	correct	n/a	0.39062	no	n/a	n/a
780.8164062	n/a	199889	largeHSmallH	correct	congruent	0.39844	no	H	H
781.2148438	n/a	199991	responseLargeH	correct	n/a	0.39844	no	n/a	n/a
782.2851562	n/a	200265	largeHSmallH	correct	congruent	0.36328	no	H	H
782.6484375	n/a	200358	responseLargeH	correct	n/a	0.36328	no	n/a	n/a
783.7109375	n/a	200630	largeTSmallT	correct	congruent	0.43359	no	T	T
784.1445312	n/a	200741	responseLargeT	correct	n/a	0.43359	no	n/a	n/a
785.21875	n/a	201016	largeTSmallH	correct	incongruent	0.44531	no	T	H
785.6640625	n/a	201130	responseLargeT	correct	n/a	0.44531	no	n/a	n/a
786.7226562	n/a	201401	largeHSmallT	correct	incongruent	0.42969	no	H	T
787.1523438	n/a	201511	responseLargeH	correct	n/a	0.42969	no	n/a	n/a
788.21875	n/a	201784	largeTSmallH	correct	incongruent	0.55469	no	T	H
788.7734375	n/a	201926	responseLargeT	correct	n/a	0.55469	no	n/a	n/a
789.84375	n/a	202200	largeHSmallT	correct	incongruent	0.33984	no	H	T
790.1835938	n/a	202287	responseLargeH	correct	n/a	0.33984	no	n/a	n/a
791.2460938	n/a	202559	largeHSmallT	correct	incongruent	0.48828	no	H	T
791.734375	n/a	202684	responseLargeH	correct	n/a	0.48828	no	n/a	n/a
792.7890625	n/a	202954	largeTSmallT	correct	congruent	0.40234	no	T	T
793.1914062	n/a	203057	responseLargeT	correct	n/a	0.40234	no	n/a	n/a
794.2578125	n/a	203330	largeTSmallH	error	incongruent	0.38281	no	T	H
794.640625	n/a	203428	responseLargeH	error	n/a	0.38281	no	n/a	n/a
795.7109375	n/a	203702	largeTSmallH	correct	incongruent	0.41406	no	T	H
796.125	n/a	203808	responseLargeT	correct	n/a	0.41406	no	n/a	n/a
797.1914062	n/a	204081	largeTSmallT	correct	congruent	0.375	no	T	T
797.5664062	n/a	204177	responseLargeT	correct	n/a	0.375	no	n/a	n/a
798.6328125	n/a	204450	largeTSmallH	correct	incongruent	0.37891	no	T	H
799.0117188	n/a	204547	responseLargeT	correct	n/a	0.37891	no	n/a	n/a
800.0859375	n/a	204822	largeTSmallH	correct	incongruent	0.38281	no	T	H
800.46875	n/a	204920	responseLargeT	correct	n/a	0.38281	no	n/a	n/a
801.5390625	n/a	205194	largeTSmallH	correct	incongruent	0.35156	no	T	H
801.890625	n/a	205284	responseLargeT	correct	n/a	0.35156	no	n/a	n/a
802.9492188	n/a	205555	largeTSmallT	correct	congruent	0.38672	no	T	T
803.3359375	n/a	205654	responseLargeT	correct	n/a	0.38672	no	n/a	n/a
804.4023438	n/a	205927	largeHSmallH	correct	congruent	0.53125	no	H	H
804.9335938	n/a	206063	responseLargeH	correct	n/a	0.53125	no	n/a	n/a
806.0039062	n/a	206337	largeHSmallH	correct	congruent	0.40625	no	H	H
806.4101562	n/a	206441	responseLargeH	correct	n/a	0.40625	no	n/a	n/a
807.46875	n/a	206712	largeTSmallT	correct	congruent	0.45312	no	T	T
807.921875	n/a	206828	responseLargeT	correct	n/a	0.45312	no	n/a	n/a
808.9921875	n/a	207102	largeHSmallH	correct	congruent	0.39453	no	H	H
809.3867188	n/a	207203	responseLargeH	correct	n/a	0.39453	no	n/a	n/a
810.4570312	n/a	207477	largeTSmallT	correct	congruent	0.43359	no	T	T
810.890625	n/a	207588	responseLargeT	correct	n/a	0.43359	no	n/a	n/a
811.9492188	n/a	207859	largeHSmallT	correct	incongruent	0.41797	no	H	T
812.3671875	n/a	207966	responseLargeH	correct	n/a	0.41797	no	n/a	n/a
813.4296875	n/a	208238	largeHSmallH	correct	congruent	0.39453	no	H	H
813.8242188	n/a	208339	responseLargeH	correct	n/a	0.39453	no	n/a	n/a
814.8984375	n/a	208614	largeTSmallH	correct	incongruent	0.52734	no	T	H
815.4257812	n/a	208749	responseLargeT	correct	n/a	0.52734	no	n/a	n/a
816.4960938	n/a	209023	largeHSmallH	correct	congruent	0.45312	no	H	H
816.9492188	n/a	209139	responseLargeH	correct	n/a	0.45312	no	n/a	n/a
818.015625	n/a	209412	largeTSmallH	correct	incongruent	0.40234	no	T	H
818.4179688	n/a	209515	responseLargeT	correct	n/a	0.40234	no	n/a	n/a
819.484375	n/a	209788	largeTSmallT	correct	congruent	0.39844	no	T	T
819.8828125	n/a	209890	responseLargeT	correct	n/a	0.39844	no	n/a	n/a
820.9492188	n/a	210163	largeTSmallH	correct	incongruent	0.36328	no	T	H
821.3125	n/a	210256	responseLargeT	correct	n/a	0.36328	no	n/a	n/a
822.3789062	n/a	210529	largeHSmallT	correct	incongruent	0.48438	no	H	T
822.8632812	n/a	210653	responseLargeH	correct	n/a	0.48438	no	n/a	n/a
823.9375	n/a	210928	largeHSmallT	correct	incongruent	0.51562	no	H	T
824.453125	n/a	211060	responseLargeH	correct	n/a	0.51562	no	n/a	n/a
825.5234375	n/a	211334	largeTSmallH	correct	incongruent	0.34766	no	T	H
825.8710938	n/a	211423	responseLargeT	correct	n/a	0.34766	no	n/a	n/a
826.9375	n/a	211696	largeHSmallT	correct	incongruent	0.35547	no	H	T
827.2929688	n/a	211787	responseLargeH	correct	n/a	0.35547	no	n/a	n/a
828.3632812	n/a	212061	largeHSmallT	correct	incongruent	0.36328	no	H	T
828.7265625	n/a	212154	responseLargeH	correct	n/a	0.36328	no	n/a	n/a
829.8046875	n/a	212430	largeTSmallH	correct	incongruent	0.40625	no	T	H
830.2109375	n/a	212534	responseLargeT	correct	n/a	0.40625	no	n/a	n/a
831.2851562	n/a	212809	largeTSmallH	error	incongruent	0.31641	no	T	H
831.6015625	n/a	212890	responseLargeH	error	n/a	0.31641	no	n/a	n/a
832.671875	n/a	213164	largeTSmallH	correct	incongruent	0.41406	no	T	H
833.0859375	n/a	213270	responseLargeT	correct	n/a	0.41406	no	n/a	n/a
834.1484375	n/a	213542	largeHSmallH	correct	congruent	0.41797	no	H	H
834.5664062	n/a	213649	responseLargeH	correct	n/a	0.41797	no	n/a	n/a
835.6289062	n/a	213921	largeHSmallH	correct	congruent	0.39062	no	H	H
836.0195312	n/a	214021	responseLargeH	correct	n/a	0.39062	no	n/a	n/a
837.0820312	n/a	214293	largeHSmallH	correct	congruent	0.33594	no	H	H
837.4179688	n/a	214379	responseLargeH	correct	n/a	0.33594	no	n/a	n/a
838.484375	n/a	214652	largeTSmallH	correct	incongruent	0.55859	no	T	H
839.0429688	n/a	214795	responseLargeT	correct	n/a	0.55859	no	n/a	n/a
840.109375	n/a	215068	largeHSmallT	correct	incongruent	0.375	no	H	T
840.484375	n/a	215164	responseLargeH	correct	n/a	0.375	no	n/a	n/a
841.5507812	n/a	215437	largeHSmallT	correct	incongruent	0.38281	no	H	T
841.9335938	n/a	215535	responseLargeH	correct	n/a	0.38281	no	n/a	n/a
842.9882812	n/a	215805	largeTSmallT	correct	congruent	0.4375	no	T	T
843.4257812	n/a	215917	responseLargeT	correct	n/a	0.4375	no	n/a	n/a
844.4960938	n/a	216191	largeHSmallH	correct	congruent	0.38672	no	H	H
844.8828125	n/a	216290	responseLargeH	correct	n/a	0.38672	no	n/a	n/a
845.9492188	n/a	216563	largeTSmallT	correct	congruent	0.40625	no	T	T
846.3554688	n/a	216667	responseLargeT	correct	n/a	0.40625	no	n/a	n/a
847.4296875	n/a	216942	largeHSmallH	correct	congruent	0.35547	no	H	H
847.7851562	n/a	217033	responseLargeH	correct	n/a	0.35547	no	n/a	n/a
848.84375	n/a	217304	largeTSmallT	correct	congruent	0.375	no	T	T
849.21875	n/a	217400	responseLargeT	correct	n/a	0.375	no	n/a	n/a
850.28125	n/a	217672	largeHSmallH	correct	congruent	0.40625	no	H	H
850.6875	n/a	217776	responseLargeH	correct	n/a	0.40625	no	n/a	n/a
851.75	n/a	218048	largeTSmallH	correct	incongruent	0.42969	no	T	H
852.1796875	n/a	218158	responseLargeT	correct	n/a	0.42969	no	n/a	n/a
853.2421875	n/a	218430	largeHSmallT	correct	incongruent	0.38281	no	H	T
853.625	n/a	218528	responseLargeH	correct	n/a	0.38281	no	n/a	n/a
854.6953125	n/a	218802	largeHSmallT	correct	incongruent	0.36328	no	H	T
855.0585938	n/a	218895	responseLargeH	correct	n/a	0.36328	no	n/a	n/a
856.1210938	n/a	219167	largeHSmallT	correct	incongruent	0.39062	no	H	T
856.5117188	n/a	219267	responseLargeH	correct	n/a	0.39062	no	n/a	n/a
857.578125	n/a	219540	largeTSmallT	correct	congruent	0.40234	no	T	T
857.9804688	n/a	219643	responseLargeT	correct	n/a	0.40234	no	n/a	n/a
859.0429688	n/a	219915	largeHSmallT	correct	incongruent	0.33984	no	H	T
859.3828125	n/a	220002	responseLargeH	correct	n/a	0.33984	no	n/a	n/a
860.4570312	n/a	220277	largeTSmallH	correct	incongruent	0.33594	no	T	H
860.7929688	n/a	220363	responseLargeT	correct	n/a	0.33594	no	n/a	n/a
861.8554688	n/a	220635	largeHSmallT	correct	incongruent	0.42188	no	H	T
862.2773438	n/a	220743	responseLargeH	correct	n/a	0.42188	no	n/a	n/a
863.3476562	n/a	221017	largeHSmallT	correct	incongruent	0.375	no	H	T
863.7226562	n/a	221113	responseLargeH	correct	n/a	0.375	no	n/a	n/a
864.7890625	n/a	221386	largeTSmallT	correct	congruent	0.32031	no	T	T
865.109375	n/a	221468	responseLargeT	correct	n/a	0.32031	no	n/a	n/a
866.1757812	n/a	221741	largeTSmallH	correct	incongruent	0.5	no	T	H
866.6757812	n/a	221869	responseLargeT	correct	n/a	0.5	no	n/a	n/a
867.734375	n/a	222140	largeHSmallH	correct	congruent	0.41406	no	H	H
868.1484375	n/a	222246	responseLargeH	correct	n/a	0.41406	no	n/a	n/a
869.2148438	n/a	222519	largeHSmallH	correct	congruent	0.45312	no	H	H
869.6679688	n/a	222635	responseLargeH	correct	n/a	0.45312	no	n/a	n/a
870.734375	n/a	222908	largeHSmallH	correct	congruent	0.36719	no	H	H
871.1015625	n/a	223002	responseLargeH	correct	n/a	0.36719	no	n/a	n/a
872.1640625	n/a	223274	largeHSmallH	correct	congruent	0.38281	no	H	H
872.546875	n/a	223372	responseLargeH	correct	n/a	0.38281	no	n/a	n/a
873.6171875	n/a	223646	largeTSmallT	correct	congruent	0.50391	no	T	T
874.1210938	n/a	223775	responseLargeT	correct	n/a	0.50391	no	n/a	n/a
875.1875	n/a	224048	largeHSmallH	correct	congruent	0.33594	no	H	H
875.5234375	n/a	224134	responseLargeH	correct	n/a	0.33594	no	n/a	n/a
876.6015625	n/a	224410	largeTSmallT	correct	congruent	0.44141	no	T	T
877.0429688	n/a	224523	responseLargeT	correct	n/a	0.44141	no	n/a	n/a
878.109375	n/a	224796	largeTSmallT	correct	congruent	0.44922	no	T	T
878.5585938	n/a	224911	responseLargeT	correct	n/a	0.44922	no	n/a	n/a
879.6289062	n/a	225185	largeHSmallH	correct	congruent	0.35156	no	H	H
879.9804688	n/a	225275	responseLargeH	correct	n/a	0.35156	no	n/a	n/a
881.0429688	n/a	225547	largeTSmallH	correct	incongruent	0.42969	no	T	H
881.4726562	n/a	225657	responseLargeT	correct	n/a	0.42969	no	n/a	n/a
882.5507812	n/a	225933	largeHSmallH	correct	congruent	0.37891	no	H	H
882.9296875	n/a	226030	responseLargeH	correct	n/a	0.37891	no	n/a	n/a
883.9882812	n/a	226301	largeTSmallT	correct	congruent	0.33594	no	T	T
884.3242188	n/a	226387	responseLargeT	correct	n/a	0.33594	no	n/a	n/a
885.390625	n/a	226660	largeTSmallH	error	incongruent	0.32812	no	T	H
885.71875	n/a	226744	responseLargeH	error	n/a	0.32812	no	n/a	n/a
886.7890625	n/a	227018	largeHSmallH	correct	congruent	0.44531	no	H	H
887.234375	n/a	227132	responseLargeH	correct	n/a	0.44531	no	n/a	n/a
888.296875	n/a	227404	largeTSmallT	correct	congruent	0.42188	no	T	T
888.71875	n/a	227512	responseLargeT	correct	n/a	0.42188	no	n/a	n/a
889.7773438	n/a	227783	largeTSmallT	correct	congruent	0.36328	no	T	T
890.140625	n/a	227876	responseLargeT	correct	n/a	0.36328	no	n/a	n/a
891.2148438	n/a	228151	largeTSmallT	correct	congruent	0.34766	no	T	T
891.5625	n/a	228240	responseLargeT	correct	n/a	0.34766	no	n/a	n/a
892.6289062	n/a	228513	largeTSmallH	error	incongruent	0.42969	no	T	H
893.0585938	n/a	228623	responseLargeH	error	n/a	0.42969	no	n/a	n/a
894.1367188	n/a	228899	largeTSmallT	correct	congruent	0.39453	no	T	T
894.53125	n/a	229000	responseLargeT	correct	n/a	0.39453	no	n/a	n/a
895.6015625	n/a	229274	largeTSmallH	correct	incongruent	0.51953	no	T	H
896.1210938	n/a	229407	responseLargeT	correct	n/a	0.51953	no	n/a	n/a
897.1875	n/a	229680	largeHSmallT	correct	incongruent	0.47266	no	H	T
897.6601562	n/a	229801	responseLargeH	correct	n/a	0.47266	no	n/a	n/a
898.734375	n/a	230076	largeTSmallT	correct	congruent	0.39844	no	T	T
899.1328125	n/a	230178	responseLargeT	correct	n/a	0.39844	no	n/a	n/a
900.203125	n/a	230452	largeHSmallT	correct	incongruent	0.42578	no	H	T
900.6289062	n/a	230561	responseLargeH	correct	n/a	0.42578	no	n/a	n/a
901.6953125	n/a	230834	largeHSmallH	correct	congruent	0.39844	no	H	H
902.09375	n/a	230936	responseLargeH	correct	n/a	0.39844	no	n/a	n/a
903.1601562	n/a	231209	largeTSmallT	correct	congruent	0.51953	no	T	T
903.6796875	n/a	231342	responseLargeT	correct	n/a	0.51953	no	n/a	n/a
904.734375	n/a	231612	largeTSmallH	correct	incongruent	0.51562	no	T	H
905.25	n/a	231744	responseLargeT	correct	n/a	0.51562	no	n/a	n/a
906.3203125	n/a	232018	largeHSmallH	correct	congruent	0.46875	no	H	H
906.7890625	n/a	232138	responseLargeH	correct	n/a	0.46875	no	n/a	n/a
907.8554688	n/a	232411	largeHSmallH	correct	congruent	0.41406	no	H	H
908.2695312	n/a	232517	responseLargeH	correct	n/a	0.41406	no	n/a	n/a
909.3359375	n/a	232790	largeHSmallH	correct	congruent	0.45312	no	H	H
909.7890625	n/a	232906	responseLargeH	correct	n/a	0.45312	no	n/a	n/a
910.8554688	n/a	233179	largeTSmallT	correct	congruent	0.44141	no	T	T
911.296875	n/a	233292	responseLargeT	correct	n/a	0.44141	no	n/a	n/a
912.375	n/a	233568	largeHSmallT	correct	incongruent	0.46094	no	H	T
912.8359375	n/a	233686	responseLargeH	correct	n/a	0.46094	no	n/a	n/a
913.8945312	n/a	233957	largeHSmallH	correct	congruent	0.42969	no	H	H
914.3242188	n/a	234067	responseLargeH	correct	n/a	0.42969	no	n/a	n/a
915.4023438	n/a	234343	largeTSmallH	correct	incongruent	0.4375	no	T	H
915.8398438	n/a	234455	responseLargeT	correct	n/a	0.4375	no	n/a	n/a
916.9101562	n/a	234729	largeHSmallT	correct	incongruent	0.48438	no	H	T
917.3945312	n/a	234853	responseLargeH	correct	n/a	0.48438	no	n/a	n/a
918.46875	n/a	235128	largeHSmallT	correct	incongruent	0.375	no	H	T
918.84375	n/a	235224	responseLargeH	correct	n/a	0.375	no	n/a	n/a
919.9101562	n/a	235497	largeTSmallT	correct	congruent	0.41016	no	T	T
920.3203125	n/a	235602	responseLargeT	correct	n/a	0.41016	no	n/a	n/a
921.3867188	n/a	235875	largeTSmallH	correct	incongruent	0.46484	no	T	H
921.8515625	n/a	235994	responseLargeT	correct	n/a	0.46484	no	n/a	n/a
922.90625	n/a	236264	largeTSmallH	correct	incongruent	0.44531	no	T	H
923.3515625	n/a	236378	responseLargeT	correct	n/a	0.44531	no	n/a	n/a
924.4140625	n/a	236650	largeHSmallH	correct	congruent	0.53125	no	H	H
924.9453125	n/a	236786	responseLargeH	correct	n/a	0.53125	no	n/a	n/a
926.015625	n/a	237060	largeTSmallH	correct	incongruent	0.40234	no	T	H
926.4179688	n/a	237163	responseLargeT	correct	n/a	0.40234	no	n/a	n/a
927.4804688	n/a	237435	largeTSmallT	correct	congruent	0.41797	no	T	T
927.8984375	n/a	237542	responseLargeT	correct	n/a	0.41797	no	n/a	n/a
928.9609375	n/a	237814	largeHSmallT	correct	incongruent	0.42969	no	H	T
929.390625	n/a	237924	responseLargeH	correct	n/a	0.42969	no	n/a	n/a
930.46875	n/a	238200	largeTSmallT	correct	congruent	0.4375	no	T	T
930.90625	n/a	238312	responseLargeT	correct	n/a	0.4375	no	n/a	n/a
931.9765625	n/a	238586	largeHSmallH	correct	congruent	0.4375	no	H	H
932.4140625	n/a	238698	responseLargeH	correct	n/a	0.4375	no	n/a	n/a
933.4804688	n/a	238971	largeTSmallT	correct	congruent	0.4375	no	T	T
933.9179688	n/a	239083	responseLargeT	correct	n/a	0.4375	no	n/a	n/a
934.9882812	n/a	239357	largeHSmallT	correct	incongruent	0.34375	no	H	T
935.3320312	n/a	239445	responseLargeH	correct	n/a	0.34375	no	n/a	n/a
936.4140625	n/a	239722	largeHSmallH	correct	congruent	0.45312	no	H	H
936.8671875	n/a	239838	responseLargeH	correct	n/a	0.45312	no	n/a	n/a
937.9335938	n/a	240111	largeTSmallH	correct	incongruent	0.39844	no	T	H
938.3320312	n/a	240213	responseLargeT	correct	n/a	0.39844	no	n/a	n/a
939.4023438	n/a	240487	largeTSmallT	correct	congruent	0.41016	no	T	T
939.8125	n/a	240592	responseLargeT	correct	n/a	0.41016	no	n/a	n/a
940.8828125	n/a	240866	largeTSmallH	correct	incongruent	0.39844	no	T	H
941.28125	n/a	240968	responseLargeT	correct	n/a	0.39844	no	n/a	n/a
942.3476562	n/a	241241	largeHSmallH	correct	congruent	0.40625	no	H	H
942.7539062	n/a	241345	responseLargeH	correct	n/a	0.40625	no	n/a	n/a
943.8164062	n/a	241617	largeHSmallT	error	incongruent	0.30859	no	H	T
944.125	n/a	241696	responseLargeT	error	n/a	0.30859	no	n/a	n/a
945.1875	n/a	241968	largeHSmallT	correct	incongruent	0.50391	no	H	T
945.6914062	n/a	242097	responseLargeH	correct	n/a	0.50391	no	n/a	n/a
946.7617188	n/a	242371	largeHSmallH	correct	congruent	0.40625	no	H	H
947.1679688	n/a	242475	responseLargeH	correct	n/a	0.40625	no	n/a	n/a
954.46875	n/a	244344	largeTSmallH	error	incongruent	0.68359	no	T	H
955.1523438	n/a	244519	responseSmallT	error	n/a	0.68359	no	n/a	n/a
956.2265625	n/a	244794	largeTSmallH	correct	incongruent	0.66406	no	T	H
956.890625	n/a	244964	responseSmallH	correct	n/a	0.66406	no	n/a	n/a
957.9492188	n/a	245235	largeHSmallT	correct	incongruent	0.51172	no	H	T
958.4609375	n/a	245366	responseSmallT	correct	n/a	0.51172	no	n/a	n/a
959.5351562	n/a	245641	largeHSmallT	correct	incongruent	0.46484	no	H	T
960	n/a	245760	responseSmallT	correct	n/a	0.46484	no	n/a	n/a
961.0664062	n/a	246033	largeTSmallT	correct	congruent	0.40234	no	T	T
961.46875	n/a	246136	responseSmallT	correct	n/a	0.40234	no	n/a	n/a
962.5351562	n/a	246409	largeTSmallH	correct	incongruent	0.44531	no	T	H
962.9804688	n/a	246523	responseSmallH	correct	n/a	0.44531	no	n/a	n/a
964.0546875	n/a	246798	largeHSmallH	correct	congruent	0.41016	no	H	H
964.4648438	n/a	246903	responseSmallH	correct	n/a	0.41016	no	n/a	n/a
965.5351562	n/a	247177	largeTSmallT	correct	congruent	0.35938	no	T	T
965.8945312	n/a	247269	responseSmallT	correct	n/a	0.35938	no	n/a	n/a
966.9726562	n/a	247545	largeHSmallT	correct	incongruent	0.59375	no	H	T
967.5664062	n/a	247697	responseSmallT	correct	n/a	0.59375	no	n/a	n/a
968.640625	n/a	247972	largeTSmallH	error	incongruent	0.46094	no	T	H
969.1015625	n/a	248090	responseSmallT	error	n/a	0.46094	no	n/a	n/a
970.1601562	n/a	248361	largeTSmallH	correct	incongruent	0.44141	no	T	H
970.6015625	n/a	248474	responseSmallH	correct	n/a	0.44141	no	n/a	n/a
971.6679688	n/a	248747	largeHSmallT	correct	incongruent	0.53906	no	H	T
972.2070312	n/a	248885	responseSmallT	correct	n/a	0.53906	no	n/a	n/a
973.265625	n/a	249156	largeHSmallT	correct	incongruent	0.46484	no	H	T
973.7304688	n/a	249275	responseSmallT	correct	n/a	0.46484	no	n/a	n/a
974.8007812	n/a	249549	largeHSmallH	correct	congruent	0.41797	no	H	H
975.21875	n/a	249656	responseSmallH	correct	n/a	0.41797	no	n/a	n/a
976.28125	n/a	249928	largeTSmallT	correct	congruent	0.48438	no	T	T
976.765625	n/a	250052	responseSmallT	correct	n/a	0.48438	no	n/a	n/a
977.828125	n/a	250324	largeHSmallH	correct	congruent	0.37891	no	H	H
978.2070312	n/a	250421	responseSmallH	correct	n/a	0.37891	no	n/a	n/a
979.28125	n/a	250696	largeTSmallT	correct	congruent	0.44531	no	T	T
979.7265625	n/a	250810	responseSmallT	correct	n/a	0.44531	no	n/a	n/a
980.7851562	n/a	251081	largeTSmallH	correct	incongruent	0.36328	no	T	H
981.1484375	n/a	251174	responseSmallH	correct	n/a	0.36328	no	n/a	n/a
982.2148438	n/a	251447	largeTSmallT	correct	congruent	0.53516	no	T	T
982.75	n/a	251584	responseSmallT	correct	n/a	0.53516	no	n/a	n/a
983.8125	n/a	251856	largeHSmallH	correct	congruent	0.47266	no	H	H
984.2851562	n/a	251977	responseSmallH	correct	n/a	0.47266	no	n/a	n/a
985.3476562	n/a	252249	largeTSmallT	correct	congruent	0.42969	no	T	T
985.7773438	n/a	252359	responseSmallT	correct	n/a	0.42969	no	n/a	n/a
986.8398438	n/a	252631	largeTSmallT	correct	congruent	0.51172	no	T	T
987.3515625	n/a	252762	responseSmallT	correct	n/a	0.51172	no	n/a	n/a
988.4140625	n/a	253034	largeTSmallH	correct	incongruent	0.47656	no	T	H
988.890625	n/a	253156	responseSmallH	correct	n/a	0.47656	no	n/a	n/a
989.9609375	n/a	253430	largeHSmallH	correct	congruent	0.54688	no	H	H
990.5078125	n/a	253570	responseSmallH	correct	n/a	0.54688	no	n/a	n/a
991.5742188	n/a	253843	largeTSmallH	correct	incongruent	0.5	no	T	H
992.0742188	n/a	253971	responseSmallH	correct	n/a	0.5	no	n/a	n/a
993.1484375	n/a	254246	largeHSmallT	correct	incongruent	0.45312	no	H	T
993.6015625	n/a	254362	responseSmallT	correct	n/a	0.45312	no	n/a	n/a
994.6796875	n/a	254638	largeTSmallH	correct	incongruent	0.49219	no	T	H
995.171875	n/a	254764	responseSmallH	correct	n/a	0.49219	no	n/a	n/a
996.2382812	n/a	255037	largeTSmallT	correct	congruent	0.50391	no	T	T
996.7421875	n/a	255166	responseSmallT	correct	n/a	0.50391	no	n/a	n/a
997.8125	n/a	255440	largeHSmallT	correct	incongruent	0.58594	no	H	T
998.3984375	n/a	255590	responseSmallT	correct	n/a	0.58594	no	n/a	n/a
999.4648438	n/a	255863	largeHSmallH	correct	congruent	0.37109	no	H	H
999.8359375	n/a	255958	responseSmallH	correct	n/a	0.37109	no	n/a	n/a
1000.894531	n/a	256229	largeTSmallT	correct	congruent	0.42188	no	T	T
1001.316406	n/a	256337	responseSmallT	correct	n/a	0.42188	no	n/a	n/a
1002.386719	n/a	256611	largeHSmallH	correct	congruent	0.44531	no	H	H
1002.832031	n/a	256725	responseSmallH	correct	n/a	0.44531	no	n/a	n/a
1003.894531	n/a	256997	largeHSmallH	correct	congruent	0.42188	no	H	H
1004.316406	n/a	257105	responseSmallH	correct	n/a	0.42188	no	n/a	n/a
1005.386719	n/a	257379	largeTSmallT	correct	congruent	0.40625	no	T	T
1005.792969	n/a	257483	responseSmallT	correct	n/a	0.40625	no	n/a	n/a
1006.867188	n/a	257758	largeTSmallT	correct	congruent	0.48438	no	T	T
1007.351562	n/a	257882	responseSmallT	correct	n/a	0.48438	no	n/a	n/a
1008.414062	n/a	258154	largeTSmallH	correct	incongruent	0.48047	no	T	H
1008.894531	n/a	258277	responseSmallH	correct	n/a	0.48047	no	n/a	n/a
1009.960938	n/a	258550	largeHSmallH	correct	congruent	0.42969	no	H	H
1010.390625	n/a	258660	responseSmallH	correct	n/a	0.42969	no	n/a	n/a
1011.464844	n/a	258935	largeTSmallH	correct	incongruent	0.46875	no	T	H
1011.933594	n/a	259055	responseSmallH	correct	n/a	0.46875	no	n/a	n/a
1013.011719	n/a	259331	largeHSmallT	correct	incongruent	0.41406	no	H	T
1013.425781	n/a	259437	responseSmallT	correct	n/a	0.41406	no	n/a	n/a
1014.492188	n/a	259710	largeHSmallH	correct	congruent	0.37109	no	H	H
1014.863281	n/a	259805	responseSmallH	correct	n/a	0.37109	no	n/a	n/a
1015.917969	n/a	260075	largeHSmallH	correct	congruent	0.42578	no	H	H
1016.34375	n/a	260184	responseSmallH	correct	n/a	0.42578	no	n/a	n/a
1017.414062	n/a	260458	largeTSmallH	correct	incongruent	0.54297	no	T	H
1017.957031	n/a	260597	responseSmallH	correct	n/a	0.54297	no	n/a	n/a
1019.027344	n/a	260871	largeTSmallT	correct	congruent	0.48828	no	T	T
1019.515625	n/a	260996	responseSmallT	correct	n/a	0.48828	no	n/a	n/a
1020.585938	n/a	261270	largeHSmallT	correct	incongruent	0.47266	no	H	T
1021.058594	n/a	261391	responseSmallT	correct	n/a	0.47266	no	n/a	n/a
1022.132812	n/a	261666	largeTSmallT	correct	congruent	0.39062	no	T	T
1022.523438	n/a	261766	responseSmallT	correct	n/a	0.39062	no	n/a	n/a
1023.597656	n/a	262041	largeTSmallT	correct	congruent	0.44141	no	T	T
1024.039062	n/a	262154	responseSmallT	correct	n/a	0.44141	no	n/a	n/a
1025.105469	n/a	262427	largeTSmallT	correct	congruent	0.38281	no	T	T
1025.488281	n/a	262525	responseSmallT	correct	n/a	0.38281	no	n/a	n/a
1026.558594	n/a	262799	largeTSmallT	correct	congruent	0.38281	no	T	T
1026.941406	n/a	262897	responseSmallT	correct	n/a	0.38281	no	n/a	n/a
1028.011719	n/a	263171	largeHSmallH	correct	congruent	0.48438	no	H	H
1028.496094	n/a	263295	responseSmallH	correct	n/a	0.48438	no	n/a	n/a
1029.558594	n/a	263567	largeTSmallH	correct	incongruent	0.42188	no	T	H
1029.980469	n/a	263675	responseSmallH	correct	n/a	0.42188	no	n/a	n/a
1031.050781	n/a	263949	largeHSmallH	correct	congruent	0.42578	no	H	H
1031.476562	n/a	264058	responseSmallH	correct	n/a	0.42578	no	n/a	n/a
1032.53125	n/a	264328	largeTSmallH	correct	incongruent	0.42188	no	T	H
1032.953125	n/a	264436	responseSmallH	correct	n/a	0.42188	no	n/a	n/a
1034.011719	n/a	264707	largeTSmallH	correct	incongruent	0.41797	no	T	H
1034.429688	n/a	264814	responseSmallH	correct	n/a	0.41797	no	n/a	n/a
1035.507812	n/a	265090	largeHSmallH	correct	congruent	0.41016	no	H	H
1035.917969	n/a	265195	responseSmallH	correct	n/a	0.41016	no	n/a	n/a
1036.984375	n/a	265468	largeHSmallT	correct	incongruent	0.54688	no	H	T
1037.53125	n/a	265608	responseSmallT	correct	n/a	0.54688	no	n/a	n/a
1038.597656	n/a	265881	largeHSmallT	correct	incongruent	0.51172	no	H	T
1039.109375	n/a	266012	responseSmallT	correct	n/a	0.51172	no	n/a	n/a
1040.1875	n/a	266288	largeTSmallT	correct	congruent	0.47266	no	T	T
1040.660156	n/a	266409	responseSmallT	correct	n/a	0.47266	no	n/a	n/a
1041.730469	n/a	266683	largeTSmallT	correct	congruent	0.44531	no	T	T
1042.175781	n/a	266797	responseSmallT	correct	n/a	0.44531	no	n/a	n/a
1043.238281	n/a	267069	largeHSmallT	correct	incongruent	0.52734	no	H	T
1043.765625	n/a	267204	responseSmallT	correct	n/a	0.52734	no	n/a	n/a
1044.824219	n/a	267475	largeTSmallT	correct	congruent	0.4375	no	T	T
1045.261719	n/a	267587	responseSmallT	correct	n/a	0.4375	no	n/a	n/a
1046.332031	n/a	267861	largeTSmallT	correct	congruent	0.41797	no	T	T
1046.75	n/a	267968	responseSmallT	correct	n/a	0.41797	no	n/a	n/a
1047.8125	n/a	268240	largeHSmallH	correct	congruent	0.46094	no	H	H
1048.273438	n/a	268358	responseSmallH	correct	n/a	0.46094	no	n/a	n/a
1049.332031	n/a	268629	largeTSmallH	correct	incongruent	0.43359	no	T	H
1049.765625	n/a	268740	responseSmallH	correct	n/a	0.43359	no	n/a	n/a
1050.839844	n/a	269015	largeHSmallH	correct	congruent	0.4375	no	H	H
1051.277344	n/a	269127	responseSmallH	correct	n/a	0.4375	no	n/a	n/a
1052.34375	n/a	269400	largeHSmallT	correct	incongruent	0.46484	no	H	T
1052.808594	n/a	269519	responseSmallT	correct	n/a	0.46484	no	n/a	n/a
1053.878906	n/a	269793	largeTSmallH	correct	incongruent	0.43359	no	T	H
1054.3125	n/a	269904	responseSmallH	correct	n/a	0.43359	no	n/a	n/a
1055.371094	n/a	270175	largeTSmallT	correct	congruent	0.41016	no	T	T
1055.78125	n/a	270280	responseSmallT	correct	n/a	0.41016	no	n/a	n/a
1056.851562	n/a	270554	largeHSmallH	correct	congruent	0.40234	no	H	H
1057.253906	n/a	270657	responseSmallH	correct	n/a	0.40234	no	n/a	n/a
1058.320312	n/a	270930	largeHSmallH	correct	congruent	0.41406	no	H	H
1058.734375	n/a	271036	responseSmallH	correct	n/a	0.41406	no	n/a	n/a
1059.796875	n/a	271308	largeHSmallT	correct	incongruent	0.42969	no	H	T
1060.226562	n/a	271418	responseSmallT	correct	n/a	0.42969	no	n/a	n/a
1061.292969	n/a	271691	largeTSmallT	correct	congruent	0.46094	no	T	T
1061.753906	n/a	271809	responseSmallT	correct	n/a	0.46094	no	n/a	n/a
1062.8125	n/a	272080	largeHSmallH	correct	congruent	0.41406	no	H	H
1063.226562	n/a	272186	responseSmallH	correct	n/a	0.41406	no	n/a	n/a
1064.292969	n/a	272459	largeHSmallT	correct	incongruent	0.44922	no	H	T
1064.742188	n/a	272574	responseSmallT	correct	n/a	0.44922	no	n/a	n/a
1065.8125	n/a	272848	largeHSmallT	correct	incongruent	0.38672	no	H	T
1066.199219	n/a	272947	responseSmallT	correct	n/a	0.38672	no	n/a	n/a
1067.265625	n/a	273220	largeTSmallH	error	incongruent	0.44531	no	T	H
1067.710938	n/a	273334	responseSmallT	error	n/a	0.44531	no	n/a	n/a
1068.773438	n/a	273606	largeTSmallH	correct	incongruent	0.43359	no	T	H
1069.207031	n/a	273717	responseSmallH	correct	n/a	0.43359	no	n/a	n/a
1070.277344	n/a	273991	largeTSmallT	correct	congruent	0.46094	no	T	T
1070.738281	n/a	274109	responseSmallT	correct	n/a	0.46094	no	n/a	n/a
1071.796875	n/a	274380	largeHSmallH	correct	congruent	0.39453	no	H	H
1072.191406	n/a	274481	responseSmallH	correct	n/a	0.39453	no	n/a	n/a
1073.25	n/a	274752	largeTSmallT	correct	congruent	0.40234	no	T	T
1073.652344	n/a	274855	responseSmallT	correct	n/a	0.40234	no	n/a	n/a
1074.71875	n/a	275128	largeHSmallH	correct	congruent	0.39844	no	H	H
1075.117188	n/a	275230	responseSmallH	correct	n/a	0.39844	no	n/a	n/a
1076.183594	n/a	275503	largeHSmallT	correct	incongruent	0.40234	no	H	T
1076.585938	n/a	275606	responseSmallT	correct	n/a	0.40234	no	n/a	n/a
1077.652344	n/a	275879	largeTSmallT	error	congruent	0.35547	no	T	T
1078.007812	n/a	275970	responseSmallH	error	n/a	0.35547	no	n/a	n/a
1079.066406	n/a	276241	largeHSmallH	correct	congruent	0.42188	no	H	H
1079.488281	n/a	276349	responseSmallH	correct	n/a	0.42188	no	n/a	n/a
1080.558594	n/a	276623	largeTSmallH	correct	incongruent	0.39062	no	T	H
1080.949219	n/a	276723	responseSmallH	correct	n/a	0.39062	no	n/a	n/a
1082.023438	n/a	276998	largeHSmallH	correct	congruent	0.40625	no	H	H
1082.429688	n/a	277102	responseSmallH	correct	n/a	0.40625	no	n/a	n/a
1083.503906	n/a	277377	largeHSmallT	correct	incongruent	1.0898	no	H	T
1084.59375	n/a	277656	responseSmallT	correct	n/a	1.0898	no	n/a	n/a
1085.664062	n/a	277930	largeHSmallH	correct	congruent	0.40625	no	H	H
1086.070312	n/a	278034	responseSmallH	correct	n/a	0.40625	no	n/a	n/a
1087.144531	n/a	278309	largeTSmallH	correct	incongruent	0.47266	no	T	H
1087.617188	n/a	278430	responseSmallH	correct	n/a	0.47266	no	n/a	n/a
1088.679688	n/a	278702	largeTSmallT	correct	congruent	0.4375	no	T	T
1089.117188	n/a	278814	responseSmallT	correct	n/a	0.4375	no	n/a	n/a
1090.199219	n/a	279091	largeTSmallH	correct	incongruent	0.41406	no	T	H
1090.613281	n/a	279197	responseSmallH	correct	n/a	0.41406	no	n/a	n/a
1091.679688	n/a	279470	largeTSmallT	correct	congruent	0.43359	no	T	T
1092.113281	n/a	279581	responseSmallT	correct	n/a	0.43359	no	n/a	n/a
1093.171875	n/a	279852	largeTSmallH	correct	incongruent	0.37891	no	T	H
1093.550781	n/a	279949	responseSmallH	correct	n/a	0.37891	no	n/a	n/a
1094.609375	n/a	280220	largeTSmallT	correct	congruent	0.47266	no	T	T
1095.082031	n/a	280341	responseSmallT	correct	n/a	0.47266	no	n/a	n/a
1096.15625	n/a	280616	largeHSmallH	correct	congruent	0.44141	no	H	H
1096.597656	n/a	280729	responseSmallH	correct	n/a	0.44141	no	n/a	n/a
1097.664062	n/a	281002	largeTSmallH	correct	incongruent	0.43359	no	T	H
1098.097656	n/a	281113	responseSmallH	correct	n/a	0.43359	no	n/a	n/a
1099.15625	n/a	281384	largeHSmallT	correct	incongruent	0.42969	no	H	T
1099.585938	n/a	281494	responseSmallT	correct	n/a	0.42969	no	n/a	n/a
1100.664062	n/a	281770	largeTSmallT	correct	congruent	0.48047	no	T	T
1101.144531	n/a	281893	responseSmallT	correct	n/a	0.48047	no	n/a	n/a
1102.210938	n/a	282166	largeHSmallH	correct	congruent	0.44531	no	H	H
1102.65625	n/a	282280	responseSmallH	correct	n/a	0.44531	no	n/a	n/a
1103.71875	n/a	282552	largeTSmallT	correct	congruent	0.52344	no	T	T
1104.242188	n/a	282686	responseSmallT	correct	n/a	0.52344	no	n/a	n/a
1105.304688	n/a	282958	largeHSmallT	error	incongruent	0.42578	no	H	T
1105.730469	n/a	283067	responseSmallH	error	n/a	0.42578	no	n/a	n/a
1106.796875	n/a	283340	largeHSmallH	correct	congruent	0.40625	no	H	H
1107.203125	n/a	283444	responseSmallH	correct	n/a	0.40625	no	n/a	n/a
1108.277344	n/a	283719	largeTSmallT	correct	congruent	0.42969	no	T	T
1108.707031	n/a	283829	responseSmallT	correct	n/a	0.42969	no	n/a	n/a
1109.769531	n/a	284101	largeHSmallH	correct	congruent	0.39844	no	H	H
1110.167969	n/a	284203	responseSmallH	correct	n/a	0.39844	no	n/a	n/a
1111.238281	n/a	284477	largeHSmallH	correct	congruent	0.40234	no	H	H
1111.640625	n/a	284580	responseSmallH	correct	n/a	0.40234	no	n/a	n/a
1112.703125	n/a	284852	largeTSmallT	correct	congruent	0.4375	no	T	T
1113.140625	n/a	284964	responseSmallT	correct	n/a	0.4375	no	n/a	n/a
1114.199219	n/a	285235	largeHSmallT	correct	incongruent	0.41016	no	H	T
1114.609375	n/a	285340	responseSmallT	correct	n/a	0.41016	no	n/a	n/a
1115.679688	n/a	285614	largeHSmallT	correct	incongruent	0.42578	no	H	T
1116.105469	n/a	285723	responseSmallT	correct	n/a	0.42578	no	n/a	n/a
1117.171875	n/a	285996	largeHSmallT	correct	incongruent	0.63281	no	H	T
1117.804688	n/a	286158	responseSmallT	correct	n/a	0.63281	no	n/a	n/a
1118.863281	n/a	286429	largeHSmallT	correct	incongruent	0.46094	no	H	T
1119.324219	n/a	286547	responseSmallT	correct	n/a	0.46094	no	n/a	n/a
1120.398438	n/a	286822	largeHSmallH	correct	congruent	0.49609	no	H	H
1120.894531	n/a	286949	responseSmallH	correct	n/a	0.49609	no	n/a	n/a
1121.957031	n/a	287221	largeTSmallT	correct	congruent	0.36328	no	T	T
1122.320312	n/a	287314	responseSmallT	correct	n/a	0.36328	no	n/a	n/a
1123.382812	n/a	287586	largeHSmallT	correct	incongruent	0.46094	no	H	T
1123.84375	n/a	287704	responseSmallT	correct	n/a	0.46094	no	n/a	n/a
1124.902344	n/a	287975	largeTSmallT	correct	congruent	0.42188	no	T	T
1125.324219	n/a	288083	responseSmallT	correct	n/a	0.42188	no	n/a	n/a
1126.382812	n/a	288354	largeTSmallT	correct	congruent	0.37891	no	T	T
1126.761719	n/a	288451	responseSmallT	correct	n/a	0.37891	no	n/a	n/a
1127.835938	n/a	288726	largeTSmallH	correct	incongruent	0.42969	no	T	H
1128.265625	n/a	288836	responseSmallH	correct	n/a	0.42969	no	n/a	n/a
1129.332031	n/a	289109	largeTSmallT	correct	congruent	0.40234	no	T	T
1129.734375	n/a	289212	responseSmallT	correct	n/a	0.40234	no	n/a	n/a
1130.796875	n/a	289484	largeHSmallH	correct	congruent	0.375	no	H	H
1131.171875	n/a	289580	responseSmallH	correct	n/a	0.375	no	n/a	n/a
1132.238281	n/a	289853	largeHSmallT	correct	incongruent	0.35938	no	H	T
1132.597656	n/a	289945	responseSmallT	correct	n/a	0.35938	no	n/a	n/a
1133.675781	n/a	290221	largeHSmallH	correct	congruent	0.38672	no	H	H
1134.0625	n/a	290320	responseSmallH	correct	n/a	0.38672	no	n/a	n/a
1135.117188	n/a	290590	largeHSmallT	correct	incongruent	0.49219	no	H	T
1135.609375	n/a	290716	responseSmallT	correct	n/a	0.49219	no	n/a	n/a
1136.675781	n/a	290989	largeTSmallH	correct	incongruent	0.42188	no	T	H
1137.097656	n/a	291097	responseSmallH	correct	n/a	0.42188	no	n/a	n/a
1138.15625	n/a	291368	largeTSmallT	correct	congruent	0.36719	no	T	T
1138.523438	n/a	291462	responseSmallT	correct	n/a	0.36719	no	n/a	n/a
1139.597656	n/a	291737	largeTSmallT	correct	congruent	0.41406	no	T	T
1140.011719	n/a	291843	responseSmallT	correct	n/a	0.41406	no	n/a	n/a
1141.078125	n/a	292116	largeHSmallH	correct	congruent	0.40625	no	H	H
1141.484375	n/a	292220	responseSmallH	correct	n/a	0.40625	no	n/a	n/a
1142.542969	n/a	292491	largeHSmallT	correct	incongruent	0.44531	no	H	T
1142.988281	n/a	292605	responseSmallT	correct	n/a	0.44531	no	n/a	n/a
1144.0625	n/a	292880	largeHSmallT	correct	incongruent	0.41406	no	H	T
1144.476562	n/a	292986	responseSmallT	correct	n/a	0.41406	no	n/a	n/a
1145.542969	n/a	293259	largeHSmallH	correct	congruent	0.43359	no	H	H
1145.976562	n/a	293370	responseSmallH	correct	n/a	0.43359	no	n/a	n/a
1147.035156	n/a	293641	largeTSmallT	correct	congruent	0.36719	no	T	T
1147.402344	n/a	293735	responseSmallT	correct	n/a	0.36719	no	n/a	n/a
1148.476562	n/a	294010	largeTSmallH	correct	incongruent	0.42188	no	T	H
1148.898438	n/a	294118	responseSmallH	correct	n/a	0.42188	no	n/a	n/a
1149.96875	n/a	294392	largeHSmallH	correct	congruent	0.48047	no	H	H
