onset	duration	sample	value	stimulus	response_type	response_time
28.03515625	n/a	7177	B	nontarget	n/a	n/a
29.59765625	n/a	7577	D	nontarget	n/a	n/a
31.18359375	n/a	7983	D	nontarget	n/a	n/a
32.7578125	n/a	8386	B	target	hit	1105.4688
33.86328125	n/a	8669	rt	n/a	hit	1105.4688
34.33203125	n/a	8789	D	target	hit	687.5
35.01953125	n/a	8965	rt	n/a	hit	687.5
35.90625	n/a	9192	D	target	hit	519.5312
36.42578125	n/a	9325	rt	n/a	hit	519.5312
37.4765625	n/a	9594	B	target	hit	761.7188
38.23828125	n/a	9789	rt	n/a	hit	761.7188
39.05078125	n/a	9997	D	target	hit	406.25
39.45703125	n/a	10101	rt	n/a	hit	406.25
40.63671875	n/a	10403	C	nontarget	n/a	n/a
42.2109375	n/a	10806	A	nontarget	n/a	n/a
43.78515625	n/a	11209	A	nontarget	n/a	n/a
45.359375	n/a	11612	A	nontarget	n/a	n/a
46.9296875	n/a	12014	C	nontarget	n/a	n/a
48.50390625	n/a	12417	C	nontarget	n/a	n/a
50.078125	n/a	12820	D	nontarget	n/a	n/a
51.6640625	n/a	13226	C	target	hit	761.7188
52.42578125	n/a	13421	rt	n/a	hit	761.7188
53.23828125	n/a	13629	C	target	hit	449.2188
53.6875	n/a	13744	rt	n/a	hit	449.2188
54.80859375	n/a	14031	D	target	hit	464.8438
55.2734375	n/a	14150	rt	n/a	hit	464.8438
56.38671875	n/a	14435	B	nontarget	n/a	n/a
57.95703125	n/a	14837	B	nontarget	n/a	n/a
59.53125	n/a	15240	D	target	hit	652.3438
60.18359375	n/a	15407	rt	n/a	hit	652.3438
61.08984375	n/a	15639	C	nontarget	n/a	n/a
62.6484375	n/a	16038	B	target	hit	488.2812
63.13671875	n/a	16163	rt	n/a	hit	488.2812
64.2109375	n/a	16438	C	nontarget	n/a	n/a
65.796875	n/a	16844	C	target	hit	796.875
66.59375	n/a	17048	rt	n/a	hit	796.875
67.37109375	n/a	17247	C	nontarget	n/a	n/a
68.9453125	n/a	17650	A	nontarget	n/a	n/a
70.515625	n/a	18052	D	nontarget	n/a	n/a
72.08984375	n/a	18455	B	nontarget	n/a	n/a
73.65234375	n/a	18855	C	nontarget	n/a	n/a
75.2265625	n/a	19258	D	target	hit	746.0938
75.97265625	n/a	19449	rt	n/a	hit	746.0938
76.80859375	n/a	19663	D	nontarget	false_alarm	585.9375
77.39453125	n/a	19813	rt	n/a	false_alarm	585.9375
78.38671875	n/a	20067	C	target	hit	773.4375
79.16015625	n/a	20265	rt	n/a	hit	773.4375
79.95703125	n/a	20469	B	nontarget	n/a	n/a
81.52734375	n/a	20871	D	target	hit	769.5312
82.296875	n/a	21068	rt	n/a	hit	769.5312
83.10546875	n/a	21275	A	nontarget	n/a	n/a
84.67578125	n/a	21677	C	nontarget	n/a	n/a
86.25	n/a	22080	C	nontarget	n/a	n/a
87.82421875	n/a	22483	D	nontarget	n/a	n/a
89.39453125	n/a	22885	D	nontarget	n/a	n/a
90.96875	n/a	23288	B	nontarget	n/a	n/a
92.546875	n/a	23692	D	target	miss	n/a
94.1171875	n/a	24094	C	nontarget	miss	n/a
95.6796875	n/a	24494	D	nontarget	n/a	n/a
97.26171875	n/a	24899	B	nontarget	false_alarm	914.0625
98.17578125	n/a	25133	rt	n/a	false_alarm	914.0625
98.8359375	n/a	25302	A	nontarget	n/a	n/a
100.4101562	n/a	25705	A	nontarget	n/a	n/a
101.984375	n/a	26108	B	target	miss	n/a
103.5546875	n/a	26510	C	nontarget	miss	n/a
105.1289062	n/a	26913	B	nontarget	n/a	n/a
106.703125	n/a	27316	A	nontarget	n/a	n/a
108.2734375	n/a	27718	D	nontarget	n/a	n/a
109.8476562	n/a	28121	B	target	hit	683.5938
110.53125	n/a	28296	rt	n/a	hit	683.5938
111.421875	n/a	28524	C	nontarget	n/a	n/a
112.9960938	n/a	28927	B	nontarget	n/a	n/a
114.5703125	n/a	29330	B	target	hit	898.4375
115.46875	n/a	29560	rt	n/a	hit	898.4375
116.15625	n/a	29736	B	nontarget	n/a	n/a
117.7265625	n/a	30138	A	nontarget	n/a	n/a
119.3046875	n/a	30542	B	target	hit	492.1875
119.796875	n/a	30668	rt	n/a	hit	492.1875
120.875	n/a	30944	C	nontarget	n/a	n/a
122.4492188	n/a	31347	C	nontarget	n/a	n/a
124.0234375	n/a	31750	D	nontarget	n/a	n/a
125.609375	n/a	32156	A	nontarget	n/a	n/a
127.1835938	n/a	32559	C	target	hit	613.2812
127.796875	n/a	32716	rt	n/a	hit	613.2812
128.7539062	n/a	32961	D	target	hit	746.0938
129.5	n/a	33152	rt	n/a	hit	746.0938
130.328125	n/a	33364	D	nontarget	n/a	n/a
131.90625	n/a	33768	D	nontarget	n/a	n/a
133.4765625	n/a	34170	C	nontarget	n/a	n/a
135.0351562	n/a	34569	B	nontarget	n/a	n/a
136.6210938	n/a	34975	B	nontarget	n/a	n/a
138.1953125	n/a	35378	D	nontarget	n/a	n/a
139.7695312	n/a	35781	A	nontarget	n/a	n/a
141.34375	n/a	36184	B	target	hit	847.6562
142.1914062	n/a	36401	rt	n/a	hit	847.6562
142.9140625	n/a	36586	C	nontarget	false_alarm	539.0625
143.453125	n/a	36724	rt	n/a	false_alarm	539.0625
144.4882812	n/a	36989	C	nontarget	n/a	n/a
146.0625	n/a	37392	C	nontarget	n/a	n/a
147.625	n/a	37792	A	nontarget	n/a	n/a
149.1953125	n/a	38194	C	target	miss	n/a
150.7695312	n/a	38597	A	nontarget	miss	n/a
152.34375	n/a	39000	B	nontarget	n/a	n/a
153.9140625	n/a	39402	B	nontarget	n/a	n/a
155.4882812	n/a	39805	C	nontarget	n/a	n/a
157.0742188	n/a	40211	B	target	hit	722.6562
157.796875	n/a	40396	rt	n/a	hit	722.6562
158.6484375	n/a	40614	C	nontarget	false_alarm	832.0312
159.4804688	n/a	40827	rt	n/a	false_alarm	832.0312
160.2226562	n/a	41017	B	nontarget	n/a	n/a
161.7929688	n/a	41419	B	target	miss	n/a
163.3710938	n/a	41823	A	nontarget	miss	n/a
164.9453125	n/a	42226	B	target	hit	703.125
165.6484375	n/a	42406	rt	n/a	hit	703.125
166.5273438	n/a	42631	A	nontarget	n/a	n/a
168.1054688	n/a	43035	D	nontarget	n/a	n/a
169.671875	n/a	43436	A	nontarget	n/a	n/a
171.2460938	n/a	43839	D	nontarget	n/a	n/a
172.8242188	n/a	44243	B	nontarget	n/a	n/a
174.3945312	n/a	44645	A	target	hit	539.0625
174.9335938	n/a	44783	rt	n/a	hit	539.0625
175.9570312	n/a	45045	B	nontarget	n/a	n/a
177.5429688	n/a	45451	B	target	hit	796.875
178.3398438	n/a	45655	rt	n/a	hit	796.875
179.1132812	n/a	45853	A	target	hit	699.2188
179.8125	n/a	46032	rt	n/a	hit	699.2188
180.6875	n/a	46256	D	nontarget	n/a	n/a
182.2617188	n/a	46659	C	nontarget	n/a	n/a
183.8320312	n/a	47061	D	nontarget	n/a	n/a
185.421875	n/a	47468	B	nontarget	n/a	n/a
186.9960938	n/a	47871	A	nontarget	n/a	n/a
188.5664062	n/a	48273	A	nontarget	n/a	n/a
190.140625	n/a	48676	C	nontarget	n/a	n/a
191.7148438	n/a	49079	D	nontarget	n/a	n/a
193.2851562	n/a	49481	A	target	hit	832.0312
194.1171875	n/a	49694	rt	n/a	hit	832.0312
194.875	n/a	49888	D	nontarget	n/a	n/a
196.4453125	n/a	50290	D	target	hit	523.4375
196.96875	n/a	50424	rt	n/a	hit	523.4375
198.0195312	n/a	50693	A	target	hit	843.75
198.8632812	n/a	50909	rt	n/a	hit	843.75
199.59375	n/a	51096	B	nontarget	n/a	n/a
201.1679688	n/a	51499	A	nontarget	n/a	n/a
202.7421875	n/a	51902	D	nontarget	n/a	n/a
204.328125	n/a	52308	A	nontarget	n/a	n/a
205.9023438	n/a	52711	C	nontarget	n/a	n/a
207.4726562	n/a	53113	D	target	hit	617.1875
208.0898438	n/a	53271	rt	n/a	hit	617.1875
209.046875	n/a	53516	B	nontarget	n/a	n/a
210.6210938	n/a	53919	C	target	hit	699.2188
211.3203125	n/a	54098	rt	n/a	hit	699.2188
212.1914062	n/a	54321	D	target	hit	742.1875
212.9335938	n/a	54511	rt	n/a	hit	742.1875
213.7539062	n/a	54721	A	nontarget	n/a	n/a
215.3398438	n/a	55127	B	nontarget	n/a	n/a
216.9140625	n/a	55530	A	nontarget	n/a	n/a
218.4882812	n/a	55933	C	nontarget	n/a	n/a
220.0625	n/a	56336	C	nontarget	n/a	n/a
221.6328125	n/a	56738	C	nontarget	n/a	n/a
223.21875	n/a	57144	D	nontarget	n/a	n/a
224.7929688	n/a	57547	A	nontarget	n/a	n/a
226.3671875	n/a	57950	D	nontarget	n/a	n/a
227.9414062	n/a	58353	A	nontarget	n/a	n/a
229.5117188	n/a	58755	D	nontarget	n/a	n/a
231.0898438	n/a	59159	D	target	hit	609.375
231.6992188	n/a	59315	rt	n/a	hit	609.375
232.671875	n/a	59564	B	nontarget	n/a	n/a
234.2460938	n/a	59967	D	target	hit	582.0312
234.828125	n/a	60116	rt	n/a	hit	582.0312
235.8203125	n/a	60370	C	nontarget	n/a	n/a
237.390625	n/a	60772	D	nontarget	n/a	n/a
238.9648438	n/a	61175	C	nontarget	n/a	n/a
240.5390625	n/a	61578	B	nontarget	n/a	n/a
242.125	n/a	61984	B	nontarget	n/a	n/a
243.6992188	n/a	62387	D	nontarget	n/a	n/a
245.2734375	n/a	62790	B	target	hit	667.9688
245.9414062	n/a	62961	rt	n/a	hit	667.9688
246.84375	n/a	63192	D	nontarget	n/a	n/a
248.4179688	n/a	63595	D	target	miss	n/a
249.9921875	n/a	63998	D	nontarget	miss	n/a
251.578125	n/a	64404	C	nontarget	n/a	n/a
253.1523438	n/a	64807	C	nontarget	n/a	n/a
254.7265625	n/a	65210	A	nontarget	n/a	n/a
256.3007812	n/a	65613	D	nontarget	false_alarm	707.0312
257.0078125	n/a	65794	rt	n/a	false_alarm	707.0312
257.8710938	n/a	66015	B	nontarget	n/a	n/a
259.4453125	n/a	66418	B	nontarget	n/a	n/a
261.0078125	n/a	66818	B	nontarget	n/a	n/a
262.5898438	n/a	67223	A	nontarget	n/a	n/a
264.1679688	n/a	67627	D	nontarget	n/a	n/a
265.7421875	n/a	68030	A	nontarget	n/a	n/a
267.3125	n/a	68432	D	nontarget	n/a	n/a
268.8867188	n/a	68835	C	nontarget	n/a	n/a
270.4609375	n/a	69238	C	nontarget	n/a	n/a
272.0429688	n/a	69643	A	nontarget	n/a	n/a
273.6171875	n/a	70046	B	nontarget	n/a	n/a
275.1914062	n/a	70449	B	nontarget	n/a	n/a
276.765625	n/a	70852	C	nontarget	n/a	n/a
278.3398438	n/a	71255	B	target	hit	1019.5312
279.359375	n/a	71516	rt	n/a	hit	1019.5312
279.9101562	n/a	71657	B	target	hit	527.3438
280.4375	n/a	71792	rt	n/a	hit	527.3438
281.484375	n/a	72060	B	nontarget	n/a	n/a
283.0585938	n/a	72463	A	nontarget	n/a	n/a
284.6328125	n/a	72866	C	nontarget	n/a	n/a
286.2070312	n/a	73269	D	nontarget	n/a	n/a
287.78125	n/a	73672	C	nontarget	n/a	n/a
289.3515625	n/a	74074	A	nontarget	n/a	n/a
290.9140625	n/a	74474	A	nontarget	n/a	n/a
292.484375	n/a	74876	C	target	hit	730.4688
293.2148438	n/a	75063	rt	n/a	hit	730.4688
294.0585938	n/a	75279	B	nontarget	n/a	n/a
295.6289062	n/a	75681	C	nontarget	n/a	n/a
297.203125	n/a	76084	B	nontarget	n/a	n/a
298.7773438	n/a	76487	C	nontarget	n/a	n/a
300.3515625	n/a	76890	A	nontarget	n/a	n/a
301.9257812	n/a	77293	C	nontarget	false_alarm	738.2812
302.6640625	n/a	77482	rt	n/a	false_alarm	738.2812
303.4960938	n/a	77695	D	nontarget	n/a	n/a
305.0703125	n/a	78098	C	nontarget	n/a	n/a
306.6445312	n/a	78501	A	nontarget	n/a	n/a
308.21875	n/a	78904	D	target	miss	n/a
309.7890625	n/a	79306	B	nontarget	miss	n/a
311.3632812	n/a	79709	C	nontarget	n/a	n/a
312.9492188	n/a	80115	C	nontarget	n/a	n/a
314.5234375	n/a	80518	D	nontarget	n/a	n/a
316.0976562	n/a	80921	C	target	hit	722.6562
316.8203125	n/a	81106	rt	n/a	hit	722.6562
317.671875	n/a	81324	A	nontarget	n/a	n/a
319.2460938	n/a	81727	C	nontarget	n/a	n/a
320.8203125	n/a	82130	B	nontarget	n/a	n/a
322.4023438	n/a	82535	B	nontarget	n/a	n/a
323.9804688	n/a	82939	A	nontarget	n/a	n/a
325.5507812	n/a	83341	D	nontarget	n/a	n/a
327.125	n/a	83744	D	nontarget	n/a	n/a
328.6992188	n/a	84147	B	nontarget	n/a	n/a
330.2695312	n/a	84549	C	nontarget	n/a	n/a
331.8554688	n/a	84955	B	nontarget	n/a	n/a
333.4296875	n/a	85358	D	nontarget	n/a	n/a
335.0039062	n/a	85761	B	nontarget	n/a	n/a
336.578125	n/a	86164	C	nontarget	false_alarm	1113.2812
337.6914062	n/a	86449	rt	n/a	false_alarm	1113.2812
338.1484375	n/a	86566	C	nontarget	n/a	n/a
339.7226562	n/a	86969	C	nontarget	n/a	n/a
341.296875	n/a	87372	C	target	miss	n/a
342.8710938	n/a	87775	A	nontarget	miss	n/a
344.4453125	n/a	88178	A	nontarget	n/a	n/a
346.0195312	n/a	88581	A	nontarget	n/a	n/a
347.5898438	n/a	88983	D	nontarget	n/a	n/a
349.1640625	n/a	89386	C	nontarget	n/a	n/a
350.7382812	n/a	89789	C	nontarget	n/a	n/a
352.3242188	n/a	90195	B	nontarget	n/a	n/a
353.8984375	n/a	90598	D	nontarget	n/a	n/a
355.46875	n/a	91000	A	nontarget	n/a	n/a
357.046875	n/a	91404	A	nontarget	n/a	n/a
358.6171875	n/a	91806	D	target	hit	578.125
359.1953125	n/a	91954	rt	n/a	hit	578.125
360.1914062	n/a	92209	D	nontarget	n/a	n/a
361.75	n/a	92608	B	nontarget	n/a	n/a
363.3242188	n/a	93011	C	nontarget	n/a	n/a
364.8984375	n/a	93414	C	nontarget	n/a	n/a
366.46875	n/a	93816	D	nontarget	n/a	n/a
368.0429688	n/a	94219	D	nontarget	n/a	n/a
369.6171875	n/a	94622	C	target	hit	714.8438
370.3320312	n/a	94805	rt	n/a	hit	714.8438
371.1875	n/a	95024	C	nontarget	n/a	n/a
372.75	n/a	95424	A	nontarget	n/a	n/a
374.3359375	n/a	95830	C	target	hit	535.1562
374.8710938	n/a	95967	rt	n/a	hit	535.1562
375.9101562	n/a	96233	C	target	hit	539.0625
376.4492188	n/a	96371	rt	n/a	hit	539.0625
377.4804688	n/a	96635	D	nontarget	n/a	n/a
379.0546875	n/a	97038	A	nontarget	n/a	n/a
380.6289062	n/a	97441	D	nontarget	n/a	n/a
382.203125	n/a	97844	C	nontarget	n/a	n/a
383.7617188	n/a	98243	A	target	hit	773.4375
384.5351562	n/a	98441	rt	n/a	hit	773.4375
385.3359375	n/a	98646	B	nontarget	n/a	n/a
386.9101562	n/a	99049	D	nontarget	n/a	n/a
388.4804688	n/a	99451	C	nontarget	n/a	n/a
390.0546875	n/a	99854	A	nontarget	n/a	n/a
391.6289062	n/a	100257	A	nontarget	n/a	n/a
393.203125	n/a	100660	D	nontarget	n/a	n/a
394.7773438	n/a	101063	B	nontarget	n/a	n/a
396.3632812	n/a	101469	C	nontarget	n/a	n/a
397.9375	n/a	101872	A	nontarget	n/a	n/a
399.5078125	n/a	102274	B	target	miss	n/a
401.0820312	n/a	102677	A	nontarget	miss	n/a
402.65625	n/a	103080	B	nontarget	n/a	n/a
404.2421875	n/a	103486	D	nontarget	n/a	n/a
405.8164062	n/a	103889	D	nontarget	n/a	n/a
407.3867188	n/a	104291	D	nontarget	n/a	n/a
408.9609375	n/a	104694	C	nontarget	n/a	n/a
410.5390625	n/a	105098	B	nontarget	n/a	n/a
412.109375	n/a	105500	A	nontarget	n/a	n/a
413.671875	n/a	105900	B	nontarget	n/a	n/a
415.2539062	n/a	106305	C	nontarget	n/a	n/a
416.828125	n/a	106708	D	nontarget	n/a	n/a
418.4023438	n/a	107111	C	nontarget	n/a	n/a
419.9765625	n/a	107514	B	nontarget	n/a	n/a
421.546875	n/a	107916	A	nontarget	n/a	n/a
423.1210938	n/a	108319	B	nontarget	n/a	n/a
424.6835938	n/a	108719	C	nontarget	n/a	n/a
426.265625	n/a	109124	D	nontarget	n/a	n/a
427.84375	n/a	109528	B	target	hit	1089.8438
428.9335938	n/a	109807	rt	n/a	hit	1089.8438
429.4179688	n/a	109931	C	target	hit	589.8438
430.0078125	n/a	110082	rt	n/a	hit	589.8438
430.9882812	n/a	110333	C	nontarget	n/a	n/a
432.5625	n/a	110736	A	nontarget	n/a	n/a
434.1367188	n/a	111139	B	nontarget	n/a	n/a
435.71875	n/a	111544	C	target	hit	722.6562
436.4414062	n/a	111729	rt	n/a	hit	722.6562
437.2929688	n/a	111947	B	nontarget	n/a	n/a
438.8671875	n/a	112350	C	nontarget	n/a	n/a
440.4414062	n/a	112753	A	nontarget	n/a	n/a
442.0195312	n/a	113157	A	nontarget	n/a	n/a
443.6015625	n/a	113562	D	nontarget	n/a	n/a
445.1757812	n/a	113965	A	target	hit	679.6875
445.8554688	n/a	114139	rt	n/a	hit	679.6875
446.7460938	n/a	114367	B	nontarget	n/a	n/a
448.3203125	n/a	114770	C	nontarget	n/a	n/a
449.8984375	n/a	115174	A	target	hit	582.0312
450.4804688	n/a	115323	rt	n/a	hit	582.0312
451.46875	n/a	115576	D	nontarget	n/a	n/a
453.0546875	n/a	115982	A	nontarget	n/a	n/a
454.625	n/a	116384	B	nontarget	n/a	n/a
456.203125	n/a	116788	D	target	hit	503.9062
456.7070312	n/a	116917	rt	n/a	hit	503.9062
457.7773438	n/a	117191	A	target	hit	605.4688
458.3828125	n/a	117346	rt	n/a	hit	605.4688
459.3476562	n/a	117593	B	target	hit	710.9375
460.0585938	n/a	117775	rt	n/a	hit	710.9375
460.921875	n/a	117996	B	nontarget	n/a	n/a
462.5078125	n/a	118402	B	nontarget	n/a	n/a
464.078125	n/a	118804	C	nontarget	n/a	n/a
465.6523438	n/a	119207	D	nontarget	n/a	n/a
467.2265625	n/a	119610	A	nontarget	n/a	n/a
