onset	duration	sample	value	response_type	congruence	response_time	response_out_of_range	largeletter	smallletter
17.078125	n/a	4372	largeHSmallH	correct	congruent	0.51953	no	H	H
17.59765625	n/a	4505	responseLargeH	correct	n/a	0.51953	no	n/a	n/a
18.67578125	n/a	4781	largeHSmallT	correct	incongruent	0.5	no	H	T
19.17578125	n/a	4909	responseLargeH	correct	n/a	0.5	no	n/a	n/a
20.25	n/a	5184	largeTSmallH	correct	incongruent	0.43359	no	T	H
20.68359375	n/a	5295	responseLargeT	correct	n/a	0.43359	no	n/a	n/a
21.75390625	n/a	5569	largeTSmallH	correct	incongruent	0.48828	no	T	H
22.2421875	n/a	5694	responseLargeT	correct	n/a	0.48828	no	n/a	n/a
23.31640625	n/a	5969	largeHSmallH	correct	congruent	0.48047	no	H	H
23.796875	n/a	6092	responseLargeH	correct	n/a	0.48047	no	n/a	n/a
24.875	n/a	6368	largeHSmallT	error	incongruent	0.46094	no	H	T
25.3359375	n/a	6486	responseLargeT	error	n/a	0.46094	no	n/a	n/a
26.41015625	n/a	6761	largeTSmallH	correct	incongruent	0.5625	no	T	H
26.97265625	n/a	6905	responseLargeT	correct	n/a	0.5625	no	n/a	n/a
28.05078125	n/a	7181	largeHSmallH	correct	congruent	0.44141	no	H	H
28.4921875	n/a	7294	responseLargeH	correct	n/a	0.44141	no	n/a	n/a
29.5703125	n/a	7570	largeHSmallH	correct	congruent	0.62109	no	H	H
30.19140625	n/a	7729	responseLargeH	correct	n/a	0.62109	no	n/a	n/a
31.26171875	n/a	8003	largeHSmallH	correct	congruent	0.47656	no	H	H
31.73828125	n/a	8125	responseLargeH	correct	n/a	0.47656	no	n/a	n/a
32.8203125	n/a	8402	largeTSmallH	correct	incongruent	0.46875	no	T	H
33.2890625	n/a	8522	responseLargeT	correct	n/a	0.46875	no	n/a	n/a
34.35546875	n/a	8795	largeTSmallH	correct	incongruent	0.45312	no	T	H
34.80859375	n/a	8911	responseLargeT	correct	n/a	0.45312	no	n/a	n/a
35.875	n/a	9184	largeHSmallH	correct	congruent	0.39453	no	H	H
36.26953125	n/a	9285	responseLargeH	correct	n/a	0.39453	no	n/a	n/a
37.34375	n/a	9560	largeHSmallH	correct	congruent	0.44922	no	H	H
37.79296875	n/a	9675	responseLargeH	correct	n/a	0.44922	no	n/a	n/a
38.875	n/a	9952	largeHSmallH	correct	congruent	0.44141	no	H	H
39.31640625	n/a	10065	responseLargeH	correct	n/a	0.44141	no	n/a	n/a
40.3828125	n/a	10338	largeTSmallH	correct	incongruent	0.44531	no	T	H
40.828125	n/a	10452	responseLargeT	correct	n/a	0.44531	no	n/a	n/a
41.90234375	n/a	10727	largeTSmallH	correct	incongruent	0.44922	no	T	H
42.3515625	n/a	10842	responseLargeT	correct	n/a	0.44922	no	n/a	n/a
43.421875	n/a	11116	largeHSmallT	correct	incongruent	0.53906	no	H	T
43.9609375	n/a	11254	responseLargeH	correct	n/a	0.53906	no	n/a	n/a
45.03515625	n/a	11529	largeTSmallT	correct	congruent	0.5625	no	T	T
45.59765625	n/a	11673	responseLargeT	correct	n/a	0.5625	no	n/a	n/a
46.67578125	n/a	11949	largeHSmallT	correct	incongruent	0.44141	no	H	T
47.1171875	n/a	12062	responseLargeH	correct	n/a	0.44141	no	n/a	n/a
48.18359375	n/a	12335	largeTSmallH	correct	incongruent	0.65625	no	T	H
48.83984375	n/a	12503	responseLargeT	correct	n/a	0.65625	no	n/a	n/a
49.9140625	n/a	12778	largeHSmallH	correct	congruent	0.42578	no	H	H
50.33984375	n/a	12887	responseLargeH	correct	n/a	0.42578	no	n/a	n/a
51.41015625	n/a	13161	largeTSmallH	correct	incongruent	0.55859	no	T	H
51.96875	n/a	13304	responseLargeT	correct	n/a	0.55859	no	n/a	n/a
53.03515625	n/a	13577	largeHSmallH	correct	congruent	0.41016	no	H	H
53.4453125	n/a	13682	responseLargeH	correct	n/a	0.41016	no	n/a	n/a
54.515625	n/a	13956	largeTSmallH	error	incongruent	0.48047	no	T	H
54.99609375	n/a	14079	responseLargeH	error	n/a	0.48047	no	n/a	n/a
56.0625	n/a	14352	largeHSmallH	correct	congruent	0.54297	no	H	H
56.60546875	n/a	14491	responseLargeH	correct	n/a	0.54297	no	n/a	n/a
57.6875	n/a	14768	largeHSmallT	correct	incongruent	0.85156	no	H	T
58.5390625	n/a	14986	responseLargeH	correct	n/a	0.85156	no	n/a	n/a
59.609375	n/a	15260	largeHSmallH	correct	congruent	0.48047	no	H	H
60.08984375	n/a	15383	responseLargeH	correct	n/a	0.48047	no	n/a	n/a
61.15625	n/a	15656	largeHSmallH	correct	congruent	0.48047	no	H	H
61.63671875	n/a	15779	responseLargeH	correct	n/a	0.48047	no	n/a	n/a
62.703125	n/a	16052	largeHSmallH	correct	congruent	0.46484	no	H	H
63.16796875	n/a	16171	responseLargeH	correct	n/a	0.46484	no	n/a	n/a
64.234375	n/a	16444	largeHSmallT	correct	incongruent	0.48047	no	H	T
64.71484375	n/a	16567	responseLargeH	correct	n/a	0.48047	no	n/a	n/a
65.79296875	n/a	16843	largeTSmallH	correct	incongruent	0.41406	no	T	H
66.20703125	n/a	16949	responseLargeT	correct	n/a	0.41406	no	n/a	n/a
67.2734375	n/a	17222	largeHSmallH	correct	congruent	0.45703	no	H	H
67.73046875	n/a	17339	responseLargeH	correct	n/a	0.45703	no	n/a	n/a
68.80859375	n/a	17615	largeHSmallT	correct	incongruent	0.46875	no	H	T
69.27734375	n/a	17735	responseLargeH	correct	n/a	0.46875	no	n/a	n/a
70.35546875	n/a	18011	largeTSmallT	correct	congruent	0.44922	no	T	T
70.8046875	n/a	18126	responseLargeT	correct	n/a	0.44922	no	n/a	n/a
71.875	n/a	18400	largeTSmallH	correct	incongruent	0.40234	no	T	H
72.27734375	n/a	18503	responseLargeT	correct	n/a	0.40234	no	n/a	n/a
73.33984375	n/a	18775	largeHSmallH	correct	congruent	0.46875	no	H	H
73.80859375	n/a	18895	responseLargeH	correct	n/a	0.46875	no	n/a	n/a
74.875	n/a	19168	largeHSmallH	correct	congruent	0.44531	no	H	H
75.3203125	n/a	19282	responseLargeH	correct	n/a	0.44531	no	n/a	n/a
76.39453125	n/a	19557	largeHSmallT	correct	incongruent	0.43359	no	H	T
76.828125	n/a	19668	responseLargeH	correct	n/a	0.43359	no	n/a	n/a
77.90234375	n/a	19943	largeTSmallT	correct	congruent	0.48828	no	T	T
78.390625	n/a	20068	responseLargeT	correct	n/a	0.48828	no	n/a	n/a
79.4609375	n/a	20342	largeHSmallT	correct	incongruent	0.41797	no	H	T
79.87890625	n/a	20449	responseLargeH	correct	n/a	0.41797	no	n/a	n/a
80.953125	n/a	20724	largeTSmallT	correct	congruent	0.50391	no	T	T
81.45703125	n/a	20853	responseLargeT	correct	n/a	0.50391	no	n/a	n/a
82.5390625	n/a	21130	largeTSmallT	correct	congruent	0.50781	no	T	T
83.046875	n/a	21260	responseLargeT	correct	n/a	0.50781	no	n/a	n/a
84.12890625	n/a	21537	largeTSmallH	correct	incongruent	0.57422	no	T	H
84.703125	n/a	21684	responseLargeT	correct	n/a	0.57422	no	n/a	n/a
85.78125	n/a	21960	largeTSmallT	correct	congruent	0.41016	no	T	T
86.19140625	n/a	22065	responseLargeT	correct	n/a	0.41016	no	n/a	n/a
87.26171875	n/a	22339	largeTSmallT	correct	congruent	0.44531	no	T	T
87.70703125	n/a	22453	responseLargeT	correct	n/a	0.44531	no	n/a	n/a
88.78125	n/a	22728	largeHSmallH	correct	congruent	0.45703	no	H	H
89.23828125	n/a	22845	responseLargeH	correct	n/a	0.45703	no	n/a	n/a
90.30078125	n/a	23117	largeTSmallT	correct	congruent	0.37891	no	T	T
90.6796875	n/a	23214	responseLargeT	correct	n/a	0.37891	no	n/a	n/a
91.75390625	n/a	23489	largeHSmallH	correct	congruent	0.52734	no	H	H
92.28125	n/a	23624	responseLargeH	correct	n/a	0.52734	no	n/a	n/a
93.35546875	n/a	23899	largeTSmallH	correct	incongruent	0.39844	no	T	H
93.75390625	n/a	24001	responseLargeT	correct	n/a	0.39844	no	n/a	n/a
94.8203125	n/a	24274	largeHSmallH	correct	congruent	0.44531	no	H	H
95.265625	n/a	24388	responseLargeH	correct	n/a	0.44531	no	n/a	n/a
96.33984375	n/a	24663	largeHSmallH	correct	congruent	0.44531	no	H	H
96.78515625	n/a	24777	responseLargeH	correct	n/a	0.44531	no	n/a	n/a
97.859375	n/a	25052	largeHSmallH	correct	congruent	0.46484	no	H	H
98.32421875	n/a	25171	responseLargeH	correct	n/a	0.46484	no	n/a	n/a
99.39453125	n/a	25445	largeTSmallT	correct	congruent	0.375	no	T	T
99.76953125	n/a	25541	responseLargeT	correct	n/a	0.375	no	n/a	n/a
100.8476562	n/a	25817	largeHSmallT	correct	incongruent	0.46484	no	H	T
101.3125	n/a	25936	responseLargeH	correct	n/a	0.46484	no	n/a	n/a
102.3789062	n/a	26209	largeHSmallH	correct	congruent	0.48438	no	H	H
102.8632812	n/a	26333	responseLargeH	correct	n/a	0.48438	no	n/a	n/a
103.9414062	n/a	26609	largeHSmallT	correct	incongruent	0.49219	no	H	T
104.4335938	n/a	26735	responseLargeH	correct	n/a	0.49219	no	n/a	n/a
105.5	n/a	27008	largeTSmallT	correct	congruent	0.44141	no	T	T
105.9414062	n/a	27121	responseLargeT	correct	n/a	0.44141	no	n/a	n/a
107.0078125	n/a	27394	largeTSmallT	correct	congruent	0.48047	no	T	T
107.4882812	n/a	27517	responseLargeT	correct	n/a	0.48047	no	n/a	n/a
108.5546875	n/a	27790	largeHSmallT	correct	incongruent	0.89062	no	H	T
109.4453125	n/a	28018	responseLargeH	correct	n/a	0.89062	no	n/a	n/a
110.5273438	n/a	28295	largeTSmallT	correct	congruent	0.48047	no	T	T
111.0078125	n/a	28418	responseLargeT	correct	n/a	0.48047	no	n/a	n/a
112.0742188	n/a	28691	largeTSmallH	correct	incongruent	0.53125	no	T	H
112.6054688	n/a	28827	responseLargeT	correct	n/a	0.53125	no	n/a	n/a
113.671875	n/a	29100	largeHSmallT	correct	incongruent	0.48828	no	H	T
114.1601562	n/a	29225	responseLargeH	correct	n/a	0.48828	no	n/a	n/a
115.234375	n/a	29500	largeTSmallT	correct	congruent	0.48828	no	T	T
115.7226562	n/a	29625	responseLargeT	correct	n/a	0.48828	no	n/a	n/a
116.7929688	n/a	29899	largeTSmallH	correct	incongruent	0.72656	no	T	H
117.5195312	n/a	30085	responseLargeT	correct	n/a	0.72656	no	n/a	n/a
118.578125	n/a	30356	largeTSmallH	correct	incongruent	0.42578	no	T	H
119.0039062	n/a	30465	responseLargeT	correct	n/a	0.42578	no	n/a	n/a
120.0859375	n/a	30742	largeTSmallH	correct	incongruent	0.41406	no	T	H
120.5	n/a	30848	responseLargeT	correct	n/a	0.41406	no	n/a	n/a
121.5664062	n/a	31121	largeHSmallT	correct	incongruent	0.48047	no	H	T
122.046875	n/a	31244	responseLargeH	correct	n/a	0.48047	no	n/a	n/a
123.125	n/a	31520	largeHSmallT	error	incongruent	0.44141	no	H	T
123.5664062	n/a	31633	responseLargeT	error	n/a	0.44141	no	n/a	n/a
124.6328125	n/a	31906	largeTSmallT	correct	congruent	0.43359	no	T	T
125.0664062	n/a	32017	responseLargeT	correct	n/a	0.43359	no	n/a	n/a
126.140625	n/a	32292	largeHSmallH	correct	congruent	0.48438	no	H	H
126.625	n/a	32416	responseLargeH	correct	n/a	0.48438	no	n/a	n/a
127.6992188	n/a	32691	largeTSmallH	correct	incongruent	0.54297	no	T	H
128.2421875	n/a	32830	responseLargeT	correct	n/a	0.54297	no	n/a	n/a
129.3125	n/a	33104	largeHSmallT	error	incongruent	0.57812	no	H	T
129.890625	n/a	33252	responseLargeT	error	n/a	0.57812	no	n/a	n/a
130.953125	n/a	33524	largeTSmallT	correct	congruent	0.4375	no	T	T
131.390625	n/a	33636	responseLargeT	correct	n/a	0.4375	no	n/a	n/a
132.4609375	n/a	33910	largeTSmallH	correct	incongruent	0.50781	no	T	H
132.96875	n/a	34040	responseLargeT	correct	n/a	0.50781	no	n/a	n/a
134.046875	n/a	34316	largeHSmallT	correct	incongruent	0.41406	no	H	T
134.4609375	n/a	34422	responseLargeH	correct	n/a	0.41406	no	n/a	n/a
135.5273438	n/a	34695	largeTSmallT	correct	congruent	0.41016	no	T	T
135.9375	n/a	34800	responseLargeT	correct	n/a	0.41016	no	n/a	n/a
137.0078125	n/a	35074	largeHSmallH	correct	congruent	0.47656	no	H	H
137.484375	n/a	35196	responseLargeH	correct	n/a	0.47656	no	n/a	n/a
138.5546875	n/a	35470	largeTSmallH	correct	incongruent	0.41797	no	T	H
138.9726562	n/a	35577	responseLargeT	correct	n/a	0.41797	no	n/a	n/a
140.046875	n/a	35852	largeHSmallT	correct	incongruent	0.44922	no	H	T
140.4960938	n/a	35967	responseLargeH	correct	n/a	0.44922	no	n/a	n/a
141.5664062	n/a	36241	largeHSmallH	correct	congruent	0.48828	no	H	H
142.0546875	n/a	36366	responseLargeH	correct	n/a	0.48828	no	n/a	n/a
143.125	n/a	36640	largeHSmallT	correct	incongruent	0.57031	no	H	T
143.6953125	n/a	36786	responseLargeH	correct	n/a	0.57031	no	n/a	n/a
144.765625	n/a	37060	largeTSmallH	correct	incongruent	0.47266	no	T	H
145.2382812	n/a	37181	responseLargeT	correct	n/a	0.47266	no	n/a	n/a
146.3125	n/a	37456	largeHSmallH	correct	congruent	0.46875	no	H	H
146.78125	n/a	37576	responseLargeH	correct	n/a	0.46875	no	n/a	n/a
147.8476562	n/a	37849	largeHSmallH	correct	congruent	0.48047	no	H	H
148.328125	n/a	37972	responseLargeH	correct	n/a	0.48047	no	n/a	n/a
149.390625	n/a	38244	largeTSmallT	correct	congruent	0.45312	no	T	T
149.84375	n/a	38360	responseLargeT	correct	n/a	0.45312	no	n/a	n/a
150.9140625	n/a	38634	largeHSmallT	correct	incongruent	0.44531	no	H	T
151.359375	n/a	38748	responseLargeH	correct	n/a	0.44531	no	n/a	n/a
152.4335938	n/a	39023	largeHSmallH	correct	congruent	0.55859	no	H	H
152.9921875	n/a	39166	responseLargeH	correct	n/a	0.55859	no	n/a	n/a
154.0585938	n/a	39439	largeTSmallH	correct	incongruent	0.52734	no	T	H
154.5859375	n/a	39574	responseLargeT	correct	n/a	0.52734	no	n/a	n/a
155.6445312	n/a	39845	largeTSmallT	correct	congruent	0.58203	no	T	T
156.2265625	n/a	39994	responseLargeT	correct	n/a	0.58203	no	n/a	n/a
157.3125	n/a	40272	largeTSmallH	error	incongruent	0.59375	no	T	H
157.90625	n/a	40424	responseLargeH	error	n/a	0.59375	no	n/a	n/a
158.9804688	n/a	40699	largeTSmallH	correct	incongruent	0.44922	no	T	H
159.4296875	n/a	40814	responseLargeT	correct	n/a	0.44922	no	n/a	n/a
160.5	n/a	41088	largeTSmallT	correct	congruent	0.42578	no	T	T
160.9257812	n/a	41197	responseLargeT	correct	n/a	0.42578	no	n/a	n/a
162.0039062	n/a	41473	largeHSmallT	correct	incongruent	0.49219	no	H	T
162.4960938	n/a	41599	responseLargeH	correct	n/a	0.49219	no	n/a	n/a
163.5664062	n/a	41873	largeHSmallT	correct	incongruent	0.4375	no	H	T
164.0039062	n/a	41985	responseLargeH	correct	n/a	0.4375	no	n/a	n/a
165.0703125	n/a	42258	largeTSmallH	correct	incongruent	0.43359	no	T	H
165.5039062	n/a	42369	responseLargeT	correct	n/a	0.43359	no	n/a	n/a
166.5664062	n/a	42641	largeTSmallT	correct	congruent	0.44922	no	T	T
167.015625	n/a	42756	responseLargeT	correct	n/a	0.44922	no	n/a	n/a
168.0859375	n/a	43030	largeTSmallT	correct	congruent	0.48438	no	T	T
168.5703125	n/a	43154	responseLargeT	correct	n/a	0.48438	no	n/a	n/a
169.6445312	n/a	43429	largeHSmallT	correct	incongruent	0.46484	no	H	T
170.109375	n/a	43548	responseLargeH	correct	n/a	0.46484	no	n/a	n/a
171.1640625	n/a	43818	largeHSmallH	correct	congruent	0.48828	no	H	H
171.6523438	n/a	43943	responseLargeH	correct	n/a	0.48828	no	n/a	n/a
172.7109375	n/a	44214	largeHSmallH	correct	congruent	0.46875	no	H	H
173.1796875	n/a	44334	responseLargeH	correct	n/a	0.46875	no	n/a	n/a
174.2460938	n/a	44607	largeTSmallH	correct	incongruent	0.46875	no	T	H
174.7148438	n/a	44727	responseLargeT	correct	n/a	0.46875	no	n/a	n/a
175.7929688	n/a	45003	largeHSmallH	correct	congruent	0.4375	no	H	H
176.2304688	n/a	45115	responseLargeH	correct	n/a	0.4375	no	n/a	n/a
177.296875	n/a	45388	largeHSmallT	correct	incongruent	0.42578	no	H	T
177.7226562	n/a	45497	responseLargeH	correct	n/a	0.42578	no	n/a	n/a
178.8046875	n/a	45774	largeTSmallH	correct	incongruent	0.48047	no	T	H
179.2851562	n/a	45897	responseLargeT	correct	n/a	0.48047	no	n/a	n/a
180.3632812	n/a	46173	largeHSmallH	correct	congruent	0.48438	no	H	H
180.8476562	n/a	46297	responseLargeH	correct	n/a	0.48438	no	n/a	n/a
181.9257812	n/a	46573	largeHSmallH	correct	congruent	0.60938	no	H	H
182.5351562	n/a	46729	responseLargeH	correct	n/a	0.60938	no	n/a	n/a
183.6054688	n/a	47003	largeHSmallH	correct	congruent	0.45703	no	H	H
184.0625	n/a	47120	responseLargeH	correct	n/a	0.45703	no	n/a	n/a
185.1367188	n/a	47395	largeTSmallT	correct	congruent	0.62891	no	T	T
185.765625	n/a	47556	responseLargeT	correct	n/a	0.62891	no	n/a	n/a
186.8320312	n/a	47829	largeHSmallT	correct	incongruent	0.44922	no	H	T
187.28125	n/a	47944	responseLargeH	correct	n/a	0.44922	no	n/a	n/a
188.3515625	n/a	48218	largeHSmallT	correct	incongruent	0.48438	no	H	T
188.8359375	n/a	48342	responseLargeH	correct	n/a	0.48438	no	n/a	n/a
189.9101562	n/a	48617	largeHSmallH	correct	congruent	0.52734	no	H	H
190.4375	n/a	48752	responseLargeH	correct	n/a	0.52734	no	n/a	n/a
191.4960938	n/a	49023	largeTSmallT	correct	congruent	0.45312	no	T	T
191.9492188	n/a	49139	responseLargeT	correct	n/a	0.45312	no	n/a	n/a
193.0195312	n/a	49413	largeTSmallT	correct	congruent	0.48828	no	T	T
193.5078125	n/a	49538	responseLargeT	correct	n/a	0.48828	no	n/a	n/a
194.578125	n/a	49812	largeHSmallT	correct	incongruent	0.45703	no	H	T
195.0351562	n/a	49929	responseLargeH	correct	n/a	0.45703	no	n/a	n/a
196.0976562	n/a	50201	largeTSmallH	correct	incongruent	0.48047	no	T	H
196.578125	n/a	50324	responseLargeT	correct	n/a	0.48047	no	n/a	n/a
197.6445312	n/a	50597	largeTSmallH	correct	incongruent	0.47656	no	T	H
198.1210938	n/a	50719	responseLargeT	correct	n/a	0.47656	no	n/a	n/a
199.1914062	n/a	50993	largeTSmallT	correct	congruent	0.56641	no	T	T
199.7578125	n/a	51138	responseLargeT	correct	n/a	0.56641	no	n/a	n/a
200.8320312	n/a	51413	largeHSmallH	correct	congruent	0.47266	no	H	H
201.3046875	n/a	51534	responseLargeH	correct	n/a	0.47266	no	n/a	n/a
202.3789062	n/a	51809	largeTSmallT	correct	congruent	0.48047	no	T	T
202.859375	n/a	51932	responseLargeT	correct	n/a	0.48047	no	n/a	n/a
203.9375	n/a	52208	largeTSmallT	correct	congruent	0.46875	no	T	T
204.40625	n/a	52328	responseLargeT	correct	n/a	0.46875	no	n/a	n/a
205.4726562	n/a	52601	largeTSmallT	correct	congruent	0.48047	no	T	T
205.953125	n/a	52724	responseLargeT	correct	n/a	0.48047	no	n/a	n/a
207.015625	n/a	52996	largeHSmallT	correct	incongruent	0.48828	no	H	T
207.5039062	n/a	53121	responseLargeH	correct	n/a	0.48828	no	n/a	n/a
208.5625	n/a	53392	largeTSmallT	correct	congruent	0.47266	no	T	T
209.0351562	n/a	53513	responseLargeT	correct	n/a	0.47266	no	n/a	n/a
210.109375	n/a	53788	largeHSmallT	error	incongruent	0.71094	no	H	T
210.8203125	n/a	53970	responseLargeT	error	n/a	0.71094	no	n/a	n/a
211.8828125	n/a	54242	largeHSmallH	correct	congruent	0.50391	no	H	H
212.3867188	n/a	54371	responseLargeH	correct	n/a	0.50391	no	n/a	n/a
213.4726562	n/a	54649	largeTSmallT	correct	congruent	0.46094	no	T	T
213.9335938	n/a	54767	responseLargeT	correct	n/a	0.46094	no	n/a	n/a
215.0039062	n/a	55041	largeHSmallH	correct	congruent	0.48828	no	H	H
215.4921875	n/a	55166	responseLargeH	correct	n/a	0.48828	no	n/a	n/a
216.5625	n/a	55440	largeTSmallT	correct	congruent	0.50781	no	T	T
217.0703125	n/a	55570	responseLargeT	correct	n/a	0.50781	no	n/a	n/a
218.1523438	n/a	55847	largeHSmallH	correct	congruent	0.48438	no	H	H
218.6367188	n/a	55971	responseLargeH	correct	n/a	0.48438	no	n/a	n/a
219.7109375	n/a	56246	largeTSmallH	correct	incongruent	0.45703	no	T	H
220.1679688	n/a	56363	responseLargeT	correct	n/a	0.45703	no	n/a	n/a
221.2304688	n/a	56635	largeTSmallH	correct	incongruent	0.5625	no	T	H
221.7929688	n/a	56779	responseLargeT	correct	n/a	0.5625	no	n/a	n/a
222.8710938	n/a	57055	largeHSmallT	correct	incongruent	0.46094	no	H	T
223.3320312	n/a	57173	responseLargeH	correct	n/a	0.46094	no	n/a	n/a
224.4023438	n/a	57447	largeHSmallT	correct	incongruent	0.51562	no	H	T
224.9179688	n/a	57579	responseLargeH	correct	n/a	0.51562	no	n/a	n/a
225.9921875	n/a	57854	largeTSmallH	correct	incongruent	0.50781	no	T	H
226.5	n/a	57984	responseLargeT	correct	n/a	0.50781	no	n/a	n/a
227.5625	n/a	58256	largeTSmallT	correct	congruent	0.5	no	T	T
228.0625	n/a	58384	responseLargeT	correct	n/a	0.5	no	n/a	n/a
229.125	n/a	58656	largeTSmallH	correct	incongruent	0.48438	no	T	H
229.609375	n/a	58780	responseLargeT	correct	n/a	0.48438	no	n/a	n/a
230.6835938	n/a	59055	largeHSmallT	correct	incongruent	0.45703	no	H	T
231.140625	n/a	59172	responseLargeH	correct	n/a	0.45703	no	n/a	n/a
232.21875	n/a	59448	largeHSmallH	correct	congruent	0.53906	no	H	H
232.7578125	n/a	59586	responseLargeH	correct	n/a	0.53906	no	n/a	n/a
233.8320312	n/a	59861	largeTSmallH	correct	incongruent	0.57031	no	T	H
234.4023438	n/a	60007	responseLargeT	correct	n/a	0.57031	no	n/a	n/a
235.484375	n/a	60284	largeHSmallT	correct	incongruent	0.62109	no	H	T
236.1054688	n/a	60443	responseLargeH	correct	n/a	0.62109	no	n/a	n/a
237.1757812	n/a	60717	largeTSmallT	correct	congruent	0.5	no	T	T
237.6757812	n/a	60845	responseLargeT	correct	n/a	0.5	no	n/a	n/a
238.75	n/a	61120	largeHSmallT	correct	incongruent	0.58984	no	H	T
239.3398438	n/a	61271	responseLargeH	correct	n/a	0.58984	no	n/a	n/a
240.4023438	n/a	61543	largeHSmallH	correct	congruent	0.53516	no	H	H
240.9375	n/a	61680	responseLargeH	correct	n/a	0.53516	no	n/a	n/a
242.015625	n/a	61956	largeHSmallT	correct	incongruent	0.44922	no	H	T
242.4648438	n/a	62071	responseLargeH	correct	n/a	0.44922	no	n/a	n/a
243.5351562	n/a	62345	largeHSmallH	correct	congruent	0.49609	no	H	H
244.03125	n/a	62472	responseLargeH	correct	n/a	0.49609	no	n/a	n/a
245.0976562	n/a	62745	largeHSmallT	correct	incongruent	0.44531	no	H	T
245.5429688	n/a	62859	responseLargeH	correct	n/a	0.44531	no	n/a	n/a
246.6171875	n/a	63134	largeTSmallT	correct	congruent	0.48438	no	T	T
247.1015625	n/a	63258	responseLargeT	correct	n/a	0.48438	no	n/a	n/a
248.1757812	n/a	63533	largeHSmallT	correct	incongruent	0.4375	no	H	T
248.6132812	n/a	63645	responseLargeH	correct	n/a	0.4375	no	n/a	n/a
249.6835938	n/a	63919	largeTSmallH	correct	incongruent	0.45703	no	T	H
250.140625	n/a	64036	responseLargeT	correct	n/a	0.45703	no	n/a	n/a
251.2148438	n/a	64311	largeTSmallH	error	incongruent	0.39844	no	T	H
251.6132812	n/a	64413	responseLargeH	error	n/a	0.39844	no	n/a	n/a
252.6835938	n/a	64687	largeTSmallH	correct	incongruent	0.52344	no	T	H
253.2070312	n/a	64821	responseLargeT	correct	n/a	0.52344	no	n/a	n/a
254.2695312	n/a	65093	largeTSmallH	correct	incongruent	0.53516	no	T	H
254.8046875	n/a	65230	responseLargeT	correct	n/a	0.53516	no	n/a	n/a
255.8828125	n/a	65506	largeHSmallH	correct	congruent	0.46484	no	H	H
256.3476562	n/a	65625	responseLargeH	correct	n/a	0.46484	no	n/a	n/a
257.4296875	n/a	65902	largeTSmallT	correct	congruent	0.45312	no	T	T
257.8828125	n/a	66018	responseLargeT	correct	n/a	0.45312	no	n/a	n/a
258.9492188	n/a	66291	largeTSmallH	correct	incongruent	0.625	no	T	H
259.5742188	n/a	66451	responseLargeT	correct	n/a	0.625	no	n/a	n/a
260.6445312	n/a	66725	largeHSmallT	correct	incongruent	0.44531	no	H	T
261.0898438	n/a	66839	responseLargeH	correct	n/a	0.44531	no	n/a	n/a
262.1640625	n/a	67114	largeTSmallH	correct	incongruent	0.45312	no	T	H
262.6171875	n/a	67230	responseLargeT	correct	n/a	0.45312	no	n/a	n/a
263.6835938	n/a	67503	largeTSmallT	correct	congruent	0.54688	no	T	T
264.2304688	n/a	67643	responseLargeT	correct	n/a	0.54688	no	n/a	n/a
265.3085938	n/a	67919	largeHSmallH	correct	congruent	0.50781	no	H	H
265.8164062	n/a	68049	responseLargeH	correct	n/a	0.50781	no	n/a	n/a
266.8945312	n/a	68325	largeHSmallH	correct	congruent	0.49609	no	H	H
267.390625	n/a	68452	responseLargeH	correct	n/a	0.49609	no	n/a	n/a
268.46875	n/a	68728	largeHSmallT	correct	incongruent	0.44141	no	H	T
268.9101562	n/a	68841	responseLargeH	correct	n/a	0.44141	no	n/a	n/a
269.9882812	n/a	69117	largeHSmallH	correct	congruent	0.47266	no	H	H
270.4609375	n/a	69238	responseLargeH	correct	n/a	0.47266	no	n/a	n/a
271.5234375	n/a	69510	largeTSmallH	correct	incongruent	0.59766	no	T	H
272.1210938	n/a	69663	responseLargeT	correct	n/a	0.59766	no	n/a	n/a
273.203125	n/a	69940	largeTSmallT	correct	congruent	0.52734	no	T	T
273.7304688	n/a	70075	responseLargeT	correct	n/a	0.52734	no	n/a	n/a
274.8007812	n/a	70349	largeHSmallH	correct	congruent	0.48438	no	H	H
275.2851562	n/a	70473	responseLargeH	correct	n/a	0.48438	no	n/a	n/a
276.3632812	n/a	70749	largeTSmallH	correct	incongruent	0.64453	no	T	H
277.0078125	n/a	70914	responseLargeT	correct	n/a	0.64453	no	n/a	n/a
278.0820312	n/a	71189	largeHSmallT	correct	incongruent	0.71094	no	H	T
278.7929688	n/a	71371	responseLargeH	correct	n/a	0.71094	no	n/a	n/a
279.8554688	n/a	71643	largeTSmallT	correct	congruent	0.50391	no	T	T
280.359375	n/a	71772	responseLargeT	correct	n/a	0.50391	no	n/a	n/a
281.4296875	n/a	72046	largeTSmallT	correct	congruent	0.625	no	T	T
282.0546875	n/a	72206	responseLargeT	correct	n/a	0.625	no	n/a	n/a
283.1210938	n/a	72479	largeHSmallT	correct	incongruent	0.58984	no	H	T
283.7109375	n/a	72630	responseLargeH	correct	n/a	0.58984	no	n/a	n/a
284.7890625	n/a	72906	largeTSmallT	correct	congruent	0.53125	no	T	T
285.3203125	n/a	73042	responseLargeT	correct	n/a	0.53125	no	n/a	n/a
286.390625	n/a	73316	largeTSmallT	correct	congruent	0.44141	no	T	T
286.8320312	n/a	73429	responseLargeT	correct	n/a	0.44141	no	n/a	n/a
287.9101562	n/a	73705	largeHSmallT	correct	incongruent	0.54688	no	H	T
288.4570312	n/a	73845	responseLargeH	correct	n/a	0.54688	no	n/a	n/a
289.5351562	n/a	74121	largeHSmallT	correct	incongruent	0.55078	no	H	T
290.0859375	n/a	74262	responseLargeH	correct	n/a	0.55078	no	n/a	n/a
291.1484375	n/a	74534	largeHSmallT	correct	incongruent	0.48828	no	H	T
291.6367188	n/a	74659	responseLargeH	correct	n/a	0.48828	no	n/a	n/a
292.7070312	n/a	74933	largeTSmallT	correct	congruent	0.44922	no	T	T
293.15625	n/a	75048	responseLargeT	correct	n/a	0.44922	no	n/a	n/a
294.2304688	n/a	75323	largeTSmallH	correct	incongruent	0.50391	no	T	H
294.734375	n/a	75452	responseLargeT	correct	n/a	0.50391	no	n/a	n/a
295.8007812	n/a	75725	largeHSmallT	correct	incongruent	0.49609	no	H	T
296.296875	n/a	75852	responseLargeH	correct	n/a	0.49609	no	n/a	n/a
297.3632812	n/a	76125	largeTSmallT	correct	congruent	0.43359	no	T	T
297.796875	n/a	76236	responseLargeT	correct	n/a	0.43359	no	n/a	n/a
298.8828125	n/a	76514	largeHSmallT	correct	incongruent	0.61719	no	H	T
299.5	n/a	76672	responseLargeH	correct	n/a	0.61719	no	n/a	n/a
300.5742188	n/a	76947	largeHSmallT	correct	incongruent	0.41797	no	H	T
300.9921875	n/a	77054	responseLargeH	correct	n/a	0.41797	no	n/a	n/a
302.0546875	n/a	77326	largeHSmallT	correct	incongruent	0.46484	no	H	T
302.5195312	n/a	77445	responseLargeH	correct	n/a	0.46484	no	n/a	n/a
303.5898438	n/a	77719	largeTSmallT	correct	congruent	0.48438	no	T	T
304.0742188	n/a	77843	responseLargeT	correct	n/a	0.48438	no	n/a	n/a
305.1484375	n/a	78118	largeTSmallH	correct	incongruent	0.52344	no	T	H
305.671875	n/a	78252	responseLargeT	correct	n/a	0.52344	no	n/a	n/a
306.734375	n/a	78524	largeTSmallT	correct	congruent	0.58984	no	T	T
307.3242188	n/a	78675	responseLargeT	correct	n/a	0.58984	no	n/a	n/a
308.3867188	n/a	78947	largeTSmallT	correct	congruent	0.51953	no	T	T
308.90625	n/a	79080	responseLargeT	correct	n/a	0.51953	no	n/a	n/a
309.9882812	n/a	79357	largeTSmallT	correct	congruent	0.52734	no	T	T
310.515625	n/a	79492	responseLargeT	correct	n/a	0.52734	no	n/a	n/a
311.5898438	n/a	79767	largeTSmallH	error	incongruent	0.50781	no	T	H
312.0976562	n/a	79897	responseLargeH	error	n/a	0.50781	no	n/a	n/a
313.1601562	n/a	80169	largeTSmallH	correct	incongruent	0.46484	no	T	H
313.625	n/a	80288	responseLargeT	correct	n/a	0.46484	no	n/a	n/a
314.6953125	n/a	80562	largeHSmallT	error	incongruent	0.53906	no	H	T
315.234375	n/a	80700	responseLargeT	error	n/a	0.53906	no	n/a	n/a
316.3085938	n/a	80975	largeTSmallT	correct	congruent	0.49219	no	T	T
316.8007812	n/a	81101	responseLargeT	correct	n/a	0.49219	no	n/a	n/a
317.8828125	n/a	81378	largeTSmallH	correct	incongruent	0.62891	no	T	H
318.5117188	n/a	81539	responseLargeT	correct	n/a	0.62891	no	n/a	n/a
319.5742188	n/a	81811	largeTSmallT	correct	congruent	0.49219	no	T	T
320.0664062	n/a	81937	responseLargeT	correct	n/a	0.49219	no	n/a	n/a
321.1328125	n/a	82210	largeHSmallT	correct	incongruent	0.78906	no	H	T
321.921875	n/a	82412	responseLargeH	correct	n/a	0.78906	no	n/a	n/a
322.9882812	n/a	82685	largeTSmallH	correct	incongruent	0.52344	no	T	H
323.5117188	n/a	82819	responseLargeT	correct	n/a	0.52344	no	n/a	n/a
324.5898438	n/a	83095	largeHSmallH	correct	congruent	0.42969	no	H	H
325.0195312	n/a	83205	responseLargeH	correct	n/a	0.42969	no	n/a	n/a
326.09375	n/a	83480	largeTSmallH	error	incongruent	0.61719	no	T	H
326.7109375	n/a	83638	responseLargeH	error	n/a	0.61719	no	n/a	n/a
327.7890625	n/a	83914	largeTSmallT	correct	congruent	0.53906	no	T	T
328.328125	n/a	84052	responseLargeT	correct	n/a	0.53906	no	n/a	n/a
329.4023438	n/a	84327	largeHSmallH	correct	congruent	0.59375	no	H	H
329.9960938	n/a	84479	responseLargeH	correct	n/a	0.59375	no	n/a	n/a
351.90625	n/a	90088	largeTSmallH	correct	incongruent	0.50781	no	T	H
352.4140625	n/a	90218	responseSmallH	correct	n/a	0.50781	no	n/a	n/a
353.4804688	n/a	90491	largeHSmallH	correct	congruent	0.40625	no	H	H
353.8867188	n/a	90595	responseSmallH	correct	n/a	0.40625	no	n/a	n/a
354.9609375	n/a	90870	largeTSmallH	correct	incongruent	0.44141	no	T	H
355.4023438	n/a	90983	responseSmallH	correct	n/a	0.44141	no	n/a	n/a
356.46875	n/a	91256	largeHSmallT	correct	incongruent	0.43359	no	H	T
356.9023438	n/a	91367	responseSmallT	correct	n/a	0.43359	no	n/a	n/a
357.9726562	n/a	91641	largeHSmallH	correct	congruent	0.41406	no	H	H
358.3867188	n/a	91747	responseSmallH	correct	n/a	0.41406	no	n/a	n/a
359.46875	n/a	92024	largeHSmallT	correct	incongruent	0.62891	no	H	T
360.0976562	n/a	92185	responseSmallT	correct	n/a	0.62891	no	n/a	n/a
361.1601562	n/a	92457	largeTSmallT	correct	congruent	0.53516	no	T	T
361.6953125	n/a	92594	responseSmallT	correct	n/a	0.53516	no	n/a	n/a
362.7734375	n/a	92870	largeHSmallH	correct	congruent	0.42188	no	H	H
363.1953125	n/a	92978	responseSmallH	correct	n/a	0.42188	no	n/a	n/a
364.265625	n/a	93252	largeTSmallT	correct	congruent	0.47266	no	T	T
364.7382812	n/a	93373	responseSmallT	correct	n/a	0.47266	no	n/a	n/a
365.8125	n/a	93648	largeTSmallH	correct	incongruent	0.44922	no	T	H
366.2617188	n/a	93763	responseSmallH	correct	n/a	0.44922	no	n/a	n/a
367.3320312	n/a	94037	largeTSmallT	correct	congruent	0.46094	no	T	T
367.7929688	n/a	94155	responseSmallT	correct	n/a	0.46094	no	n/a	n/a
368.8515625	n/a	94426	largeTSmallT	correct	congruent	0.47266	no	T	T
369.3242188	n/a	94547	responseSmallT	correct	n/a	0.47266	no	n/a	n/a
370.3984375	n/a	94822	largeHSmallH	correct	congruent	0.47656	no	H	H
370.875	n/a	94944	responseSmallH	correct	n/a	0.47656	no	n/a	n/a
371.9453125	n/a	95218	largeHSmallT	correct	incongruent	0.44531	no	H	T
372.390625	n/a	95332	responseSmallT	correct	n/a	0.44531	no	n/a	n/a
373.453125	n/a	95604	largeTSmallH	correct	incongruent	0.46484	no	T	H
373.9179688	n/a	95723	responseSmallH	correct	n/a	0.46484	no	n/a	n/a
374.9882812	n/a	95997	largeTSmallH	correct	incongruent	0.56641	no	T	H
375.5546875	n/a	96142	responseSmallH	correct	n/a	0.56641	no	n/a	n/a
376.625	n/a	96416	largeHSmallT	correct	incongruent	0.47656	no	H	T
377.1015625	n/a	96538	responseSmallT	correct	n/a	0.47656	no	n/a	n/a
378.171875	n/a	96812	largeTSmallT	correct	congruent	0.49219	no	T	T
378.6640625	n/a	96938	responseSmallT	correct	n/a	0.49219	no	n/a	n/a
379.734375	n/a	97212	largeHSmallT	correct	incongruent	0.53125	no	H	T
380.265625	n/a	97348	responseSmallT	correct	n/a	0.53125	no	n/a	n/a
381.3320312	n/a	97621	largeTSmallT	correct	congruent	0.44531	no	T	T
381.7773438	n/a	97735	responseSmallT	correct	n/a	0.44531	no	n/a	n/a
382.8515625	n/a	98010	largeHSmallH	correct	congruent	0.42188	no	H	H
383.2734375	n/a	98118	responseSmallH	correct	n/a	0.42188	no	n/a	n/a
384.3476562	n/a	98393	largeTSmallH	correct	incongruent	0.5	no	T	H
384.8476562	n/a	98521	responseSmallH	correct	n/a	0.5	no	n/a	n/a
385.9179688	n/a	98795	largeTSmallT	correct	congruent	0.41797	no	T	T
386.3359375	n/a	98902	responseSmallT	correct	n/a	0.41797	no	n/a	n/a
387.3984375	n/a	99174	largeTSmallH	correct	incongruent	0.46094	no	T	H
387.859375	n/a	99292	responseSmallH	correct	n/a	0.46094	no	n/a	n/a
388.9335938	n/a	99567	largeHSmallT	correct	incongruent	0.72656	no	H	T
389.6601562	n/a	99753	responseSmallT	correct	n/a	0.72656	no	n/a	n/a
390.734375	n/a	100028	largeHSmallT	correct	incongruent	0.46484	no	H	T
391.1992188	n/a	100147	responseSmallT	correct	n/a	0.46484	no	n/a	n/a
392.28125	n/a	100424	largeTSmallH	correct	incongruent	0.46875	no	T	H
392.75	n/a	100544	responseSmallH	correct	n/a	0.46875	no	n/a	n/a
393.8125	n/a	100816	largeHSmallH	error	congruent	0.46484	no	H	H
394.2773438	n/a	100935	responseSmallT	error	n/a	0.46484	no	n/a	n/a
395.3476562	n/a	101209	largeTSmallH	correct	incongruent	0.62109	no	T	H
395.96875	n/a	101368	responseSmallH	correct	n/a	0.62109	no	n/a	n/a
397.0546875	n/a	101646	largeTSmallH	correct	incongruent	0.45312	no	T	H
397.5078125	n/a	101762	responseSmallH	correct	n/a	0.45312	no	n/a	n/a
398.5742188	n/a	102035	largeTSmallT	correct	congruent	0.48828	no	T	T
399.0625	n/a	102160	responseSmallT	correct	n/a	0.48828	no	n/a	n/a
400.1328125	n/a	102434	largeTSmallH	correct	incongruent	0.67969	no	T	H
400.8125	n/a	102608	responseSmallH	correct	n/a	0.67969	no	n/a	n/a
401.8789062	n/a	102881	largeTSmallH	correct	incongruent	0.5625	no	T	H
402.4414062	n/a	103025	responseSmallH	correct	n/a	0.5625	no	n/a	n/a
403.5195312	n/a	103301	largeTSmallT	correct	congruent	0.51562	no	T	T
404.0351562	n/a	103433	responseSmallT	correct	n/a	0.51562	no	n/a	n/a
405.1054688	n/a	103707	largeHSmallT	correct	incongruent	0.45312	no	H	T
405.5585938	n/a	103823	responseSmallT	correct	n/a	0.45312	no	n/a	n/a
406.625	n/a	104096	largeTSmallH	correct	incongruent	0.53906	no	T	H
407.1640625	n/a	104234	responseSmallH	correct	n/a	0.53906	no	n/a	n/a
408.2382812	n/a	104509	largeHSmallH	correct	congruent	0.49609	no	H	H
408.734375	n/a	104636	responseSmallH	correct	n/a	0.49609	no	n/a	n/a
409.8007812	n/a	104909	largeHSmallH	correct	congruent	0.50391	no	H	H
410.3046875	n/a	105038	responseSmallH	correct	n/a	0.50391	no	n/a	n/a
411.3867188	n/a	105315	largeTSmallH	correct	incongruent	0.53906	no	T	H
411.9257812	n/a	105453	responseSmallH	correct	n/a	0.53906	no	n/a	n/a
413	n/a	105728	largeHSmallH	correct	congruent	0.47656	no	H	H
413.4765625	n/a	105850	responseSmallH	correct	n/a	0.47656	no	n/a	n/a
414.546875	n/a	106124	largeHSmallH	correct	congruent	0.45703	no	H	H
415.0039062	n/a	106241	responseSmallH	correct	n/a	0.45703	no	n/a	n/a
416.078125	n/a	106516	largeHSmallT	correct	incongruent	0.85156	no	H	T
416.9296875	n/a	106734	responseSmallT	correct	n/a	0.85156	no	n/a	n/a
418	n/a	107008	largeHSmallH	correct	congruent	0.60156	no	H	H
418.6015625	n/a	107162	responseSmallH	correct	n/a	0.60156	no	n/a	n/a
419.6640625	n/a	107434	largeHSmallH	correct	congruent	0.51953	no	H	H
420.1835938	n/a	107567	responseSmallH	correct	n/a	0.51953	no	n/a	n/a
421.2539062	n/a	107841	largeHSmallT	correct	incongruent	0.46094	no	H	T
421.7148438	n/a	107959	responseSmallT	correct	n/a	0.46094	no	n/a	n/a
422.7851562	n/a	108233	largeHSmallT	correct	incongruent	0.45312	no	H	T
423.2382812	n/a	108349	responseSmallT	correct	n/a	0.45312	no	n/a	n/a
424.3203125	n/a	108626	largeHSmallH	correct	congruent	0.55469	no	H	H
424.875	n/a	108768	responseSmallH	correct	n/a	0.55469	no	n/a	n/a
425.9335938	n/a	109039	largeTSmallT	correct	congruent	0.51953	no	T	T
426.453125	n/a	109172	responseSmallT	correct	n/a	0.51953	no	n/a	n/a
427.53125	n/a	109448	largeHSmallT	correct	incongruent	0.61719	no	H	T
428.1484375	n/a	109606	responseSmallT	correct	n/a	0.61719	no	n/a	n/a
429.2109375	n/a	109878	largeHSmallH	correct	congruent	0.58203	no	H	H
429.7929688	n/a	110027	responseSmallH	correct	n/a	0.58203	no	n/a	n/a
430.8671875	n/a	110302	largeTSmallH	correct	incongruent	0.54297	no	T	H
431.4101562	n/a	110441	responseSmallH	correct	n/a	0.54297	no	n/a	n/a
432.4804688	n/a	110715	largeTSmallT	correct	congruent	0.5	no	T	T
432.9804688	n/a	110843	responseSmallT	correct	n/a	0.5	no	n/a	n/a
434.0507812	n/a	111117	largeTSmallH	correct	incongruent	0.50391	no	T	H
434.5546875	n/a	111246	responseSmallH	correct	n/a	0.50391	no	n/a	n/a
435.625	n/a	111520	largeHSmallH	correct	congruent	0.48047	no	H	H
436.1054688	n/a	111643	responseSmallH	correct	n/a	0.48047	no	n/a	n/a
437.1835938	n/a	111919	largeHSmallT	correct	incongruent	0.41016	no	H	T
437.59375	n/a	112024	responseSmallT	correct	n/a	0.41016	no	n/a	n/a
438.6640625	n/a	112298	largeTSmallH	correct	incongruent	0.51562	no	T	H
439.1796875	n/a	112430	responseSmallH	correct	n/a	0.51562	no	n/a	n/a
440.265625	n/a	112708	largeHSmallT	correct	incongruent	0.53125	no	H	T
440.796875	n/a	112844	responseSmallT	correct	n/a	0.53125	no	n/a	n/a
441.8632812	n/a	113117	largeTSmallH	correct	incongruent	0.48047	no	T	H
442.34375	n/a	113240	responseSmallH	correct	n/a	0.48047	no	n/a	n/a
443.4101562	n/a	113513	largeHSmallT	correct	incongruent	0.4375	no	H	T
443.8476562	n/a	113625	responseSmallT	correct	n/a	0.4375	no	n/a	n/a
444.9179688	n/a	113899	largeTSmallT	correct	congruent	0.58984	no	T	T
445.5078125	n/a	114050	responseSmallT	correct	n/a	0.58984	no	n/a	n/a
446.5703125	n/a	114322	largeTSmallH	correct	incongruent	0.45703	no	T	H
447.0273438	n/a	114439	responseSmallH	correct	n/a	0.45703	no	n/a	n/a
448.1054688	n/a	114715	largeHSmallH	correct	congruent	0.55859	no	H	H
448.6640625	n/a	114858	responseSmallH	correct	n/a	0.55859	no	n/a	n/a
449.7304688	n/a	115131	largeTSmallT	correct	congruent	0.44922	no	T	T
450.1796875	n/a	115246	responseSmallT	correct	n/a	0.44922	no	n/a	n/a
451.25	n/a	115520	largeHSmallT	correct	incongruent	0.47656	no	H	T
451.7265625	n/a	115642	responseSmallT	correct	n/a	0.47656	no	n/a	n/a
452.796875	n/a	115916	largeHSmallT	correct	incongruent	0.50781	no	H	T
453.3046875	n/a	116046	responseSmallT	correct	n/a	0.50781	no	n/a	n/a
454.3710938	n/a	116319	largeHSmallH	correct	congruent	0.53125	no	H	H
454.9023438	n/a	116455	responseSmallH	correct	n/a	0.53125	no	n/a	n/a
455.9726562	n/a	116729	largeHSmallH	correct	congruent	0.60938	no	H	H
456.5820312	n/a	116885	responseSmallH	correct	n/a	0.60938	no	n/a	n/a
457.6523438	n/a	117159	largeHSmallT	correct	incongruent	0.47266	no	H	T
458.125	n/a	117280	responseSmallT	correct	n/a	0.47266	no	n/a	n/a
459.1992188	n/a	117555	largeTSmallT	correct	congruent	0.5	no	T	T
459.6992188	n/a	117683	responseSmallT	correct	n/a	0.5	no	n/a	n/a
460.7695312	n/a	117957	largeTSmallH	correct	incongruent	0.58203	no	T	H
461.3515625	n/a	118106	responseSmallH	correct	n/a	0.58203	no	n/a	n/a
462.4257812	n/a	118381	largeHSmallH	correct	congruent	0.96484	no	H	H
463.390625	n/a	118628	responseSmallH	correct	n/a	0.96484	no	n/a	n/a
464.4492188	n/a	118899	largeTSmallT	correct	congruent	0.4375	no	T	T
464.8867188	n/a	119011	responseSmallT	correct	n/a	0.4375	no	n/a	n/a
465.9570312	n/a	119285	largeHSmallT	correct	incongruent	0.48047	no	H	T
466.4375	n/a	119408	responseSmallT	correct	n/a	0.48047	no	n/a	n/a
467.5195312	n/a	119685	largeHSmallT	correct	incongruent	0.41797	no	H	T
467.9375	n/a	119792	responseSmallT	correct	n/a	0.41797	no	n/a	n/a
469.0117188	n/a	120067	largeTSmallH	correct	incongruent	0.58203	no	T	H
469.59375	n/a	120216	responseSmallH	correct	n/a	0.58203	no	n/a	n/a
470.6640625	n/a	120490	largeHSmallH	correct	congruent	0.48438	no	H	H
471.1484375	n/a	120614	responseSmallH	correct	n/a	0.48438	no	n/a	n/a
472.2226562	n/a	120889	largeHSmallH	correct	congruent	0.47266	no	H	H
472.6953125	n/a	121010	responseSmallH	correct	n/a	0.47266	no	n/a	n/a
473.7695312	n/a	121285	largeTSmallH	correct	incongruent	0.53906	no	T	H
474.3085938	n/a	121423	responseSmallH	correct	n/a	0.53906	no	n/a	n/a
475.3710938	n/a	121695	largeTSmallH	correct	incongruent	0.79297	no	T	H
476.1640625	n/a	121898	responseSmallH	correct	n/a	0.79297	no	n/a	n/a
477.2226562	n/a	122169	largeTSmallT	correct	congruent	0.44922	no	T	T
477.671875	n/a	122284	responseSmallT	correct	n/a	0.44922	no	n/a	n/a
478.7421875	n/a	122558	largeHSmallT	correct	incongruent	0.53125	no	H	T
479.2734375	n/a	122694	responseSmallT	correct	n/a	0.53125	no	n/a	n/a
480.34375	n/a	122968	largeTSmallH	correct	incongruent	0.48438	no	T	H
480.828125	n/a	123092	responseSmallH	correct	n/a	0.48438	no	n/a	n/a
481.890625	n/a	123364	largeHSmallH	correct	congruent	0.50391	no	H	H
482.3945312	n/a	123493	responseSmallH	correct	n/a	0.50391	no	n/a	n/a
483.4765625	n/a	123770	largeTSmallT	correct	congruent	0.54688	no	T	T
484.0234375	n/a	123910	responseSmallT	correct	n/a	0.54688	no	n/a	n/a
485.0898438	n/a	124183	largeTSmallH	correct	incongruent	0.47656	no	T	H
485.5664062	n/a	124305	responseSmallH	correct	n/a	0.47656	no	n/a	n/a
486.6367188	n/a	124579	largeHSmallT	correct	incongruent	0.55469	no	H	T
487.1914062	n/a	124721	responseSmallT	correct	n/a	0.55469	no	n/a	n/a
488.265625	n/a	124996	largeHSmallH	correct	congruent	0.46484	no	H	H
488.7304688	n/a	125115	responseSmallH	correct	n/a	0.46484	no	n/a	n/a
489.8085938	n/a	125391	largeTSmallH	correct	incongruent	0.50781	no	T	H
490.3164062	n/a	125521	responseSmallH	correct	n/a	0.50781	no	n/a	n/a
491.3984375	n/a	125798	largeHSmallT	correct	incongruent	0.45312	no	H	T
491.8515625	n/a	125914	responseSmallT	correct	n/a	0.45312	no	n/a	n/a
492.9296875	n/a	126190	largeTSmallT	correct	congruent	0.50781	no	T	T
493.4375	n/a	126320	responseSmallT	correct	n/a	0.50781	no	n/a	n/a
494.515625	n/a	126596	largeTSmallT	correct	congruent	0.53516	no	T	T
495.0507812	n/a	126733	responseSmallT	correct	n/a	0.53516	no	n/a	n/a
496.1171875	n/a	127006	largeHSmallT	correct	incongruent	0.48828	no	H	T
496.6054688	n/a	127131	responseSmallT	correct	n/a	0.48828	no	n/a	n/a
497.6757812	n/a	127405	largeHSmallH	correct	congruent	0.50391	no	H	H
498.1796875	n/a	127534	responseSmallH	correct	n/a	0.50391	no	n/a	n/a
499.2382812	n/a	127805	largeHSmallH	correct	congruent	0.54688	no	H	H
499.7851562	n/a	127945	responseSmallH	correct	n/a	0.54688	no	n/a	n/a
500.8632812	n/a	128221	largeHSmallT	correct	incongruent	0.5	no	H	T
501.3632812	n/a	128349	responseSmallT	correct	n/a	0.5	no	n/a	n/a
502.4375	n/a	128624	largeHSmallH	correct	congruent	0.39453	no	H	H
502.8320312	n/a	128725	responseSmallH	correct	n/a	0.39453	no	n/a	n/a
503.9023438	n/a	128999	largeHSmallH	correct	congruent	0.46484	no	H	H
504.3671875	n/a	129118	responseSmallH	correct	n/a	0.46484	no	n/a	n/a
505.4375	n/a	129392	largeTSmallH	error	incongruent	0.40234	no	T	H
505.8398438	n/a	129495	responseSmallT	error	n/a	0.40234	no	n/a	n/a
506.9179688	n/a	129771	largeHSmallH	correct	congruent	0.51562	no	H	H
507.4335938	n/a	129903	responseSmallH	correct	n/a	0.51562	no	n/a	n/a
508.5039062	n/a	130177	largeTSmallT	correct	congruent	0.49219	no	T	T
508.9960938	n/a	130303	responseSmallT	correct	n/a	0.49219	no	n/a	n/a
510.0625	n/a	130576	largeHSmallH	correct	congruent	0.49609	no	H	H
510.5585938	n/a	130703	responseSmallH	correct	n/a	0.49609	no	n/a	n/a
511.625	n/a	130976	largeTSmallT	correct	congruent	0.40234	no	T	T
512.0273438	n/a	131079	responseSmallT	correct	n/a	0.40234	no	n/a	n/a
513.0898438	n/a	131351	largeTSmallT	correct	congruent	0.51172	no	T	T
513.6015625	n/a	131482	responseSmallT	correct	n/a	0.51172	no	n/a	n/a
514.6640625	n/a	131754	largeHSmallT	correct	incongruent	0.56641	no	H	T
515.2304688	n/a	131899	responseSmallT	correct	n/a	0.56641	no	n/a	n/a
516.3046875	n/a	132174	largeHSmallT	correct	incongruent	0.47266	no	H	T
516.7773438	n/a	132295	responseSmallT	correct	n/a	0.47266	no	n/a	n/a
517.8476562	n/a	132569	largeTSmallT	correct	congruent	0.41406	no	T	T
518.2617188	n/a	132675	responseSmallT	correct	n/a	0.41406	no	n/a	n/a
519.328125	n/a	132948	largeHSmallT	correct	incongruent	0.57422	no	H	T
519.9023438	n/a	133095	responseSmallT	correct	n/a	0.57422	no	n/a	n/a
520.96875	n/a	133368	largeHSmallH	correct	congruent	0.52344	no	H	H
521.4921875	n/a	133502	responseSmallH	correct	n/a	0.52344	no	n/a	n/a
522.5703125	n/a	133778	largeHSmallT	correct	incongruent	0.4375	no	H	T
523.0078125	n/a	133890	responseSmallT	correct	n/a	0.4375	no	n/a	n/a
524.0742188	n/a	134163	largeHSmallH	error	congruent	0.44922	no	H	H
524.5234375	n/a	134278	responseSmallT	error	n/a	0.44922	no	n/a	n/a
525.5976562	n/a	134553	largeTSmallT	correct	congruent	0.58984	no	T	T
526.1875	n/a	134704	responseSmallT	correct	n/a	0.58984	no	n/a	n/a
527.2617188	n/a	134979	largeTSmallH	correct	incongruent	0.51172	no	T	H
527.7734375	n/a	135110	responseSmallH	correct	n/a	0.51172	no	n/a	n/a
528.8476562	n/a	135385	largeHSmallH	correct	congruent	0.52344	no	H	H
529.3710938	n/a	135519	responseSmallH	correct	n/a	0.52344	no	n/a	n/a
530.4492188	n/a	135795	largeHSmallT	correct	incongruent	0.58594	no	H	T
531.0351562	n/a	135945	responseSmallT	correct	n/a	0.58594	no	n/a	n/a
532.1171875	n/a	136222	largeTSmallT	correct	congruent	0.51172	no	T	T
532.6289062	n/a	136353	responseSmallT	correct	n/a	0.51172	no	n/a	n/a
533.703125	n/a	136628	largeHSmallT	correct	incongruent	0.51953	no	H	T
534.2226562	n/a	136761	responseSmallT	correct	n/a	0.51953	no	n/a	n/a
535.2890625	n/a	137034	largeTSmallT	correct	congruent	0.38672	no	T	T
535.6757812	n/a	137133	responseSmallT	correct	n/a	0.38672	no	n/a	n/a
536.7421875	n/a	137406	largeHSmallT	correct	incongruent	0.48828	no	H	T
537.2304688	n/a	137531	responseSmallT	correct	n/a	0.48828	no	n/a	n/a
538.3007812	n/a	137805	largeHSmallH	correct	congruent	0.50391	no	H	H
538.8046875	n/a	137934	responseSmallH	correct	n/a	0.50391	no	n/a	n/a
539.875	n/a	138208	largeTSmallH	correct	incongruent	0.57422	no	T	H
540.4492188	n/a	138355	responseSmallH	correct	n/a	0.57422	no	n/a	n/a
541.515625	n/a	138628	largeTSmallT	correct	congruent	0.44531	no	T	T
541.9609375	n/a	138742	responseSmallT	correct	n/a	0.44531	no	n/a	n/a
543.0351562	n/a	139017	largeTSmallT	correct	congruent	0.44141	no	T	T
543.4765625	n/a	139130	responseSmallT	correct	n/a	0.44141	no	n/a	n/a
544.5429688	n/a	139403	largeHSmallT	correct	incongruent	0.8125	no	H	T
545.3554688	n/a	139611	responseSmallT	correct	n/a	0.8125	no	n/a	n/a
546.4375	n/a	139888	largeHSmallH	correct	congruent	0.48438	no	H	H
546.921875	n/a	140012	responseSmallH	correct	n/a	0.48438	no	n/a	n/a
547.9960938	n/a	140287	largeHSmallT	correct	incongruent	0.46484	no	H	T
548.4609375	n/a	140406	responseSmallT	correct	n/a	0.46484	no	n/a	n/a
549.5429688	n/a	140683	largeHSmallH	correct	congruent	0.55469	no	H	H
550.0976562	n/a	140825	responseSmallH	correct	n/a	0.55469	no	n/a	n/a
551.1679688	n/a	141099	largeTSmallH	correct	incongruent	0.5	no	T	H
551.6679688	n/a	141227	responseSmallH	correct	n/a	0.5	no	n/a	n/a
552.7421875	n/a	141502	largeTSmallT	correct	congruent	0.41797	no	T	T
553.1601562	n/a	141609	responseSmallT	correct	n/a	0.41797	no	n/a	n/a
554.234375	n/a	141884	largeTSmallH	correct	incongruent	0.44531	no	T	H
554.6796875	n/a	141998	responseSmallH	correct	n/a	0.44531	no	n/a	n/a
555.7421875	n/a	142270	largeHSmallH	correct	congruent	0.45312	no	H	H
556.1953125	n/a	142386	responseSmallH	correct	n/a	0.45312	no	n/a	n/a
557.2617188	n/a	142659	largeTSmallT	correct	congruent	0.48047	no	T	T
557.7421875	n/a	142782	responseSmallT	correct	n/a	0.48047	no	n/a	n/a
558.8203125	n/a	143058	largeTSmallT	correct	congruent	0.42578	no	T	T
559.2460938	n/a	143167	responseSmallT	correct	n/a	0.42578	no	n/a	n/a
560.3164062	n/a	143441	largeTSmallT	correct	congruent	0.59766	no	T	T
560.9140625	n/a	143594	responseSmallT	correct	n/a	0.59766	no	n/a	n/a
561.9804688	n/a	143867	largeTSmallT	correct	congruent	0.61328	no	T	T
562.59375	n/a	144024	responseSmallT	correct	n/a	0.61328	no	n/a	n/a
563.6757812	n/a	144301	largeTSmallT	correct	congruent	0.45703	no	T	T
564.1328125	n/a	144418	responseSmallT	correct	n/a	0.45703	no	n/a	n/a
565.1953125	n/a	144690	largeTSmallT	correct	congruent	0.44531	no	T	T
565.640625	n/a	144804	responseSmallT	correct	n/a	0.44531	no	n/a	n/a
566.7148438	n/a	145079	largeTSmallH	correct	incongruent	0.50781	no	T	H
567.2226562	n/a	145209	responseSmallH	correct	n/a	0.50781	no	n/a	n/a
568.2890625	n/a	145482	largeTSmallT	correct	congruent	0.5625	no	T	T
568.8515625	n/a	145626	responseSmallT	correct	n/a	0.5625	no	n/a	n/a
569.9296875	n/a	145902	largeTSmallT	correct	congruent	0.72656	no	T	T
570.65625	n/a	146088	responseSmallT	correct	n/a	0.72656	no	n/a	n/a
571.7148438	n/a	146359	largeHSmallT	correct	incongruent	0.48047	no	H	T
572.1953125	n/a	146482	responseSmallT	correct	n/a	0.48047	no	n/a	n/a
573.2617188	n/a	146755	largeHSmallH	correct	congruent	0.42578	no	H	H
573.6875	n/a	146864	responseSmallH	correct	n/a	0.42578	no	n/a	n/a
574.7695312	n/a	147141	largeHSmallT	correct	incongruent	0.39062	no	H	T
575.1601562	n/a	147241	responseSmallT	correct	n/a	0.39062	no	n/a	n/a
576.234375	n/a	147516	largeTSmallH	correct	incongruent	0.74219	no	T	H
576.9765625	n/a	147706	responseSmallH	correct	n/a	0.74219	no	n/a	n/a
578.0625	n/a	147984	largeHSmallT	correct	incongruent	0.42578	no	H	T
578.4882812	n/a	148093	responseSmallT	correct	n/a	0.42578	no	n/a	n/a
579.5664062	n/a	148369	largeHSmallT	correct	incongruent	0.55859	no	H	T
580.125	n/a	148512	responseSmallT	correct	n/a	0.55859	no	n/a	n/a
581.2070312	n/a	148789	largeHSmallH	correct	congruent	0.39844	no	H	H
581.6054688	n/a	148891	responseSmallH	correct	n/a	0.39844	no	n/a	n/a
582.6757812	n/a	149165	largeHSmallH	correct	congruent	0.46094	no	H	H
583.1367188	n/a	149283	responseSmallH	correct	n/a	0.46094	no	n/a	n/a
584.1953125	n/a	149554	largeHSmallH	correct	congruent	0.46094	no	H	H
584.65625	n/a	149672	responseSmallH	correct	n/a	0.46094	no	n/a	n/a
585.7265625	n/a	149946	largeHSmallH	error	congruent	0.41797	no	H	H
586.1445312	n/a	150053	responseSmallT	error	n/a	0.41797	no	n/a	n/a
587.2070312	n/a	150325	largeHSmallH	correct	congruent	0.52734	no	H	H
587.734375	n/a	150460	responseSmallH	correct	n/a	0.52734	no	n/a	n/a
588.7929688	n/a	150731	largeTSmallH	correct	incongruent	0.76562	no	T	H
589.5585938	n/a	150927	responseSmallH	correct	n/a	0.76562	no	n/a	n/a
590.6210938	n/a	151199	largeTSmallH	correct	incongruent	0.44141	no	T	H
591.0625	n/a	151312	responseSmallH	correct	n/a	0.44141	no	n/a	n/a
592.140625	n/a	151588	largeHSmallT	correct	incongruent	0.50781	no	H	T
592.6484375	n/a	151718	responseSmallT	correct	n/a	0.50781	no	n/a	n/a
593.7148438	n/a	151991	largeHSmallH	correct	congruent	0.45312	no	H	H
594.1679688	n/a	152107	responseSmallH	correct	n/a	0.45312	no	n/a	n/a
595.2460938	n/a	152383	largeTSmallH	correct	incongruent	0.48047	no	T	H
595.7265625	n/a	152506	responseSmallH	correct	n/a	0.48047	no	n/a	n/a
596.8085938	n/a	152783	largeTSmallH	correct	incongruent	0.45312	no	T	H
597.2617188	n/a	152899	responseSmallH	correct	n/a	0.45312	no	n/a	n/a
598.3398438	n/a	153175	largeHSmallT	correct	incongruent	0.50781	no	H	T
598.8476562	n/a	153305	responseSmallT	correct	n/a	0.50781	no	n/a	n/a
599.9257812	n/a	153581	largeTSmallT	correct	congruent	0.5	no	T	T
600.4257812	n/a	153709	responseSmallT	correct	n/a	0.5	no	n/a	n/a
601.5	n/a	153984	largeTSmallH	correct	incongruent	0.42578	no	T	H
601.9257812	n/a	154093	responseSmallH	correct	n/a	0.42578	no	n/a	n/a
602.9960938	n/a	154367	largeTSmallH	correct	incongruent	0.48438	no	T	H
603.4804688	n/a	154491	responseSmallH	correct	n/a	0.48438	no	n/a	n/a
604.5546875	n/a	154766	largeTSmallT	correct	congruent	0.54688	no	T	T
605.1015625	n/a	154906	responseSmallT	correct	n/a	0.54688	no	n/a	n/a
606.1679688	n/a	155179	largeTSmallT	correct	congruent	0.51562	no	T	T
606.6835938	n/a	155311	responseSmallT	correct	n/a	0.51562	no	n/a	n/a
607.7539062	n/a	155585	largeHSmallH	correct	congruent	0.51953	no	H	H
608.2734375	n/a	155718	responseSmallH	correct	n/a	0.51953	no	n/a	n/a
609.3398438	n/a	155991	largeHSmallH	correct	congruent	0.53906	no	H	H
609.8789062	n/a	156129	responseSmallH	correct	n/a	0.53906	no	n/a	n/a
610.953125	n/a	156404	largeTSmallT	correct	congruent	0.44141	no	T	T
611.3945312	n/a	156517	responseSmallT	correct	n/a	0.44141	no	n/a	n/a
612.4609375	n/a	156790	largeTSmallT	correct	congruent	0.5625	no	T	T
613.0234375	n/a	156934	responseSmallT	correct	n/a	0.5625	no	n/a	n/a
614.0859375	n/a	157206	largeHSmallT	correct	incongruent	0.55078	no	H	T
614.6367188	n/a	157347	responseSmallT	correct	n/a	0.55078	no	n/a	n/a
615.7148438	n/a	157623	largeTSmallH	correct	incongruent	0.46875	no	T	H
616.1835938	n/a	157743	responseSmallH	correct	n/a	0.46875	no	n/a	n/a
617.2617188	n/a	158019	largeHSmallT	correct	incongruent	0.49609	no	H	T
617.7578125	n/a	158146	responseSmallT	correct	n/a	0.49609	no	n/a	n/a
618.8320312	n/a	158421	largeHSmallH	correct	congruent	0.43359	no	H	H
619.265625	n/a	158532	responseSmallH	correct	n/a	0.43359	no	n/a	n/a
620.328125	n/a	158804	largeHSmallH	correct	congruent	0.57812	no	H	H
620.90625	n/a	158952	responseSmallH	correct	n/a	0.57812	no	n/a	n/a
621.9804688	n/a	159227	largeHSmallT	correct	incongruent	0.43359	no	H	T
622.4140625	n/a	159338	responseSmallT	correct	n/a	0.43359	no	n/a	n/a
623.4726562	n/a	159609	largeHSmallT	correct	incongruent	0.43359	no	H	T
623.90625	n/a	159720	responseSmallT	correct	n/a	0.43359	no	n/a	n/a
624.9804688	n/a	159995	largeHSmallH	correct	congruent	0.40234	no	H	H
625.3828125	n/a	160098	responseSmallH	correct	n/a	0.40234	no	n/a	n/a
626.4609375	n/a	160374	largeHSmallT	correct	incongruent	0.44531	no	H	T
626.90625	n/a	160488	responseSmallT	correct	n/a	0.44531	no	n/a	n/a
627.9648438	n/a	160759	largeTSmallT	correct	congruent	0.5625	no	T	T
628.5273438	n/a	160903	responseSmallT	correct	n/a	0.5625	no	n/a	n/a
629.59375	n/a	161176	largeTSmallH	correct	incongruent	0.48828	no	T	H
630.0820312	n/a	161301	responseSmallH	correct	n/a	0.48828	no	n/a	n/a
631.1523438	n/a	161575	largeTSmallT	correct	congruent	0.48438	no	T	T
631.6367188	n/a	161699	responseSmallT	correct	n/a	0.48438	no	n/a	n/a
632.7148438	n/a	161975	largeTSmallH	correct	incongruent	0.44531	no	T	H
633.1601562	n/a	162089	responseSmallH	correct	n/a	0.44531	no	n/a	n/a
634.234375	n/a	162364	largeTSmallT	correct	congruent	0.42188	no	T	T
634.65625	n/a	162472	responseSmallT	correct	n/a	0.42188	no	n/a	n/a
635.7265625	n/a	162746	largeHSmallT	correct	incongruent	0.51172	no	H	T
636.2382812	n/a	162877	responseSmallT	correct	n/a	0.51172	no	n/a	n/a
637.3007812	n/a	163149	largeHSmallT	correct	incongruent	0.53906	no	H	T
637.8398438	n/a	163287	responseSmallT	correct	n/a	0.53906	no	n/a	n/a
638.9140625	n/a	163562	largeHSmallH	correct	congruent	0.48438	no	H	H
639.3984375	n/a	163686	responseSmallH	correct	n/a	0.48438	no	n/a	n/a
640.4726562	n/a	163961	largeTSmallH	correct	incongruent	0.5625	no	T	H
641.0351562	n/a	164105	responseSmallH	correct	n/a	0.5625	no	n/a	n/a
642.1132812	n/a	164381	largeHSmallT	correct	incongruent	0.40234	no	H	T
642.515625	n/a	164484	responseSmallT	correct	n/a	0.40234	no	n/a	n/a
643.59375	n/a	164760	largeTSmallT	correct	congruent	0.51172	no	T	T
644.1054688	n/a	164891	responseSmallT	correct	n/a	0.51172	no	n/a	n/a
645.1796875	n/a	165166	largeHSmallT	correct	incongruent	0.55078	no	H	T
645.7304688	n/a	165307	responseSmallT	correct	n/a	0.55078	no	n/a	n/a
646.8046875	n/a	165582	largeTSmallH	correct	incongruent	0.42969	no	T	H
647.234375	n/a	165692	responseSmallH	correct	n/a	0.42969	no	n/a	n/a
648.3007812	n/a	165965	largeTSmallH	correct	incongruent	0.44531	no	T	H
648.7460938	n/a	166079	responseSmallH	correct	n/a	0.44531	no	n/a	n/a
649.8203125	n/a	166354	largeTSmallT	correct	congruent	0.40234	no	T	T
650.2226562	n/a	166457	responseSmallT	correct	n/a	0.40234	no	n/a	n/a
651.3007812	n/a	166733	largeTSmallT	correct	congruent	0.50391	no	T	T
651.8046875	n/a	166862	responseSmallT	correct	n/a	0.50391	no	n/a	n/a
652.8710938	n/a	167135	largeTSmallH	correct	incongruent	0.40234	no	T	H
653.2734375	n/a	167238	responseSmallH	correct	n/a	0.40234	no	n/a	n/a
654.3515625	n/a	167514	largeHSmallH	correct	congruent	0.48047	no	H	H
654.8320312	n/a	167637	responseSmallH	correct	n/a	0.48047	no	n/a	n/a
655.8984375	n/a	167910	largeTSmallH	correct	incongruent	0.5625	no	T	H
656.4609375	n/a	168054	responseSmallH	correct	n/a	0.5625	no	n/a	n/a
657.5390625	n/a	168330	largeTSmallT	correct	congruent	0.45312	no	T	T
657.9921875	n/a	168446	responseSmallT	correct	n/a	0.45312	no	n/a	n/a
659.0585938	n/a	168719	largeHSmallT	correct	incongruent	0.53125	no	H	T
659.5898438	n/a	168855	responseSmallT	correct	n/a	0.53125	no	n/a	n/a
660.6601562	n/a	169129	largeTSmallH	correct	incongruent	0.5	no	T	H
661.1601562	n/a	169257	responseSmallH	correct	n/a	0.5	no	n/a	n/a
662.234375	n/a	169532	largeTSmallH	correct	incongruent	0.56641	no	T	H
662.8007812	n/a	169677	responseSmallH	correct	n/a	0.56641	no	n/a	n/a
663.8710938	n/a	169951	largeTSmallT	correct	congruent	0.42188	no	T	T
664.2929688	n/a	170059	responseSmallT	correct	n/a	0.42188	no	n/a	n/a
665.3671875	n/a	170334	largeTSmallH	correct	incongruent	0.5	no	T	H
665.8671875	n/a	170462	responseSmallH	correct	n/a	0.5	no	n/a	n/a
682.1796875	n/a	174638	largeHSmallH	correct	congruent	0.39844	no	H	H
682.578125	n/a	174740	responseLargeH	correct	n/a	0.39844	no	n/a	n/a
683.6445312	n/a	175013	largeHSmallH	correct	congruent	0.39844	no	H	H
684.0429688	n/a	175115	responseLargeH	correct	n/a	0.39844	no	n/a	n/a
685.1132812	n/a	175389	largeTSmallH	correct	incongruent	0.37891	no	T	H
685.4921875	n/a	175486	responseLargeT	correct	n/a	0.37891	no	n/a	n/a
686.5664062	n/a	175761	largeTSmallH	correct	incongruent	0.44922	no	T	H
687.015625	n/a	175876	responseLargeT	correct	n/a	0.44922	no	n/a	n/a
688.0859375	n/a	176150	largeHSmallT	correct	incongruent	0.37109	no	H	T
688.4570312	n/a	176245	responseLargeH	correct	n/a	0.37109	no	n/a	n/a
689.5234375	n/a	176518	largeHSmallT	correct	incongruent	0.40625	no	H	T
689.9296875	n/a	176622	responseLargeH	correct	n/a	0.40625	no	n/a	n/a
690.9921875	n/a	176894	largeHSmallH	correct	congruent	0.38281	no	H	H
691.375	n/a	176992	responseLargeH	correct	n/a	0.38281	no	n/a	n/a
692.4453125	n/a	177266	largeHSmallH	correct	congruent	0.38672	no	H	H
692.8320312	n/a	177365	responseLargeH	correct	n/a	0.38672	no	n/a	n/a
693.8984375	n/a	177638	largeTSmallT	correct	congruent	0.43359	no	T	T
694.3320312	n/a	177749	responseLargeT	correct	n/a	0.43359	no	n/a	n/a
695.390625	n/a	178020	largeHSmallH	correct	congruent	0.38672	no	H	H
695.7773438	n/a	178119	responseLargeH	correct	n/a	0.38672	no	n/a	n/a
696.84375	n/a	178392	largeHSmallH	correct	congruent	0.4375	no	H	H
697.28125	n/a	178504	responseLargeH	correct	n/a	0.4375	no	n/a	n/a
698.3515625	n/a	178778	largeHSmallH	correct	congruent	0.40625	no	H	H
698.7578125	n/a	178882	responseLargeH	correct	n/a	0.40625	no	n/a	n/a
699.8320312	n/a	179157	largeHSmallH	correct	congruent	0.39844	no	H	H
700.2304688	n/a	179259	responseLargeH	correct	n/a	0.39844	no	n/a	n/a
701.296875	n/a	179532	largeTSmallH	error	incongruent	0.39453	no	T	H
701.6914062	n/a	179633	responseLargeH	error	n/a	0.39453	no	n/a	n/a
702.765625	n/a	179908	largeTSmallT	correct	congruent	0.41797	no	T	T
703.1835938	n/a	180015	responseLargeT	correct	n/a	0.41797	no	n/a	n/a
704.2578125	n/a	180290	largeHSmallT	correct	incongruent	0.44141	no	H	T
704.6992188	n/a	180403	responseLargeH	correct	n/a	0.44141	no	n/a	n/a
705.765625	n/a	180676	largeHSmallH	correct	congruent	0.48438	no	H	H
706.25	n/a	180800	responseLargeH	correct	n/a	0.48438	no	n/a	n/a
707.3125	n/a	181072	largeHSmallT	error	incongruent	0.41797	no	H	T
707.7304688	n/a	181179	responseLargeT	error	n/a	0.41797	no	n/a	n/a
708.8046875	n/a	181454	largeHSmallT	error	incongruent	0.57422	no	H	T
709.3789062	n/a	181601	responseLargeT	error	n/a	0.57422	no	n/a	n/a
710.4570312	n/a	181877	largeHSmallH	correct	congruent	0.57812	no	H	H
711.0351562	n/a	182025	responseLargeH	correct	n/a	0.57812	no	n/a	n/a
712.109375	n/a	182300	largeTSmallT	error	congruent	0.57031	no	T	T
712.6796875	n/a	182446	responseLargeH	error	n/a	0.57031	no	n/a	n/a
713.765625	n/a	182724	largeHSmallH	correct	congruent	0.48438	no	H	H
714.25	n/a	182848	responseLargeH	correct	n/a	0.48438	no	n/a	n/a
715.3242188	n/a	183123	largeHSmallH	correct	congruent	0.67969	no	H	H
716.0039062	n/a	183297	responseLargeH	correct	n/a	0.67969	no	n/a	n/a
717.0859375	n/a	183574	largeTSmallH	correct	incongruent	0.6875	no	T	H
717.7734375	n/a	183750	responseLargeT	correct	n/a	0.6875	no	n/a	n/a
718.84375	n/a	184024	largeHSmallT	correct	incongruent	0.44531	no	H	T
719.2890625	n/a	184138	responseLargeH	correct	n/a	0.44531	no	n/a	n/a
720.3632812	n/a	184413	largeHSmallT	correct	incongruent	0.44922	no	H	T
720.8125	n/a	184528	responseLargeH	correct	n/a	0.44922	no	n/a	n/a
721.8828125	n/a	184802	largeHSmallT	correct	incongruent	0.4375	no	H	T
722.3203125	n/a	184914	responseLargeH	correct	n/a	0.4375	no	n/a	n/a
723.3789062	n/a	185185	largeTSmallH	correct	incongruent	0.50391	no	T	H
723.8828125	n/a	185314	responseLargeT	correct	n/a	0.50391	no	n/a	n/a
724.9648438	n/a	185591	largeHSmallH	correct	congruent	0.51172	no	H	H
725.4765625	n/a	185722	responseLargeH	correct	n/a	0.51172	no	n/a	n/a
726.5507812	n/a	185997	largeHSmallH	correct	congruent	0.47656	no	H	H
727.0273438	n/a	186119	responseLargeH	correct	n/a	0.47656	no	n/a	n/a
728.0976562	n/a	186393	largeTSmallH	correct	incongruent	0.49219	no	T	H
728.5898438	n/a	186519	responseLargeT	correct	n/a	0.49219	no	n/a	n/a
729.65625	n/a	186792	largeTSmallH	correct	incongruent	0.59766	no	T	H
730.2539062	n/a	186945	responseLargeT	correct	n/a	0.59766	no	n/a	n/a
731.3242188	n/a	187219	largeTSmallH	correct	incongruent	0.80469	no	T	H
732.1289062	n/a	187425	responseLargeT	correct	n/a	0.80469	no	n/a	n/a
733.1914062	n/a	187697	largeTSmallH	correct	incongruent	0.43359	no	T	H
733.625	n/a	187808	responseLargeT	correct	n/a	0.43359	no	n/a	n/a
734.6992188	n/a	188083	largeHSmallT	correct	incongruent	0.46484	no	H	T
735.1640625	n/a	188202	responseLargeH	correct	n/a	0.46484	no	n/a	n/a
736.2421875	n/a	188478	largeTSmallH	correct	incongruent	0.48828	no	T	H
736.7304688	n/a	188603	responseLargeT	correct	n/a	0.48828	no	n/a	n/a
737.8046875	n/a	188878	largeTSmallT	correct	congruent	0.50781	no	T	T
738.3125	n/a	189008	responseLargeT	correct	n/a	0.50781	no	n/a	n/a
739.390625	n/a	189284	largeTSmallT	correct	congruent	0.54688	no	T	T
739.9375	n/a	189424	responseLargeT	correct	n/a	0.54688	no	n/a	n/a
741.015625	n/a	189700	largeHSmallH	correct	congruent	0.44922	no	H	H
741.4648438	n/a	189815	responseLargeH	correct	n/a	0.44922	no	n/a	n/a
742.5351562	n/a	190089	largeHSmallH	correct	congruent	0.48438	no	H	H
743.0195312	n/a	190213	responseLargeH	correct	n/a	0.48438	no	n/a	n/a
744.0820312	n/a	190485	largeTSmallH	correct	incongruent	0.53906	no	T	H
744.6210938	n/a	190623	responseLargeT	correct	n/a	0.53906	no	n/a	n/a
745.6953125	n/a	190898	largeTSmallT	correct	congruent	0.60547	no	T	T
746.3007812	n/a	191053	responseLargeT	correct	n/a	0.60547	no	n/a	n/a
747.3789062	n/a	191329	largeHSmallH	correct	congruent	0.51562	no	H	H
747.8945312	n/a	191461	responseLargeH	correct	n/a	0.51562	no	n/a	n/a
748.9648438	n/a	191735	largeTSmallT	correct	congruent	0.41797	no	T	T
749.3828125	n/a	191842	responseLargeT	correct	n/a	0.41797	no	n/a	n/a
750.4453125	n/a	192114	largeHSmallT	correct	incongruent	0.46094	no	H	T
750.90625	n/a	192232	responseLargeH	correct	n/a	0.46094	no	n/a	n/a
751.9765625	n/a	192506	largeTSmallH	correct	incongruent	0.40625	no	T	H
752.3828125	n/a	192610	responseLargeT	correct	n/a	0.40625	no	n/a	n/a
753.4570312	n/a	192885	largeTSmallH	correct	incongruent	0.45703	no	T	H
753.9140625	n/a	193002	responseLargeT	correct	n/a	0.45703	no	n/a	n/a
754.9882812	n/a	193277	largeHSmallH	correct	congruent	0.48438	no	H	H
755.4726562	n/a	193401	responseLargeH	correct	n/a	0.48438	no	n/a	n/a
756.5507812	n/a	193677	largeTSmallT	correct	congruent	0.41797	no	T	T
756.96875	n/a	193784	responseLargeT	correct	n/a	0.41797	no	n/a	n/a
758.0429688	n/a	194059	largeTSmallH	correct	incongruent	0.41016	no	T	H
758.453125	n/a	194164	responseLargeT	correct	n/a	0.41016	no	n/a	n/a
759.5234375	n/a	194438	largeHSmallH	correct	congruent	0.44531	no	H	H
759.96875	n/a	194552	responseLargeH	correct	n/a	0.44531	no	n/a	n/a
761.0429688	n/a	194827	largeTSmallT	correct	congruent	0.48438	no	T	T
761.5273438	n/a	194951	responseLargeT	correct	n/a	0.48438	no	n/a	n/a
762.6015625	n/a	195226	largeTSmallH	correct	incongruent	0.41406	no	T	H
763.015625	n/a	195332	responseLargeT	correct	n/a	0.41406	no	n/a	n/a
764.0820312	n/a	195605	largeTSmallH	correct	incongruent	0.46484	no	T	H
764.546875	n/a	195724	responseLargeT	correct	n/a	0.46484	no	n/a	n/a
765.6171875	n/a	195998	largeTSmallT	correct	congruent	0.55469	no	T	T
766.171875	n/a	196140	responseLargeT	correct	n/a	0.55469	no	n/a	n/a
767.2304688	n/a	196411	largeTSmallH	correct	incongruent	0.4375	no	T	H
767.6679688	n/a	196523	responseLargeT	correct	n/a	0.4375	no	n/a	n/a
768.734375	n/a	196796	largeHSmallT	correct	incongruent	0.47656	no	H	T
769.2109375	n/a	196918	responseLargeH	correct	n/a	0.47656	no	n/a	n/a
770.28125	n/a	197192	largeTSmallH	correct	incongruent	0.40234	no	T	H
770.6835938	n/a	197295	responseLargeT	correct	n/a	0.40234	no	n/a	n/a
771.7617188	n/a	197571	largeTSmallT	correct	congruent	0.50391	no	T	T
772.265625	n/a	197700	responseLargeT	correct	n/a	0.50391	no	n/a	n/a
773.3359375	n/a	197974	largeTSmallT	correct	congruent	0.46875	no	T	T
773.8046875	n/a	198094	responseLargeT	correct	n/a	0.46875	no	n/a	n/a
774.8828125	n/a	198370	largeTSmallH	correct	incongruent	0.44922	no	T	H
775.3320312	n/a	198485	responseLargeT	correct	n/a	0.44922	no	n/a	n/a
776.4023438	n/a	198759	largeHSmallH	correct	congruent	0.46875	no	H	H
776.8710938	n/a	198879	responseLargeH	correct	n/a	0.46875	no	n/a	n/a
777.9375	n/a	199152	largeHSmallH	correct	congruent	0.48828	no	H	H
778.4257812	n/a	199277	responseLargeH	correct	n/a	0.48828	no	n/a	n/a
779.4960938	n/a	199551	largeHSmallT	correct	incongruent	0.54297	no	H	T
780.0390625	n/a	199690	responseLargeH	correct	n/a	0.54297	no	n/a	n/a
781.1210938	n/a	199967	largeTSmallH	correct	incongruent	0.5	no	T	H
781.6210938	n/a	200095	responseLargeT	correct	n/a	0.5	no	n/a	n/a
782.6953125	n/a	200370	largeHSmallT	correct	incongruent	0.61328	no	H	T
783.3085938	n/a	200527	responseLargeH	correct	n/a	0.61328	no	n/a	n/a
784.375	n/a	200800	largeHSmallH	correct	congruent	0.5	no	H	H
784.875	n/a	200928	responseLargeH	correct	n/a	0.5	no	n/a	n/a
785.9375	n/a	201200	largeHSmallT	correct	incongruent	0.46094	no	H	T
786.3984375	n/a	201318	responseLargeH	correct	n/a	0.46094	no	n/a	n/a
787.46875	n/a	201592	largeHSmallH	correct	congruent	0.46484	no	H	H
787.9335938	n/a	201711	responseLargeH	correct	n/a	0.46484	no	n/a	n/a
789.0039062	n/a	201985	largeHSmallT	correct	incongruent	0.48828	no	H	T
789.4921875	n/a	202110	responseLargeH	correct	n/a	0.48828	no	n/a	n/a
790.5625	n/a	202384	largeTSmallT	correct	congruent	0.53125	no	T	T
791.09375	n/a	202520	responseLargeT	correct	n/a	0.53125	no	n/a	n/a
792.1640625	n/a	202794	largeTSmallH	error	incongruent	0.6875	no	T	H
792.8515625	n/a	202970	responseLargeH	error	n/a	0.6875	no	n/a	n/a
793.921875	n/a	203244	largeTSmallT	correct	congruent	0.50391	no	T	T
794.4257812	n/a	203373	responseLargeT	correct	n/a	0.50391	no	n/a	n/a
795.4960938	n/a	203647	largeHSmallH	correct	congruent	0.41797	no	H	H
795.9140625	n/a	203754	responseLargeH	correct	n/a	0.41797	no	n/a	n/a
796.9882812	n/a	204029	largeTSmallT	correct	congruent	0.44141	no	T	T
797.4296875	n/a	204142	responseLargeT	correct	n/a	0.44141	no	n/a	n/a
798.4960938	n/a	204415	largeHSmallH	correct	congruent	0.44141	no	H	H
798.9375	n/a	204528	responseLargeH	correct	n/a	0.44141	no	n/a	n/a
800.015625	n/a	204804	largeTSmallT	correct	congruent	0.51172	no	T	T
800.5273438	n/a	204935	responseLargeT	correct	n/a	0.51172	no	n/a	n/a
801.6015625	n/a	205210	largeTSmallT	correct	congruent	0.73828	no	T	T
802.3398438	n/a	205399	responseLargeT	correct	n/a	0.73828	no	n/a	n/a
803.4140625	n/a	205674	largeTSmallH	error	incongruent	0.43359	no	T	H
803.8476562	n/a	205785	responseLargeH	error	n/a	0.43359	no	n/a	n/a
804.921875	n/a	206060	largeTSmallT	correct	congruent	0.39453	no	T	T
805.3164062	n/a	206161	responseLargeT	correct	n/a	0.39453	no	n/a	n/a
806.390625	n/a	206436	largeHSmallT	correct	incongruent	0.53125	no	H	T
806.921875	n/a	206572	responseLargeH	correct	n/a	0.53125	no	n/a	n/a
808.0039062	n/a	206849	largeHSmallT	correct	incongruent	0.57031	no	H	T
808.5742188	n/a	206995	responseLargeH	correct	n/a	0.57031	no	n/a	n/a
809.65625	n/a	207272	largeTSmallT	correct	congruent	0.46094	no	T	T
810.1171875	n/a	207390	responseLargeT	correct	n/a	0.46094	no	n/a	n/a
811.1757812	n/a	207661	largeTSmallT	correct	congruent	0.49609	no	T	T
811.671875	n/a	207788	responseLargeT	correct	n/a	0.49609	no	n/a	n/a
812.734375	n/a	208060	largeTSmallH	correct	incongruent	0.42188	no	T	H
813.15625	n/a	208168	responseLargeT	correct	n/a	0.42188	no	n/a	n/a
814.2304688	n/a	208443	largeHSmallH	correct	congruent	0.46875	no	H	H
814.6992188	n/a	208563	responseLargeH	correct	n/a	0.46875	no	n/a	n/a
815.7617188	n/a	208835	largeHSmallH	correct	congruent	0.50391	no	H	H
816.265625	n/a	208964	responseLargeH	correct	n/a	0.50391	no	n/a	n/a
817.3359375	n/a	209238	largeTSmallH	correct	incongruent	0.42578	no	T	H
817.7617188	n/a	209347	responseLargeT	correct	n/a	0.42578	no	n/a	n/a
818.84375	n/a	209624	largeTSmallH	correct	incongruent	0.47656	no	T	H
819.3203125	n/a	209746	responseLargeT	correct	n/a	0.47656	no	n/a	n/a
820.3867188	n/a	210019	largeTSmallH	correct	incongruent	0.51172	no	T	H
820.8984375	n/a	210150	responseLargeT	correct	n/a	0.51172	no	n/a	n/a
821.9765625	n/a	210426	largeHSmallH	correct	congruent	0.5	no	H	H
822.4765625	n/a	210554	responseLargeH	correct	n/a	0.5	no	n/a	n/a
823.546875	n/a	210828	largeTSmallT	correct	congruent	0.60547	no	T	T
824.1523438	n/a	210983	responseLargeT	correct	n/a	0.60547	no	n/a	n/a
825.2148438	n/a	211255	largeHSmallT	correct	incongruent	0.55859	no	H	T
825.7734375	n/a	211398	responseLargeH	correct	n/a	0.55859	no	n/a	n/a
826.8398438	n/a	211671	largeTSmallT	correct	congruent	0.53125	no	T	T
827.3710938	n/a	211807	responseLargeT	correct	n/a	0.53125	no	n/a	n/a
828.4414062	n/a	212081	largeTSmallH	correct	incongruent	0.50781	no	T	H
828.9492188	n/a	212211	responseLargeT	correct	n/a	0.50781	no	n/a	n/a
830.0273438	n/a	212487	largeHSmallT	correct	incongruent	0.58203	no	H	T
830.609375	n/a	212636	responseLargeH	correct	n/a	0.58203	no	n/a	n/a
831.6796875	n/a	212910	largeTSmallH	correct	incongruent	0.51953	no	T	H
832.1992188	n/a	213043	responseLargeT	correct	n/a	0.51953	no	n/a	n/a
833.2695312	n/a	213317	largeTSmallH	correct	incongruent	0.62109	no	T	H
833.890625	n/a	213476	responseLargeT	correct	n/a	0.62109	no	n/a	n/a
834.9492188	n/a	213747	largeHSmallT	correct	incongruent	0.44531	no	H	T
835.3945312	n/a	213861	responseLargeH	correct	n/a	0.44531	no	n/a	n/a
836.46875	n/a	214136	largeTSmallH	correct	incongruent	0.58594	no	T	H
837.0546875	n/a	214286	responseLargeT	correct	n/a	0.58594	no	n/a	n/a
838.1210938	n/a	214559	largeHSmallT	correct	incongruent	0.48828	no	H	T
838.609375	n/a	214684	responseLargeH	correct	n/a	0.48828	no	n/a	n/a
839.6796875	n/a	214958	largeHSmallH	correct	congruent	0.51953	no	H	H
840.1992188	n/a	215091	responseLargeH	correct	n/a	0.51953	no	n/a	n/a
841.2695312	n/a	215365	largeTSmallT	correct	congruent	0.42188	no	T	T
841.6914062	n/a	215473	responseLargeT	correct	n/a	0.42188	no	n/a	n/a
842.7734375	n/a	215750	largeTSmallT	correct	congruent	0.47656	no	T	T
843.25	n/a	215872	responseLargeT	correct	n/a	0.47656	no	n/a	n/a
844.3085938	n/a	216143	largeHSmallT	correct	incongruent	0.52344	no	H	T
844.8320312	n/a	216277	responseLargeH	correct	n/a	0.52344	no	n/a	n/a
845.90625	n/a	216552	largeHSmallH	correct	congruent	0.51562	no	H	H
846.421875	n/a	216684	responseLargeH	correct	n/a	0.51562	no	n/a	n/a
847.4960938	n/a	216959	largeHSmallT	error	incongruent	0.43359	no	H	T
847.9296875	n/a	217070	responseLargeT	error	n/a	0.43359	no	n/a	n/a
849	n/a	217344	largeTSmallH	correct	incongruent	0.42578	no	T	H
849.4257812	n/a	217453	responseLargeT	correct	n/a	0.42578	no	n/a	n/a
850.4960938	n/a	217727	largeTSmallH	correct	incongruent	0.55078	no	T	H
851.046875	n/a	217868	responseLargeT	correct	n/a	0.55078	no	n/a	n/a
852.1210938	n/a	218143	largeTSmallT	correct	congruent	0.46094	no	T	T
852.5820312	n/a	218261	responseLargeT	correct	n/a	0.46094	no	n/a	n/a
853.6523438	n/a	218535	largeHSmallT	correct	incongruent	0.45312	no	H	T
854.1054688	n/a	218651	responseLargeH	correct	n/a	0.45312	no	n/a	n/a
855.1757812	n/a	218925	largeTSmallT	correct	congruent	0.42188	no	T	T
855.5976562	n/a	219033	responseLargeT	correct	n/a	0.42188	no	n/a	n/a
856.6679688	n/a	219307	largeTSmallT	correct	congruent	0.53906	no	T	T
857.2070312	n/a	219445	responseLargeT	correct	n/a	0.53906	no	n/a	n/a
858.28125	n/a	219720	largeTSmallT	correct	congruent	0.44531	no	T	T
858.7265625	n/a	219834	responseLargeT	correct	n/a	0.44531	no	n/a	n/a
859.7890625	n/a	220106	largeHSmallH	correct	congruent	0.48438	no	H	H
860.2734375	n/a	220230	responseLargeH	correct	n/a	0.48438	no	n/a	n/a
861.3476562	n/a	220505	largeHSmallH	correct	congruent	0.57422	no	H	H
861.921875	n/a	220652	responseLargeH	correct	n/a	0.57422	no	n/a	n/a
862.9882812	n/a	220925	largeTSmallT	correct	congruent	0.4375	no	T	T
863.4257812	n/a	221037	responseLargeT	correct	n/a	0.4375	no	n/a	n/a
864.5078125	n/a	221314	largeTSmallT	correct	congruent	0.45703	no	T	T
864.9648438	n/a	221431	responseLargeT	correct	n/a	0.45703	no	n/a	n/a
866.0273438	n/a	221703	largeTSmallH	correct	incongruent	0.45703	no	T	H
866.484375	n/a	221820	responseLargeT	correct	n/a	0.45703	no	n/a	n/a
867.5585938	n/a	222095	largeTSmallH	correct	incongruent	0.5	no	T	H
868.0585938	n/a	222223	responseLargeT	correct	n/a	0.5	no	n/a	n/a
869.1328125	n/a	222498	largeTSmallH	correct	incongruent	0.46875	no	T	H
869.6015625	n/a	222618	responseLargeT	correct	n/a	0.46875	no	n/a	n/a
870.6796875	n/a	222894	largeHSmallT	correct	incongruent	0.48828	no	H	T
871.1679688	n/a	223019	responseLargeH	correct	n/a	0.48828	no	n/a	n/a
872.2421875	n/a	223294	largeHSmallT	correct	incongruent	0.57812	no	H	T
872.8203125	n/a	223442	responseLargeH	correct	n/a	0.57812	no	n/a	n/a
873.8945312	n/a	223717	largeTSmallH	correct	incongruent	0.42578	no	T	H
874.3203125	n/a	223826	responseLargeT	correct	n/a	0.42578	no	n/a	n/a
875.3867188	n/a	224099	largeHSmallT	correct	incongruent	0.45312	no	H	T
875.8398438	n/a	224215	responseLargeH	correct	n/a	0.45312	no	n/a	n/a
876.921875	n/a	224492	largeHSmallH	correct	congruent	0.57422	no	H	H
877.4960938	n/a	224639	responseLargeH	correct	n/a	0.57422	no	n/a	n/a
878.5742188	n/a	224915	largeHSmallT	correct	incongruent	0.44922	no	H	T
879.0234375	n/a	225030	responseLargeH	correct	n/a	0.44922	no	n/a	n/a
880.1054688	n/a	225307	largeHSmallT	correct	incongruent	0.50781	no	H	T
880.6132812	n/a	225437	responseLargeH	correct	n/a	0.50781	no	n/a	n/a
881.6796875	n/a	225710	largeHSmallT	correct	incongruent	0.46094	no	H	T
882.140625	n/a	225828	responseLargeH	correct	n/a	0.46094	no	n/a	n/a
883.1992188	n/a	226099	largeHSmallT	correct	incongruent	0.42578	no	H	T
883.625	n/a	226208	responseLargeH	correct	n/a	0.42578	no	n/a	n/a
884.7070312	n/a	226485	largeHSmallH	correct	congruent	0.42188	no	H	H
885.1289062	n/a	226593	responseLargeH	correct	n/a	0.42188	no	n/a	n/a
886.1992188	n/a	226867	largeTSmallT	correct	congruent	0.45703	no	T	T
886.65625	n/a	226984	responseLargeT	correct	n/a	0.45703	no	n/a	n/a
887.734375	n/a	227260	largeTSmallT	correct	congruent	0.49609	no	T	T
888.2304688	n/a	227387	responseLargeT	correct	n/a	0.49609	no	n/a	n/a
889.3046875	n/a	227662	largeHSmallH	correct	congruent	0.44531	no	H	H
889.75	n/a	227776	responseLargeH	correct	n/a	0.44531	no	n/a	n/a
890.8125	n/a	228048	largeTSmallH	correct	incongruent	0.57031	no	T	H
891.3828125	n/a	228194	responseLargeT	correct	n/a	0.57031	no	n/a	n/a
892.453125	n/a	228468	largeHSmallT	correct	incongruent	0.92578	no	H	T
893.3789062	n/a	228705	responseLargeH	correct	n/a	0.92578	no	n/a	n/a
894.453125	n/a	228980	largeTSmallT	correct	congruent	0.46484	no	T	T
894.9179688	n/a	229099	responseLargeT	correct	n/a	0.46484	no	n/a	n/a
895.9882812	n/a	229373	largeHSmallH	correct	congruent	0.44141	no	H	H
896.4296875	n/a	229486	responseLargeH	correct	n/a	0.44141	no	n/a	n/a
897.4921875	n/a	229758	largeTSmallT	correct	congruent	0.50781	no	T	T
898	n/a	229888	responseLargeT	correct	n/a	0.50781	no	n/a	n/a
899.0664062	n/a	230161	largeTSmallT	correct	congruent	0.54297	no	T	T
899.609375	n/a	230300	responseLargeT	correct	n/a	0.54297	no	n/a	n/a
900.6796875	n/a	230574	largeTSmallT	correct	congruent	0.51953	no	T	T
901.1992188	n/a	230707	responseLargeT	correct	n/a	0.51953	no	n/a	n/a
902.265625	n/a	230980	largeTSmallH	correct	incongruent	0.64062	no	T	H
902.90625	n/a	231144	responseLargeT	correct	n/a	0.64062	no	n/a	n/a
903.9726562	n/a	231417	largeTSmallH	correct	incongruent	0.5	no	T	H
904.4726562	n/a	231545	responseLargeT	correct	n/a	0.5	no	n/a	n/a
905.546875	n/a	231820	largeTSmallT	correct	congruent	0.48828	no	T	T
906.0351562	n/a	231945	responseLargeT	correct	n/a	0.48828	no	n/a	n/a
907.1054688	n/a	232219	largeTSmallT	correct	congruent	0.51953	no	T	T
907.625	n/a	232352	responseLargeT	correct	n/a	0.51953	no	n/a	n/a
908.6914062	n/a	232625	largeHSmallH	correct	congruent	0.47266	no	H	H
909.1640625	n/a	232746	responseLargeH	correct	n/a	0.47266	no	n/a	n/a
910.2382812	n/a	233021	largeTSmallH	correct	incongruent	0.46875	no	T	H
910.7070312	n/a	233141	responseLargeT	correct	n/a	0.46875	no	n/a	n/a
911.7734375	n/a	233414	largeHSmallT	correct	incongruent	0.61719	no	H	T
912.390625	n/a	233572	responseLargeH	correct	n/a	0.61719	no	n/a	n/a
913.4648438	n/a	233847	largeHSmallT	correct	incongruent	0.72656	no	H	T
914.1914062	n/a	234033	responseLargeH	correct	n/a	0.72656	no	n/a	n/a
915.265625	n/a	234308	largeHSmallT	error	incongruent	0.51562	no	H	T
915.78125	n/a	234440	responseLargeT	error	n/a	0.51562	no	n/a	n/a
916.8515625	n/a	234714	largeTSmallT	correct	congruent	0.49219	no	T	T
917.34375	n/a	234840	responseLargeT	correct	n/a	0.49219	no	n/a	n/a
918.4140625	n/a	235114	largeTSmallT	correct	congruent	0.45312	no	T	T
918.8671875	n/a	235230	responseLargeT	correct	n/a	0.45312	no	n/a	n/a
919.9453125	n/a	235506	largeHSmallH	correct	congruent	0.39844	no	H	H
920.34375	n/a	235608	responseLargeH	correct	n/a	0.39844	no	n/a	n/a
921.4140625	n/a	235882	largeHSmallH	correct	congruent	0.55859	no	H	H
921.9726562	n/a	236025	responseLargeH	correct	n/a	0.55859	no	n/a	n/a
923.0507812	n/a	236301	largeHSmallH	correct	congruent	0.35156	no	H	H
923.4023438	n/a	236391	responseLargeH	correct	n/a	0.35156	no	n/a	n/a
924.4648438	n/a	236663	largeHSmallT	correct	incongruent	0.50391	no	H	T
924.96875	n/a	236792	responseLargeH	correct	n/a	0.50391	no	n/a	n/a
926.0390625	n/a	237066	largeHSmallH	correct	congruent	0.45312	no	H	H
926.4921875	n/a	237182	responseLargeH	correct	n/a	0.45312	no	n/a	n/a
927.5585938	n/a	237455	largeHSmallT	correct	incongruent	0.45703	no	H	T
928.015625	n/a	237572	responseLargeH	correct	n/a	0.45703	no	n/a	n/a
929.09375	n/a	237848	largeHSmallH	correct	congruent	0.41797	no	H	H
929.5117188	n/a	237955	responseLargeH	correct	n/a	0.41797	no	n/a	n/a
930.5859375	n/a	238230	largeHSmallT	correct	incongruent	0.44531	no	H	T
931.03125	n/a	238344	responseLargeH	correct	n/a	0.44531	no	n/a	n/a
932.09375	n/a	238616	largeHSmallT	correct	incongruent	0.44531	no	H	T
932.5390625	n/a	238730	responseLargeH	correct	n/a	0.44531	no	n/a	n/a
933.6132812	n/a	239005	largeHSmallT	correct	incongruent	0.49609	no	H	T
934.109375	n/a	239132	responseLargeH	correct	n/a	0.49609	no	n/a	n/a
935.1835938	n/a	239407	largeTSmallH	correct	incongruent	0.48438	no	T	H
935.6679688	n/a	239531	responseLargeT	correct	n/a	0.48438	no	n/a	n/a
936.7460938	n/a	239807	largeTSmallH	error	incongruent	0.42188	no	T	H
937.1679688	n/a	239915	responseLargeH	error	n/a	0.42188	no	n/a	n/a
938.2382812	n/a	240189	largeTSmallT	correct	congruent	0.45703	no	T	T
938.6953125	n/a	240306	responseLargeT	correct	n/a	0.45703	no	n/a	n/a
939.7734375	n/a	240582	largeHSmallT	correct	incongruent	0.65234	no	H	T
940.4257812	n/a	240749	responseLargeH	correct	n/a	0.65234	no	n/a	n/a
941.5039062	n/a	241025	largeTSmallT	correct	congruent	0.60938	no	T	T
942.1132812	n/a	241181	responseLargeT	correct	n/a	0.60938	no	n/a	n/a
943.1835938	n/a	241455	largeTSmallT	correct	congruent	0.46094	no	T	T
943.6445312	n/a	241573	responseLargeT	correct	n/a	0.46094	no	n/a	n/a
944.71875	n/a	241848	largeHSmallH	correct	congruent	0.5	no	H	H
945.21875	n/a	241976	responseLargeH	correct	n/a	0.5	no	n/a	n/a
946.2929688	n/a	242251	largeHSmallT	error	incongruent	0.46484	no	H	T
946.7578125	n/a	242370	responseLargeT	error	n/a	0.46484	no	n/a	n/a
947.8242188	n/a	242643	largeHSmallH	correct	congruent	0.53516	no	H	H
948.359375	n/a	242780	responseLargeH	correct	n/a	0.53516	no	n/a	n/a
949.4257812	n/a	243053	largeHSmallH	correct	congruent	0.45703	no	H	H
949.8828125	n/a	243170	responseLargeH	correct	n/a	0.45703	no	n/a	n/a
950.9570312	n/a	243445	largeTSmallH	correct	incongruent	0.48828	no	T	H
951.4453125	n/a	243570	responseLargeT	correct	n/a	0.48828	no	n/a	n/a
952.5195312	n/a	243845	largeTSmallT	correct	congruent	0.46875	no	T	T
952.9882812	n/a	243965	responseLargeT	correct	n/a	0.46875	no	n/a	n/a
954.0664062	n/a	244241	largeHSmallT	correct	incongruent	0.45312	no	H	T
954.5195312	n/a	244357	responseLargeH	correct	n/a	0.45312	no	n/a	n/a
955.5859375	n/a	244630	largeTSmallT	correct	congruent	0.55859	no	T	T
956.1445312	n/a	244773	responseLargeT	correct	n/a	0.55859	no	n/a	n/a
957.2109375	n/a	245046	largeTSmallT	correct	congruent	0.48828	no	T	T
957.6992188	n/a	245171	responseLargeT	correct	n/a	0.48828	no	n/a	n/a
958.7695312	n/a	245445	largeTSmallT	correct	congruent	0.46094	no	T	T
959.2304688	n/a	245563	responseLargeT	correct	n/a	0.46094	no	n/a	n/a
960.3046875	n/a	245838	largeHSmallH	correct	congruent	0.48438	no	H	H
960.7890625	n/a	245962	responseLargeH	correct	n/a	0.48438	no	n/a	n/a
961.8632812	n/a	246237	largeTSmallH	correct	incongruent	0.70703	no	T	H
962.5703125	n/a	246418	responseLargeT	correct	n/a	0.70703	no	n/a	n/a
963.6367188	n/a	246691	largeTSmallT	correct	congruent	0.53906	no	T	T
964.1757812	n/a	246829	responseLargeT	correct	n/a	0.53906	no	n/a	n/a
965.25	n/a	247104	largeTSmallT	correct	congruent	0.51562	no	T	T
965.765625	n/a	247236	responseLargeT	correct	n/a	0.51562	no	n/a	n/a
966.8398438	n/a	247511	largeHSmallT	correct	incongruent	0.62891	no	H	T
967.46875	n/a	247672	responseLargeH	correct	n/a	0.62891	no	n/a	n/a
968.5429688	n/a	247947	largeHSmallT	correct	incongruent	0.48438	no	H	T
969.0273438	n/a	248071	responseLargeH	correct	n/a	0.48438	no	n/a	n/a
970.1054688	n/a	248347	largeHSmallT	correct	incongruent	0.67188	no	H	T
970.7773438	n/a	248519	responseLargeH	correct	n/a	0.67188	no	n/a	n/a
971.8359375	n/a	248790	largeHSmallT	correct	incongruent	0.46875	no	H	T
972.3046875	n/a	248910	responseLargeH	correct	n/a	0.46875	no	n/a	n/a
973.3710938	n/a	249183	largeTSmallT	correct	congruent	0.44531	no	T	T
973.8164062	n/a	249297	responseLargeT	correct	n/a	0.44531	no	n/a	n/a
974.890625	n/a	249572	largeHSmallH	correct	congruent	0.47656	no	H	H
975.3671875	n/a	249694	responseLargeH	correct	n/a	0.47656	no	n/a	n/a
976.4257812	n/a	249965	largeHSmallH	correct	congruent	0.53125	no	H	H
976.9570312	n/a	250101	responseLargeH	correct	n/a	0.53125	no	n/a	n/a
978.0234375	n/a	250374	largeHSmallH	correct	congruent	0.45312	no	H	H
978.4765625	n/a	250490	responseLargeH	correct	n/a	0.45312	no	n/a	n/a
979.5585938	n/a	250767	largeHSmallT	correct	incongruent	0.64453	no	H	T
980.203125	n/a	250932	responseLargeH	correct	n/a	0.64453	no	n/a	n/a
981.265625	n/a	251204	largeHSmallT	correct	incongruent	0.41016	no	H	T
981.6757812	n/a	251309	responseLargeH	correct	n/a	0.41016	no	n/a	n/a
982.7460938	n/a	251583	largeTSmallH	correct	incongruent	0.51562	no	T	H
983.2617188	n/a	251715	responseLargeT	correct	n/a	0.51562	no	n/a	n/a
984.34375	n/a	251992	largeTSmallH	correct	incongruent	0.5	no	T	H
984.84375	n/a	252120	responseLargeT	correct	n/a	0.5	no	n/a	n/a
985.9179688	n/a	252395	largeHSmallH	correct	congruent	0.39453	no	H	H
986.3125	n/a	252496	responseLargeH	correct	n/a	0.39453	no	n/a	n/a
987.3828125	n/a	252770	largeHSmallT	correct	incongruent	0.45703	no	H	T
987.8398438	n/a	252887	responseLargeH	correct	n/a	0.45703	no	n/a	n/a
988.9179688	n/a	253163	largeTSmallH	correct	incongruent	0.50391	no	T	H
989.421875	n/a	253292	responseLargeT	correct	n/a	0.50391	no	n/a	n/a
990.4921875	n/a	253566	largeTSmallH	correct	incongruent	0.53516	no	T	H
991.0273438	n/a	253703	responseLargeT	correct	n/a	0.53516	no	n/a	n/a
992.0898438	n/a	253975	largeTSmallH	correct	incongruent	0.53516	no	T	H
992.625	n/a	254112	responseLargeT	correct	n/a	0.53516	no	n/a	n/a
993.703125	n/a	254388	largeTSmallH	correct	incongruent	0.47266	no	T	H
994.1757812	n/a	254509	responseLargeT	correct	n/a	0.47266	no	n/a	n/a
1014.277344	n/a	259655	largeHSmallH	correct	congruent	0.38281	no	H	H
1014.660156	n/a	259753	responseSmallH	correct	n/a	0.38281	no	n/a	n/a
1015.730469	n/a	260027	largeTSmallH	correct	incongruent	0.44922	no	T	H
1016.179688	n/a	260142	responseSmallH	correct	n/a	0.44922	no	n/a	n/a
1017.261719	n/a	260419	largeTSmallH	correct	incongruent	0.48047	no	T	H
1017.742188	n/a	260542	responseSmallH	correct	n/a	0.48047	no	n/a	n/a
1018.824219	n/a	260819	largeHSmallH	correct	congruent	0.46094	no	H	H
1019.285156	n/a	260937	responseSmallH	correct	n/a	0.46094	no	n/a	n/a
1020.355469	n/a	261211	largeHSmallH	correct	congruent	0.38672	no	H	H
1020.742188	n/a	261310	responseSmallH	correct	n/a	0.38672	no	n/a	n/a
1021.808594	n/a	261583	largeTSmallT	correct	congruent	0.39844	no	T	T
1022.207031	n/a	261685	responseSmallT	correct	n/a	0.39844	no	n/a	n/a
1023.277344	n/a	261959	largeHSmallH	correct	congruent	0.42578	no	H	H
1023.703125	n/a	262068	responseSmallH	correct	n/a	0.42578	no	n/a	n/a
1024.78125	n/a	262344	largeHSmallH	correct	congruent	0.42578	no	H	H
1025.207031	n/a	262453	responseSmallH	correct	n/a	0.42578	no	n/a	n/a
1026.277344	n/a	262727	largeTSmallH	error	incongruent	0.39844	no	T	H
1026.675781	n/a	262829	responseSmallT	error	n/a	0.39844	no	n/a	n/a
1027.742188	n/a	263102	largeHSmallH	correct	congruent	0.41797	no	H	H
1028.160156	n/a	263209	responseSmallH	correct	n/a	0.41797	no	n/a	n/a
1029.234375	n/a	263484	largeHSmallH	correct	congruent	0.44922	no	H	H
1029.683594	n/a	263599	responseSmallH	correct	n/a	0.44922	no	n/a	n/a
1030.757812	n/a	263874	largeTSmallT	correct	congruent	0.37891	no	T	T
1031.136719	n/a	263971	responseSmallT	correct	n/a	0.37891	no	n/a	n/a
1032.210938	n/a	264246	largeTSmallH	correct	incongruent	0.42578	no	T	H
1032.636719	n/a	264355	responseSmallH	correct	n/a	0.42578	no	n/a	n/a
1033.714844	n/a	264631	largeTSmallH	correct	incongruent	0.44141	no	T	H
1034.15625	n/a	264744	responseSmallH	correct	n/a	0.44141	no	n/a	n/a
1035.234375	n/a	265020	largeTSmallT	correct	congruent	0.37891	no	T	T
1035.613281	n/a	265117	responseSmallT	correct	n/a	0.37891	no	n/a	n/a
1036.675781	n/a	265389	largeTSmallT	correct	congruent	0.4375	no	T	T
1037.113281	n/a	265501	responseSmallT	correct	n/a	0.4375	no	n/a	n/a
1038.195312	n/a	265778	largeTSmallT	correct	congruent	0.44141	no	T	T
1038.636719	n/a	265891	responseSmallT	correct	n/a	0.44141	no	n/a	n/a
1039.703125	n/a	266164	largeHSmallH	correct	congruent	0.41797	no	H	H
1040.121094	n/a	266271	responseSmallH	correct	n/a	0.41797	no	n/a	n/a
1041.183594	n/a	266543	largeHSmallT	error	incongruent	0.42188	no	H	T
1041.605469	n/a	266651	responseSmallH	error	n/a	0.42188	no	n/a	n/a
1042.675781	n/a	266925	largeTSmallH	correct	incongruent	0.52344	no	T	H
1043.199219	n/a	267059	responseSmallH	correct	n/a	0.52344	no	n/a	n/a
1044.277344	n/a	267335	largeHSmallT	correct	incongruent	0.46484	no	H	T
1044.742188	n/a	267454	responseSmallT	correct	n/a	0.46484	no	n/a	n/a
1045.824219	n/a	267731	largeTSmallH	correct	incongruent	0.49219	no	T	H
1046.316406	n/a	267857	responseSmallH	correct	n/a	0.49219	no	n/a	n/a
1047.382812	n/a	268130	largeTSmallT	correct	congruent	0.49219	no	T	T
1047.875	n/a	268256	responseSmallT	correct	n/a	0.49219	no	n/a	n/a
1048.941406	n/a	268529	largeHSmallH	correct	congruent	0.45312	no	H	H
1049.394531	n/a	268645	responseSmallH	correct	n/a	0.45312	no	n/a	n/a
1050.476562	n/a	268922	largeHSmallH	correct	congruent	0.58594	no	H	H
1051.0625	n/a	269072	responseSmallH	correct	n/a	0.58594	no	n/a	n/a
1052.140625	n/a	269348	largeTSmallT	correct	congruent	0.44531	no	T	T
1052.585938	n/a	269462	responseSmallT	correct	n/a	0.44531	no	n/a	n/a
1053.648438	n/a	269734	largeTSmallH	error	incongruent	0.48438	no	T	H
1054.132812	n/a	269858	responseSmallT	error	n/a	0.48438	no	n/a	n/a
1055.207031	n/a	270133	largeTSmallT	correct	congruent	0.52734	no	T	T
1055.734375	n/a	270268	responseSmallT	correct	n/a	0.52734	no	n/a	n/a
1056.808594	n/a	270543	largeHSmallH	correct	congruent	0.47656	no	H	H
1057.285156	n/a	270665	responseSmallH	correct	n/a	0.47656	no	n/a	n/a
1058.34375	n/a	270936	largeHSmallT	correct	incongruent	0.4375	no	H	T
1058.78125	n/a	271048	responseSmallT	correct	n/a	0.4375	no	n/a	n/a
1059.847656	n/a	271321	largeHSmallT	correct	incongruent	0.55078	no	H	T
1060.398438	n/a	271462	responseSmallT	correct	n/a	0.55078	no	n/a	n/a
1061.460938	n/a	271734	largeTSmallH	correct	incongruent	0.55469	no	T	H
1062.015625	n/a	271876	responseSmallH	correct	n/a	0.55469	no	n/a	n/a
1063.089844	n/a	272151	largeHSmallH	correct	congruent	0.47656	no	H	H
1063.566406	n/a	272273	responseSmallH	correct	n/a	0.47656	no	n/a	n/a
1064.636719	n/a	272547	largeTSmallH	correct	incongruent	0.54688	no	T	H
1065.183594	n/a	272687	responseSmallH	correct	n/a	0.54688	no	n/a	n/a
1066.261719	n/a	272963	largeTSmallT	correct	congruent	0.54297	no	T	T
1066.804688	n/a	273102	responseSmallT	correct	n/a	0.54297	no	n/a	n/a
1067.875	n/a	273376	largeTSmallH	correct	incongruent	0.4375	no	T	H
1068.3125	n/a	273488	responseSmallH	correct	n/a	0.4375	no	n/a	n/a
1069.382812	n/a	273762	largeHSmallT	correct	incongruent	0.51953	no	H	T
1069.902344	n/a	273895	responseSmallT	correct	n/a	0.51953	no	n/a	n/a
1070.96875	n/a	274168	largeTSmallT	correct	congruent	0.70703	no	T	T
1071.675781	n/a	274349	responseSmallT	correct	n/a	0.70703	no	n/a	n/a
1072.742188	n/a	274622	largeHSmallH	correct	congruent	0.53516	no	H	H
1073.277344	n/a	274759	responseSmallH	correct	n/a	0.53516	no	n/a	n/a
1074.355469	n/a	275035	largeTSmallH	correct	incongruent	0.49609	no	T	H
1074.851562	n/a	275162	responseSmallH	correct	n/a	0.49609	no	n/a	n/a
1075.914062	n/a	275434	largeHSmallH	correct	congruent	0.51172	no	H	H
1076.425781	n/a	275565	responseSmallH	correct	n/a	0.51172	no	n/a	n/a
1077.488281	n/a	275837	largeHSmallT	correct	incongruent	0.42188	no	H	T
1077.910156	n/a	275945	responseSmallT	correct	n/a	0.42188	no	n/a	n/a
1078.980469	n/a	276219	largeHSmallH	correct	congruent	0.5	no	H	H
1079.480469	n/a	276347	responseSmallH	correct	n/a	0.5	no	n/a	n/a
1080.542969	n/a	276619	largeTSmallT	correct	congruent	0.46484	no	T	T
1081.007812	n/a	276738	responseSmallT	correct	n/a	0.46484	no	n/a	n/a
1082.074219	n/a	277011	largeHSmallT	correct	incongruent	0.50781	no	H	T
1082.582031	n/a	277141	responseSmallT	correct	n/a	0.50781	no	n/a	n/a
1083.648438	n/a	277414	largeHSmallT	correct	incongruent	0.46875	no	H	T
1084.117188	n/a	277534	responseSmallT	correct	n/a	0.46875	no	n/a	n/a
1085.179688	n/a	277806	largeHSmallT	correct	incongruent	0.49219	no	H	T
1085.671875	n/a	277932	responseSmallT	correct	n/a	0.49219	no	n/a	n/a
1086.742188	n/a	278206	largeTSmallH	correct	incongruent	0.48438	no	T	H
1087.226562	n/a	278330	responseSmallH	correct	n/a	0.48438	no	n/a	n/a
1088.300781	n/a	278605	largeHSmallT	correct	incongruent	0.51953	no	H	T
1088.820312	n/a	278738	responseSmallT	correct	n/a	0.51953	no	n/a	n/a
1089.886719	n/a	279011	largeHSmallT	correct	incongruent	0.56641	no	H	T
1090.453125	n/a	279156	responseSmallT	correct	n/a	0.56641	no	n/a	n/a
1091.527344	n/a	279431	largeHSmallH	correct	congruent	0.60156	no	H	H
1092.128906	n/a	279585	responseSmallH	correct	n/a	0.60156	no	n/a	n/a
1093.195312	n/a	279858	largeHSmallH	correct	congruent	0.60547	no	H	H
1093.800781	n/a	280013	responseSmallH	correct	n/a	0.60547	no	n/a	n/a
1094.859375	n/a	280284	largeTSmallH	error	incongruent	0.45703	no	T	H
1095.316406	n/a	280401	responseSmallT	error	n/a	0.45703	no	n/a	n/a
1096.382812	n/a	280674	largeHSmallH	correct	congruent	0.71094	no	H	H
1097.09375	n/a	280856	responseSmallH	correct	n/a	0.71094	no	n/a	n/a
1098.15625	n/a	281128	largeHSmallH	correct	congruent	0.44922	no	H	H
1098.605469	n/a	281243	responseSmallH	correct	n/a	0.44922	no	n/a	n/a
1099.675781	n/a	281517	largeTSmallT	correct	congruent	0.53516	no	T	T
1100.210938	n/a	281654	responseSmallT	correct	n/a	0.53516	no	n/a	n/a
1101.273438	n/a	281926	largeHSmallH	correct	congruent	0.51172	no	H	H
1101.785156	n/a	282057	responseSmallH	correct	n/a	0.51172	no	n/a	n/a
1102.859375	n/a	282332	largeTSmallT	correct	congruent	0.48438	no	T	T
1103.34375	n/a	282456	responseSmallT	correct	n/a	0.48438	no	n/a	n/a
1104.421875	n/a	282732	largeTSmallT	correct	congruent	0.51953	no	T	T
1104.941406	n/a	282865	responseSmallT	correct	n/a	0.51953	no	n/a	n/a
1106.007812	n/a	283138	largeHSmallH	correct	congruent	0.61328	no	H	H
1106.621094	n/a	283295	responseSmallH	correct	n/a	0.61328	no	n/a	n/a
1107.6875	n/a	283568	largeTSmallH	correct	incongruent	0.53906	no	T	H
1108.226562	n/a	283706	responseSmallH	correct	n/a	0.53906	no	n/a	n/a
1109.300781	n/a	283981	largeHSmallH	correct	congruent	0.52344	no	H	H
1109.824219	n/a	284115	responseSmallH	correct	n/a	0.52344	no	n/a	n/a
1110.902344	n/a	284391	largeTSmallT	correct	congruent	0.46484	no	T	T
1111.367188	n/a	284510	responseSmallT	correct	n/a	0.46484	no	n/a	n/a
1112.433594	n/a	284783	largeTSmallH	correct	incongruent	0.54297	no	T	H
1112.976562	n/a	284922	responseSmallH	correct	n/a	0.54297	no	n/a	n/a
1114.035156	n/a	285193	largeTSmallH	correct	incongruent	0.66797	no	T	H
1114.703125	n/a	285364	responseSmallH	correct	n/a	0.66797	no	n/a	n/a
1115.765625	n/a	285636	largeHSmallT	error	incongruent	0.47266	no	H	T
1116.238281	n/a	285757	responseSmallH	error	n/a	0.47266	no	n/a	n/a
1117.3125	n/a	286032	largeHSmallH	correct	congruent	0.49609	no	H	H
1117.808594	n/a	286159	responseSmallH	correct	n/a	0.49609	no	n/a	n/a
1118.875	n/a	286432	largeTSmallH	correct	incongruent	0.48828	no	T	H
1119.363281	n/a	286557	responseSmallH	correct	n/a	0.48828	no	n/a	n/a
1120.433594	n/a	286831	largeTSmallT	correct	congruent	0.45312	no	T	T
1120.886719	n/a	286947	responseSmallT	correct	n/a	0.45312	no	n/a	n/a
1121.953125	n/a	287220	largeTSmallT	correct	congruent	0.50391	no	T	T
1122.457031	n/a	287349	responseSmallT	correct	n/a	0.50391	no	n/a	n/a
1123.527344	n/a	287623	largeHSmallH	correct	congruent	0.47656	no	H	H
1124.003906	n/a	287745	responseSmallH	correct	n/a	0.47656	no	n/a	n/a
1125.074219	n/a	288019	largeTSmallT	correct	congruent	0.43359	no	T	T
1125.507812	n/a	288130	responseSmallT	correct	n/a	0.43359	no	n/a	n/a
1126.582031	n/a	288405	largeTSmallH	correct	incongruent	0.45703	no	T	H
1127.039062	n/a	288522	responseSmallH	correct	n/a	0.45703	no	n/a	n/a
1128.113281	n/a	288797	largeHSmallH	correct	congruent	0.51172	no	H	H
1128.625	n/a	288928	responseSmallH	correct	n/a	0.51172	no	n/a	n/a
1129.699219	n/a	289203	largeTSmallT	correct	congruent	0.4375	no	T	T
1130.136719	n/a	289315	responseSmallT	correct	n/a	0.4375	no	n/a	n/a
1131.21875	n/a	289592	largeHSmallT	error	incongruent	0.61719	no	H	T
1131.835938	n/a	289750	responseSmallH	error	n/a	0.61719	no	n/a	n/a
1132.898438	n/a	290022	largeHSmallH	correct	congruent	0.55469	no	H	H
1133.453125	n/a	290164	responseSmallH	correct	n/a	0.55469	no	n/a	n/a
1134.527344	n/a	290439	largeHSmallH	correct	congruent	0.55859	no	H	H
1135.085938	n/a	290582	responseSmallH	correct	n/a	0.55859	no	n/a	n/a
1136.167969	n/a	290859	largeHSmallH	correct	congruent	0.5625	no	H	H
1136.730469	n/a	291003	responseSmallH	correct	n/a	0.5625	no	n/a	n/a
1137.792969	n/a	291275	largeHSmallH	correct	congruent	0.50391	no	H	H
1138.296875	n/a	291404	responseSmallH	correct	n/a	0.50391	no	n/a	n/a
1139.367188	n/a	291678	largeTSmallT	correct	congruent	0.42969	no	T	T
1139.796875	n/a	291788	responseSmallT	correct	n/a	0.42969	no	n/a	n/a
1140.875	n/a	292064	largeTSmallT	correct	congruent	0.48438	no	T	T
1141.359375	n/a	292188	responseSmallT	correct	n/a	0.48438	no	n/a	n/a
1142.433594	n/a	292463	largeTSmallH	correct	incongruent	0.46875	no	T	H
1142.902344	n/a	292583	responseSmallH	correct	n/a	0.46875	no	n/a	n/a
1143.980469	n/a	292859	largeTSmallH	correct	incongruent	0.50391	no	T	H
1144.484375	n/a	292988	responseSmallH	correct	n/a	0.50391	no	n/a	n/a
1145.554688	n/a	293262	largeTSmallT	correct	congruent	0.53125	no	T	T
1146.085938	n/a	293398	responseSmallT	correct	n/a	0.53125	no	n/a	n/a
1147.152344	n/a	293671	largeTSmallT	correct	congruent	0.45703	no	T	T
1147.609375	n/a	293788	responseSmallT	correct	n/a	0.45703	no	n/a	n/a
1148.671875	n/a	294060	largeTSmallH	correct	incongruent	0.56641	no	T	H
1149.238281	n/a	294205	responseSmallH	correct	n/a	0.56641	no	n/a	n/a
1150.3125	n/a	294480	largeHSmallT	error	incongruent	0.46484	no	H	T
1150.777344	n/a	294599	responseSmallH	error	n/a	0.46484	no	n/a	n/a
1151.859375	n/a	294876	largeTSmallT	correct	congruent	0.42969	no	T	T
1152.289062	n/a	294986	responseSmallT	correct	n/a	0.42969	no	n/a	n/a
1153.351562	n/a	295258	largeTSmallT	correct	congruent	0.42188	no	T	T
1153.773438	n/a	295366	responseSmallT	correct	n/a	0.42188	no	n/a	n/a
1154.847656	n/a	295641	largeTSmallH	correct	incongruent	0.54688	no	T	H
1155.394531	n/a	295781	responseSmallH	correct	n/a	0.54688	no	n/a	n/a
1156.472656	n/a	296057	largeTSmallT	correct	congruent	0.4375	no	T	T
1156.910156	n/a	296169	responseSmallT	correct	n/a	0.4375	no	n/a	n/a
1157.980469	n/a	296443	largeHSmallT	correct	incongruent	0.59766	no	H	T
1158.578125	n/a	296596	responseSmallT	correct	n/a	0.59766	no	n/a	n/a
1159.660156	n/a	296873	largeHSmallT	correct	incongruent	0.49219	no	H	T
1160.152344	n/a	296999	responseSmallT	correct	n/a	0.49219	no	n/a	n/a
1161.234375	n/a	297276	largeHSmallH	correct	congruent	0.42188	no	H	H
1161.65625	n/a	297384	responseSmallH	correct	n/a	0.42188	no	n/a	n/a
1162.726562	n/a	297658	largeTSmallH	correct	incongruent	0.625	no	T	H
1163.351562	n/a	297818	responseSmallH	correct	n/a	0.625	no	n/a	n/a
1164.433594	n/a	298095	largeTSmallT	correct	congruent	0.5625	no	T	T
1164.996094	n/a	298239	responseSmallT	correct	n/a	0.5625	no	n/a	n/a
1166.074219	n/a	298515	largeTSmallH	correct	incongruent	0.71875	no	T	H
1166.792969	n/a	298699	responseSmallH	correct	n/a	0.71875	no	n/a	n/a
1167.859375	n/a	298972	largeTSmallH	correct	incongruent	0.51172	no	T	H
1168.371094	n/a	299103	responseSmallH	correct	n/a	0.51172	no	n/a	n/a
1169.460938	n/a	299382	largeTSmallH	correct	incongruent	0.49609	no	T	H
1169.957031	n/a	299509	responseSmallH	correct	n/a	0.49609	no	n/a	n/a
1171.03125	n/a	299784	largeTSmallT	correct	congruent	0.53516	no	T	T
1171.566406	n/a	299921	responseSmallT	correct	n/a	0.53516	no	n/a	n/a
1172.632812	n/a	300194	largeTSmallH	correct	incongruent	0.52734	no	T	H
1173.160156	n/a	300329	responseSmallH	correct	n/a	0.52734	no	n/a	n/a
1174.21875	n/a	300600	largeTSmallH	correct	incongruent	0.48438	no	T	H
1174.703125	n/a	300724	responseSmallH	correct	n/a	0.48438	no	n/a	n/a
1175.765625	n/a	300996	largeHSmallT	correct	incongruent	0.47656	no	H	T
1176.242188	n/a	301118	responseSmallT	correct	n/a	0.47656	no	n/a	n/a
1177.3125	n/a	301392	largeTSmallH	correct	incongruent	0.44141	no	T	H
1177.753906	n/a	301505	responseSmallH	correct	n/a	0.44141	no	n/a	n/a
1178.832031	n/a	301781	largeTSmallT	correct	congruent	0.5	no	T	T
1179.332031	n/a	301909	responseSmallT	correct	n/a	0.5	no	n/a	n/a
1180.40625	n/a	302184	largeHSmallT	correct	incongruent	0.53906	no	H	T
1180.945312	n/a	302322	responseSmallT	correct	n/a	0.53906	no	n/a	n/a
1182.019531	n/a	302597	largeHSmallT	correct	incongruent	0.48438	no	H	T
1182.503906	n/a	302721	responseSmallT	correct	n/a	0.48438	no	n/a	n/a
1183.566406	n/a	302993	largeTSmallH	correct	incongruent	0.51172	no	T	H
1184.078125	n/a	303124	responseSmallH	correct	n/a	0.51172	no	n/a	n/a
1185.140625	n/a	303396	largeTSmallH	correct	incongruent	0.51562	no	T	H
1185.65625	n/a	303528	responseSmallH	correct	n/a	0.51562	no	n/a	n/a
1186.738281	n/a	303805	largeTSmallT	correct	congruent	0.45703	no	T	T
1187.195312	n/a	303922	responseSmallT	correct	n/a	0.45703	no	n/a	n/a
1188.257812	n/a	304194	largeHSmallT	correct	incongruent	0.54297	no	H	T
1188.800781	n/a	304333	responseSmallT	correct	n/a	0.54297	no	n/a	n/a
1189.871094	n/a	304607	largeHSmallT	correct	incongruent	0.53516	no	H	T
1190.40625	n/a	304744	responseSmallT	correct	n/a	0.53516	no	n/a	n/a
1191.472656	n/a	305017	largeTSmallT	correct	congruent	0.55859	no	T	T
1192.03125	n/a	305160	responseSmallT	correct	n/a	0.55859	no	n/a	n/a
1193.097656	n/a	305433	largeTSmallH	correct	incongruent	0.57031	no	T	H
1193.667969	n/a	305579	responseSmallH	correct	n/a	0.57031	no	n/a	n/a
1194.738281	n/a	305853	largeHSmallT	correct	incongruent	0.47266	no	H	T
1195.210938	n/a	305974	responseSmallT	correct	n/a	0.47266	no	n/a	n/a
1196.285156	n/a	306249	largeTSmallT	correct	congruent	0.50781	no	T	T
1196.792969	n/a	306379	responseSmallT	correct	n/a	0.50781	no	n/a	n/a
1197.859375	n/a	306652	largeTSmallT	correct	congruent	0.55469	no	T	T
1198.414062	n/a	306794	responseSmallT	correct	n/a	0.55469	no	n/a	n/a
1199.484375	n/a	307068	largeTSmallH	correct	incongruent	0.53906	no	T	H
1200.023438	n/a	307206	responseSmallH	correct	n/a	0.53906	no	n/a	n/a
1201.085938	n/a	307478	largeHSmallH	correct	congruent	0.5	no	H	H
1201.585938	n/a	307606	responseSmallH	correct	n/a	0.5	no	n/a	n/a
1202.660156	n/a	307881	largeHSmallH	correct	congruent	0.49609	no	H	H
1203.15625	n/a	308008	responseSmallH	correct	n/a	0.49609	no	n/a	n/a
1204.21875	n/a	308280	largeHSmallT	correct	incongruent	0.4375	no	H	T
1204.65625	n/a	308392	responseSmallT	correct	n/a	0.4375	no	n/a	n/a
1205.726562	n/a	308666	largeTSmallT	correct	congruent	0.55859	no	T	T
1206.285156	n/a	308809	responseSmallT	correct	n/a	0.55859	no	n/a	n/a
1207.363281	n/a	309085	largeTSmallH	correct	incongruent	0.43359	no	T	H
1207.796875	n/a	309196	responseSmallH	correct	n/a	0.43359	no	n/a	n/a
1208.871094	n/a	309471	largeTSmallH	correct	incongruent	0.47266	no	T	H
1209.34375	n/a	309592	responseSmallH	correct	n/a	0.47266	no	n/a	n/a
1210.417969	n/a	309867	largeTSmallH	correct	incongruent	0.49609	no	T	H
1210.914062	n/a	309994	responseSmallH	correct	n/a	0.49609	no	n/a	n/a
1211.992188	n/a	310270	largeHSmallH	correct	congruent	0.46875	no	H	H
1212.460938	n/a	310390	responseSmallH	correct	n/a	0.46875	no	n/a	n/a
1213.539062	n/a	310666	largeHSmallH	correct	congruent	0.53125	no	H	H
1214.070312	n/a	310802	responseSmallH	correct	n/a	0.53125	no	n/a	n/a
1215.136719	n/a	311075	largeHSmallT	correct	incongruent	0.41797	no	H	T
1215.554688	n/a	311182	responseSmallT	correct	n/a	0.41797	no	n/a	n/a
1216.632812	n/a	311458	largeHSmallH	correct	congruent	0.47656	no	H	H
