onset	duration	sample	value	stimulus	response_type	response_time
7.99609375	n/a	2047	B	nontarget	n/a	n/a
10.31640625	n/a	2641	B	target	hit	492.1875
10.80859375	n/a	2767	rt	n/a	hit	492.1875
11.93359375	n/a	3055	D	nontarget	n/a	n/a
13.50390625	n/a	3457	D	target	hit	445.3125
13.94921875	n/a	3571	rt	n/a	hit	445.3125
15.08203125	n/a	3861	C	nontarget	n/a	n/a
16.65234375	n/a	4263	C	target	hit	371.0938
17.0234375	n/a	4358	rt	n/a	hit	371.0938
18.2265625	n/a	4666	B	nontarget	n/a	n/a
19.796875	n/a	5068	C	nontarget	n/a	n/a
21.359375	n/a	5468	A	nontarget	n/a	n/a
22.921875	n/a	5868	A	target	hit	437.5
23.359375	n/a	5980	rt	n/a	hit	437.5
24.50390625	n/a	6273	D	nontarget	n/a	n/a
26.078125	n/a	6676	A	nontarget	n/a	n/a
27.65234375	n/a	7079	C	nontarget	n/a	n/a
29.2265625	n/a	7482	C	target	hit	492.1875
29.71875	n/a	7608	rt	n/a	hit	492.1875
30.80078125	n/a	7885	B	nontarget	false_alarm	449.2188
31.25	n/a	8000	rt	n/a	false_alarm	449.2188
32.38671875	n/a	8291	D	nontarget	n/a	n/a
33.9609375	n/a	8694	A	nontarget	n/a	n/a
35.53125	n/a	9096	C	nontarget	n/a	n/a
37.10546875	n/a	9499	B	nontarget	n/a	n/a
38.6796875	n/a	9902	A	nontarget	n/a	n/a
40.2578125	n/a	10306	C	nontarget	n/a	n/a
41.83984375	n/a	10711	B	nontarget	n/a	n/a
43.4140625	n/a	11114	B	target	hit	652.3438
44.06640625	n/a	11281	rt	n/a	hit	652.3438
44.984375	n/a	11516	C	nontarget	n/a	n/a
46.5625	n/a	11920	B	nontarget	false_alarm	562.5
47.125	n/a	12064	rt	n/a	false_alarm	562.5
48.1328125	n/a	12322	C	nontarget	false_alarm	472.6562
48.60546875	n/a	12443	rt	n/a	false_alarm	472.6562
49.703125	n/a	12724	C	target	hit	542.9688
50.24609375	n/a	12863	rt	n/a	hit	542.9688
51.265625	n/a	13124	B	nontarget	n/a	n/a
52.828125	n/a	13524	C	nontarget	n/a	n/a
54.41015625	n/a	13929	A	nontarget	n/a	n/a
55.98828125	n/a	14333	C	nontarget	n/a	n/a
57.55859375	n/a	14735	B	nontarget	n/a	n/a
59.13671875	n/a	15139	D	nontarget	n/a	n/a
60.703125	n/a	15540	A	nontarget	n/a	n/a
62.29296875	n/a	15947	B	nontarget	n/a	n/a
63.8671875	n/a	16350	B	target	hit	468.75
64.3359375	n/a	16470	rt	n/a	hit	468.75
65.4375	n/a	16752	A	nontarget	n/a	n/a
67.015625	n/a	17156	B	nontarget	n/a	n/a
68.5859375	n/a	17558	C	nontarget	n/a	n/a
70.16015625	n/a	17961	B	nontarget	n/a	n/a
71.74609375	n/a	18367	D	nontarget	n/a	n/a
73.31640625	n/a	18769	C	nontarget	n/a	n/a
74.89453125	n/a	19173	A	nontarget	n/a	n/a
76.46484375	n/a	19575	B	nontarget	n/a	n/a
78.0390625	n/a	19978	C	nontarget	n/a	n/a
79.61328125	n/a	20381	C	target	hit	453.125
80.06640625	n/a	20497	rt	n/a	hit	453.125
81.18359375	n/a	20783	B	nontarget	n/a	n/a
82.7578125	n/a	21186	D	nontarget	n/a	n/a
84.33203125	n/a	21589	C	nontarget	n/a	n/a
85.90234375	n/a	21991	A	nontarget	n/a	n/a
87.48046875	n/a	22395	A	target	hit	421.875
87.90234375	n/a	22503	rt	n/a	hit	421.875
89.0546875	n/a	22798	A	target	hit	480.4688
89.53515625	n/a	22921	rt	n/a	hit	480.4688
90.625	n/a	23200	C	nontarget	n/a	n/a
92.18359375	n/a	23599	D	nontarget	n/a	n/a
93.74609375	n/a	23999	C	nontarget	n/a	n/a
95.33203125	n/a	24405	D	nontarget	n/a	n/a
96.90625	n/a	24808	D	target	hit	667.9688
97.57421875	n/a	24979	rt	n/a	hit	667.9688
98.4765625	n/a	25210	C	nontarget	n/a	n/a
100.0546875	n/a	25614	A	nontarget	n/a	n/a
101.625	n/a	26016	A	target	hit	550.7812
102.1757812	n/a	26157	rt	n/a	hit	550.7812
103.1953125	n/a	26418	C	nontarget	n/a	n/a
104.7734375	n/a	26822	D	nontarget	n/a	n/a
106.34375	n/a	27224	C	nontarget	false_alarm	476.5625
106.8203125	n/a	27346	rt	n/a	false_alarm	476.5625
107.9179688	n/a	27627	A	nontarget	n/a	n/a
109.4921875	n/a	28030	D	nontarget	n/a	n/a
111.0664062	n/a	28433	D	target	hit	480.4688
111.546875	n/a	28556	rt	n/a	hit	480.4688
112.6367188	n/a	28835	B	nontarget	n/a	n/a
114.2226562	n/a	29241	C	nontarget	n/a	n/a
115.8007812	n/a	29645	A	nontarget	n/a	n/a
117.3710938	n/a	30047	C	nontarget	n/a	n/a
118.9414062	n/a	30449	D	nontarget	n/a	n/a
120.5195312	n/a	30853	A	nontarget	n/a	n/a
122.0898438	n/a	31255	D	nontarget	n/a	n/a
123.6757812	n/a	31661	B	nontarget	n/a	n/a
125.2539062	n/a	32065	D	nontarget	n/a	n/a
126.8242188	n/a	32467	C	nontarget	n/a	n/a
128.3984375	n/a	32870	D	nontarget	n/a	n/a
129.9726562	n/a	33273	C	nontarget	n/a	n/a
131.5429688	n/a	33675	A	nontarget	n/a	n/a
133.1054688	n/a	34075	C	nontarget	n/a	n/a
134.6679688	n/a	34475	B	nontarget	n/a	n/a
136.25	n/a	34880	A	nontarget	n/a	n/a
137.8242188	n/a	35283	A	target	hit	609.375
138.4335938	n/a	35439	rt	n/a	hit	609.375
139.3945312	n/a	35685	B	nontarget	n/a	n/a
140.9726562	n/a	36089	A	nontarget	n/a	n/a
142.5429688	n/a	36491	B	nontarget	n/a	n/a
144.1289062	n/a	36897	C	nontarget	n/a	n/a
145.703125	n/a	37300	D	nontarget	n/a	n/a
147.2773438	n/a	37703	C	nontarget	n/a	n/a
148.8515625	n/a	38106	A	nontarget	n/a	n/a
150.421875	n/a	38508	C	nontarget	n/a	n/a
152.0078125	n/a	38914	A	nontarget	n/a	n/a
153.5820312	n/a	39317	B	nontarget	n/a	n/a
155.15625	n/a	39720	D	nontarget	n/a	n/a
156.7304688	n/a	40123	C	nontarget	n/a	n/a
158.3007812	n/a	40525	A	nontarget	n/a	n/a
159.875	n/a	40928	A	target	hit	488.2812
160.3632812	n/a	41053	rt	n/a	hit	488.2812
161.453125	n/a	41332	D	nontarget	n/a	n/a
163.0351562	n/a	41737	C	nontarget	n/a	n/a
164.6132812	n/a	42141	C	target	hit	621.0938
165.234375	n/a	42300	rt	n/a	hit	621.0938
166.1835938	n/a	42543	C	target	hit	523.4375
166.7070312	n/a	42677	rt	n/a	hit	523.4375
167.7539062	n/a	42945	A	nontarget	n/a	n/a
169.3320312	n/a	43349	B	nontarget	n/a	n/a
170.9023438	n/a	43751	B	target	hit	503.9062
171.40625	n/a	43880	rt	n/a	hit	503.9062
172.4609375	n/a	44150	D	nontarget	n/a	n/a
174.046875	n/a	44556	D	target	hit	605.4688
174.6523438	n/a	44711	rt	n/a	hit	605.4688
175.6210938	n/a	44959	C	nontarget	n/a	n/a
177.1953125	n/a	45362	D	nontarget	n/a	n/a
178.7734375	n/a	45766	A	nontarget	n/a	n/a
180.3398438	n/a	46167	B	nontarget	n/a	n/a
181.9296875	n/a	46574	D	nontarget	n/a	n/a
183.5	n/a	46976	C	nontarget	n/a	n/a
185.0742188	n/a	47379	B	nontarget	n/a	n/a
186.6484375	n/a	47782	B	target	hit	503.9062
187.1523438	n/a	47911	rt	n/a	hit	503.9062
188.2265625	n/a	48186	D	nontarget	n/a	n/a
189.7929688	n/a	48587	C	nontarget	n/a	n/a
191.3710938	n/a	48991	D	nontarget	n/a	n/a
192.953125	n/a	49396	D	target	hit	558.5938
193.5117188	n/a	49539	rt	n/a	hit	558.5938
194.53125	n/a	49800	D	target	hit	562.5
195.09375	n/a	49944	rt	n/a	hit	562.5
196.1015625	n/a	50202	B	nontarget	n/a	n/a
197.6757812	n/a	50605	B	target	hit	453.125
198.1289062	n/a	50721	rt	n/a	hit	453.125
199.25	n/a	51008	C	nontarget	n/a	n/a
200.8359375	n/a	51414	B	nontarget	n/a	n/a
202.4101562	n/a	51817	C	nontarget	n/a	n/a
203.9804688	n/a	52219	D	nontarget	n/a	n/a
205.5546875	n/a	52622	B	nontarget	n/a	n/a
207.1289062	n/a	53025	C	nontarget	n/a	n/a
208.703125	n/a	53428	A	nontarget	n/a	n/a
210.2890625	n/a	53834	B	nontarget	n/a	n/a
211.859375	n/a	54236	B	target	hit	718.75
212.578125	n/a	54420	rt	n/a	hit	718.75
213.4335938	n/a	54639	B	target	hit	617.1875
214.0507812	n/a	54797	rt	n/a	hit	617.1875
215.0117188	n/a	55043	C	nontarget	n/a	n/a
216.5820312	n/a	55445	C	target	hit	433.5938
217.015625	n/a	55556	rt	n/a	hit	433.5938
218.15625	n/a	55848	A	nontarget	n/a	n/a
219.7148438	n/a	56247	D	nontarget	n/a	n/a
221.3007812	n/a	56653	D	target	hit	507.8125
221.8085938	n/a	56783	rt	n/a	hit	507.8125
222.875	n/a	57056	B	nontarget	n/a	n/a
224.4492188	n/a	57459	D	nontarget	n/a	n/a
226.0195312	n/a	57861	C	nontarget	n/a	n/a
227.5976562	n/a	58265	D	nontarget	n/a	n/a
229.171875	n/a	58668	A	nontarget	n/a	n/a
230.7539062	n/a	59073	D	nontarget	n/a	n/a
232.328125	n/a	59476	C	nontarget	n/a	n/a
233.9023438	n/a	59879	A	nontarget	n/a	n/a
235.4765625	n/a	60282	D	nontarget	n/a	n/a
237.046875	n/a	60684	A	nontarget	n/a	n/a
238.6328125	n/a	61090	B	nontarget	n/a	n/a
240.2109375	n/a	61494	A	nontarget	n/a	n/a
241.78125	n/a	61896	B	nontarget	false_alarm	515.625
242.296875	n/a	62028	rt	n/a	false_alarm	515.625
243.3554688	n/a	62299	B	target	hit	445.3125
243.8007812	n/a	62413	rt	n/a	hit	445.3125
244.9296875	n/a	62702	D	nontarget	n/a	n/a
246.5	n/a	63104	A	nontarget	n/a	n/a
248.0859375	n/a	63510	D	nontarget	n/a	n/a
249.6640625	n/a	63914	A	nontarget	n/a	n/a
251.234375	n/a	64316	C	nontarget	n/a	n/a
252.8085938	n/a	64719	C	target	hit	570.3125
253.3789062	n/a	64865	rt	n/a	hit	570.3125
254.3789062	n/a	65121	B	nontarget	n/a	n/a
255.953125	n/a	65524	D	nontarget	n/a	n/a
257.5117188	n/a	65923	D	target	hit	535.1562
258.046875	n/a	66060	rt	n/a	hit	535.1562
259.0742188	n/a	66323	D	target	hit	671.875
259.7460938	n/a	66495	rt	n/a	hit	671.875
260.6601562	n/a	66729	B	nontarget	n/a	n/a
262.234375	n/a	67132	D	nontarget	n/a	n/a
263.8085938	n/a	67535	B	nontarget	n/a	n/a
265.3789062	n/a	67937	C	nontarget	n/a	n/a
266.953125	n/a	68340	C	target	hit	597.6562
267.5507812	n/a	68493	rt	n/a	hit	597.6562
268.53125	n/a	68744	C	target	hit	441.4062
268.9726562	n/a	68857	rt	n/a	hit	441.4062
270.1132812	n/a	69149	C	target	hit	437.5
270.5507812	n/a	69261	rt	n/a	hit	437.5
271.6914062	n/a	69553	D	nontarget	n/a	n/a
273.2578125	n/a	69954	D	target	hit	496.0938
273.7539062	n/a	70081	rt	n/a	hit	496.0938
274.8359375	n/a	70358	A	nontarget	n/a	n/a
276.4101562	n/a	70761	B	nontarget	n/a	n/a
277.9921875	n/a	71166	D	nontarget	n/a	n/a
279.5703125	n/a	71570	A	nontarget	n/a	n/a
281.140625	n/a	71972	B	nontarget	n/a	n/a
282.7148438	n/a	72375	A	nontarget	n/a	n/a
284.2851562	n/a	72777	B	nontarget	n/a	n/a
285.8632812	n/a	73181	D	nontarget	n/a	n/a
287.4335938	n/a	73583	D	target	hit	808.5938
288.2421875	n/a	73790	rt	n/a	hit	808.5938
289.0078125	n/a	73986	C	nontarget	n/a	n/a
290.578125	n/a	74388	C	target	hit	503.9062
291.0820312	n/a	74517	rt	n/a	hit	503.9062
292.1523438	n/a	74791	C	target	hit	425.7812
292.578125	n/a	74900	rt	n/a	hit	425.7812
293.7265625	n/a	75194	D	nontarget	n/a	n/a
295.3007812	n/a	75597	D	target	hit	464.8438
295.765625	n/a	75716	rt	n/a	hit	464.8438
296.875	n/a	76000	B	nontarget	n/a	n/a
298.4570312	n/a	76405	A	nontarget	n/a	n/a
300.0351562	n/a	76809	C	nontarget	n/a	n/a
301.609375	n/a	77212	C	target	hit	562.5
302.171875	n/a	77356	rt	n/a	hit	562.5
303.1796875	n/a	77614	A	nontarget	n/a	n/a
304.7539062	n/a	78017	D	nontarget	n/a	n/a
306.328125	n/a	78420	A	nontarget	n/a	n/a
307.890625	n/a	78820	A	target	hit	574.2188
308.4648438	n/a	78967	rt	n/a	hit	574.2188
309.4726562	n/a	79225	A	target	hit	488.2812
309.9609375	n/a	79350	rt	n/a	hit	488.2812
311.046875	n/a	79628	D	nontarget	n/a	n/a
312.6171875	n/a	80030	D	target	hit	441.4062
313.0585938	n/a	80143	rt	n/a	hit	441.4062
314.1953125	n/a	80434	C	nontarget	n/a	n/a
315.765625	n/a	80836	C	target	hit	511.7188
316.2773438	n/a	80967	rt	n/a	hit	511.7188
317.3515625	n/a	81242	A	nontarget	n/a	n/a
318.9296875	n/a	81646	B	nontarget	n/a	n/a
320.5	n/a	82048	C	nontarget	n/a	n/a
322.0742188	n/a	82451	D	nontarget	n/a	n/a
323.6484375	n/a	82854	C	nontarget	n/a	n/a
325.21875	n/a	83256	D	nontarget	n/a	n/a
326.7773438	n/a	83655	C	nontarget	n/a	n/a
328.3632812	n/a	84061	D	nontarget	n/a	n/a
329.9375	n/a	84464	B	nontarget	n/a	n/a
331.515625	n/a	84868	C	nontarget	n/a	n/a
333.0859375	n/a	85270	D	nontarget	n/a	n/a
334.65625	n/a	85672	A	nontarget	n/a	n/a
336.2304688	n/a	86075	B	nontarget	n/a	n/a
337.7929688	n/a	86475	C	nontarget	n/a	n/a
339.3671875	n/a	86878	B	nontarget	n/a	n/a
340.953125	n/a	87284	D	nontarget	n/a	n/a
342.5273438	n/a	87687	C	nontarget	n/a	n/a
344.0976562	n/a	88089	B	nontarget	n/a	n/a
345.671875	n/a	88492	C	nontarget	n/a	n/a
347.2460938	n/a	88895	D	nontarget	n/a	n/a
348.8085938	n/a	89295	A	nontarget	n/a	n/a
350.390625	n/a	89700	C	nontarget	n/a	n/a
351.96875	n/a	90104	C	target	hit	636.7188
352.6054688	n/a	90267	rt	n/a	hit	636.7188
353.5390625	n/a	90506	A	nontarget	n/a	n/a
355.1132812	n/a	90909	D	nontarget	n/a	n/a
356.6875	n/a	91312	D	target	hit	628.9062
357.3164062	n/a	91473	rt	n/a	hit	628.9062
358.2695312	n/a	91717	D	target	hit	457.0312
358.7265625	n/a	91834	rt	n/a	hit	457.0312
359.8476562	n/a	92121	C	nontarget	n/a	n/a
361.4179688	n/a	92523	C	target	hit	464.8438
361.8828125	n/a	92642	rt	n/a	hit	464.8438
362.9921875	n/a	92926	C	target	hit	449.2188
363.4414062	n/a	93041	rt	n/a	hit	449.2188
364.5664062	n/a	93329	D	nontarget	n/a	n/a
366.1367188	n/a	93731	A	nontarget	n/a	n/a
367.6953125	n/a	94130	B	nontarget	n/a	n/a
369.2578125	n/a	94530	A	nontarget	n/a	n/a
370.84375	n/a	94936	B	nontarget	n/a	n/a
372.4179688	n/a	95339	D	nontarget	n/a	n/a
373.9921875	n/a	95742	A	nontarget	n/a	n/a
375.5664062	n/a	96145	C	nontarget	n/a	n/a
377.1367188	n/a	96547	D	nontarget	n/a	n/a
378.7109375	n/a	96950	A	nontarget	n/a	n/a
380.2734375	n/a	97350	D	nontarget	n/a	n/a
381.8554688	n/a	97755	B	nontarget	n/a	n/a
383.4335938	n/a	98159	A	nontarget	n/a	n/a
385.0078125	n/a	98562	B	nontarget	n/a	n/a
386.578125	n/a	98964	C	nontarget	n/a	n/a
388.1523438	n/a	99367	B	nontarget	n/a	n/a
389.7265625	n/a	99770	C	nontarget	n/a	n/a
391.3085938	n/a	100175	C	target	hit	558.5938
391.8671875	n/a	100318	rt	n/a	hit	558.5938
392.8867188	n/a	100579	B	nontarget	n/a	n/a
394.4570312	n/a	100981	D	nontarget	n/a	n/a
396.03125	n/a	101384	B	nontarget	n/a	n/a
397.6054688	n/a	101787	B	target	hit	652.3438
398.2578125	n/a	101954	rt	n/a	hit	652.3438
399.1914062	n/a	102193	A	nontarget	n/a	n/a
400.765625	n/a	102596	D	nontarget	n/a	n/a
402.3359375	n/a	102998	B	nontarget	n/a	n/a
403.9101562	n/a	103401	C	nontarget	n/a	n/a
405.4882812	n/a	103805	B	nontarget	n/a	n/a
407.0546875	n/a	104206	D	nontarget	n/a	n/a
408.6445312	n/a	104613	B	nontarget	n/a	n/a
410.2148438	n/a	105015	B	target	hit	570.3125
410.7851562	n/a	105161	rt	n/a	hit	570.3125
411.7929688	n/a	105419	A	nontarget	n/a	n/a
413.3632812	n/a	105821	C	nontarget	n/a	n/a
414.9375	n/a	106224	D	nontarget	n/a	n/a
416.5117188	n/a	106627	B	nontarget	n/a	n/a
418.0976562	n/a	107033	C	nontarget	n/a	n/a
419.671875	n/a	107436	A	nontarget	n/a	n/a
421.2460938	n/a	107839	A	target	hit	507.8125
421.7539062	n/a	107969	rt	n/a	hit	507.8125
422.8164062	n/a	108241	D	nontarget	n/a	n/a
424.390625	n/a	108644	C	nontarget	n/a	n/a
425.9648438	n/a	109047	D	nontarget	n/a	n/a
427.5507812	n/a	109453	D	target	hit	566.4062
428.1171875	n/a	109598	rt	n/a	hit	566.4062
429.1289062	n/a	109857	B	nontarget	n/a	n/a
430.6953125	n/a	110258	C	nontarget	n/a	n/a
432.2695312	n/a	110661	A	nontarget	n/a	n/a
433.8476562	n/a	111065	A	target	hit	511.7188
434.359375	n/a	111196	rt	n/a	hit	511.7188
435.4296875	n/a	111470	A	target	hit	535.1562
435.9648438	n/a	111607	rt	n/a	hit	535.1562
437.0039062	n/a	111873	C	nontarget	n/a	n/a
438.5742188	n/a	112275	C	target	hit	457.0312
439.03125	n/a	112392	rt	n/a	hit	457.0312
440.1523438	n/a	112679	C	target	hit	441.4062
440.59375	n/a	112792	rt	n/a	hit	441.4062
441.7226562	n/a	113081	D	nontarget	n/a	n/a
443.296875	n/a	113484	B	nontarget	n/a	n/a
444.8828125	n/a	113890	A	nontarget	n/a	n/a
446.4570312	n/a	114293	A	target	hit	539.0625
446.9960938	n/a	114431	rt	n/a	hit	539.0625
448.0273438	n/a	114695	A	target	hit	464.8438
448.4921875	n/a	114814	rt	n/a	hit	464.8438
