onset	duration	sample	value	response_type	congruence	response_time	response_out_of_range	largeletter	smallletter
25.63427734	n/a	6562.375	largeHSmallT	correct	incongruent	0.81738	no	H	T
26.45166016	n/a	6771.625	responseLargeH	correct	n/a	0.81738	no	n/a	n/a
27.52294922	n/a	7045.875	largeHSmallT	correct	incongruent	0.41895	no	H	T
27.94189453	n/a	7153.125	responseLargeH	correct	n/a	0.41895	no	n/a	n/a
29.00292969	n/a	7424.75	largeTSmallH	correct	incongruent	0.45361	no	T	H
29.45654297	n/a	7540.875	responseLargeT	correct	n/a	0.45361	no	n/a	n/a
30.52246094	n/a	7813.75	largeHSmallH	correct	congruent	0.49805	no	H	H
31.02050781	n/a	7941.25	responseLargeH	correct	n/a	0.49805	no	n/a	n/a
32.09570312	n/a	8216.5	largeTSmallT	correct	congruent	0.39111	no	T	T
32.48681641	n/a	8316.625	responseLargeT	correct	n/a	0.39111	no	n/a	n/a
33.5625	n/a	8592	largeTSmallT	correct	congruent	0.4624	no	T	T
34.02490234	n/a	8710.375	responseLargeT	correct	n/a	0.4624	no	n/a	n/a
35.09570312	n/a	8984.5	largeTSmallT	correct	congruent	0.44678	no	T	T
35.54248047	n/a	9098.875	responseLargeT	correct	n/a	0.44678	no	n/a	n/a
36.61572266	n/a	9373.625	largeHSmallH	correct	congruent	0.4165	no	H	H
37.03222656	n/a	9480.25	responseLargeH	correct	n/a	0.4165	no	n/a	n/a
38.09619141	n/a	9752.625	largeHSmallT	correct	incongruent	0.44434	no	H	T
38.54052734	n/a	9866.375	responseLargeH	correct	n/a	0.44434	no	n/a	n/a
39.61572266	n/a	10141.625	largeTSmallT	correct	congruent	0.4458	no	T	T
40.06152344	n/a	10255.75	responseLargeT	correct	n/a	0.4458	no	n/a	n/a
41.13574219	n/a	10530.75	largeTSmallT	correct	congruent	0.51172	no	T	T
41.64746094	n/a	10661.75	responseLargeT	correct	n/a	0.51172	no	n/a	n/a
42.72265625	n/a	10937	largeHSmallT	correct	incongruent	0.37891	no	H	T
43.1015625	n/a	11034	responseLargeH	correct	n/a	0.37891	no	n/a	n/a
44.17578125	n/a	11309	largeHSmallH	correct	congruent	0.47607	no	H	H
44.65185547	n/a	11430.875	responseLargeH	correct	n/a	0.47607	no	n/a	n/a
45.70898438	n/a	11701.5	largeHSmallH	correct	congruent	0.36475	no	H	H
46.07373047	n/a	11794.875	responseLargeH	correct	n/a	0.36475	no	n/a	n/a
47.14892578	n/a	12070.125	largeHSmallT	correct	incongruent	0.43213	no	H	T
47.58105469	n/a	12180.75	responseLargeH	correct	n/a	0.43213	no	n/a	n/a
48.69970703	n/a	12467.125	largeTSmallT	correct	congruent	0.49609	no	T	T
49.19580078	n/a	12594.125	responseLargeT	correct	n/a	0.49609	no	n/a	n/a
50.26904297	n/a	12868.875	largeHSmallT	correct	incongruent	0.33105	no	H	T
50.60009766	n/a	12953.625	responseLargeH	correct	n/a	0.33105	no	n/a	n/a
51.66894531	n/a	13227.25	largeTSmallH	correct	incongruent	0.35303	no	T	H
52.02197266	n/a	13317.625	responseLargeT	correct	n/a	0.35303	no	n/a	n/a
53.09570312	n/a	13592.5	largeTSmallT	error	congruent	0.32715	no	T	T
53.42285156	n/a	13676.25	responseLargeH	error	n/a	0.32715	no	n/a	n/a
54.49560547	n/a	13950.875	largeHSmallT	correct	incongruent	0.40771	no	H	T
54.90332031	n/a	14055.25	responseLargeH	correct	n/a	0.40771	no	n/a	n/a
55.97509766	n/a	14329.625	largeHSmallT	correct	incongruent	0.42529	no	H	T
56.40039062	n/a	14438.5	responseLargeH	correct	n/a	0.42529	no	n/a	n/a
57.48193359	n/a	14715.375	largeHSmallT	correct	incongruent	0.62891	no	H	T
58.11083984	n/a	14876.375	responseLargeH	correct	n/a	0.62891	no	n/a	n/a
59.17529297	n/a	15148.875	largeHSmallT	correct	incongruent	0.48145	no	H	T
59.65673828	n/a	15272.125	responseLargeH	correct	n/a	0.48145	no	n/a	n/a
60.72167969	n/a	15544.75	largeHSmallT	correct	incongruent	0.33057	no	H	T
61.05224609	n/a	15629.375	responseLargeH	correct	n/a	0.33057	no	n/a	n/a
62.12207031	n/a	15903.25	largeTSmallH	correct	incongruent	0.43848	no	T	H
62.56054688	n/a	16015.5	responseLargeT	correct	n/a	0.43848	no	n/a	n/a
63.64208984	n/a	16292.375	largeTSmallH	error	incongruent	0.38574	no	T	H
64.02783203	n/a	16391.125	responseLargeH	error	n/a	0.38574	no	n/a	n/a
65.10839844	n/a	16667.75	largeTSmallT	correct	congruent	0.54834	no	T	T
65.65673828	n/a	16808.125	responseLargeT	correct	n/a	0.54834	no	n/a	n/a
66.72167969	n/a	17080.75	largeTSmallH	correct	incongruent	0.65869	no	T	H
67.38037109	n/a	17249.375	responseLargeT	correct	n/a	0.65869	no	n/a	n/a
68.44189453	n/a	17521.125	largeTSmallH	correct	incongruent	0.41357	no	T	H
68.85546875	n/a	17627	responseLargeT	correct	n/a	0.41357	no	n/a	n/a
69.96728516	n/a	17911.625	largeTSmallH	correct	incongruent	0.39941	no	T	H
70.36669922	n/a	18013.875	responseLargeT	correct	n/a	0.39941	no	n/a	n/a
71.44189453	n/a	18289.125	largeHSmallH	correct	congruent	0.48877	no	H	H
71.93066406	n/a	18414.25	responseLargeH	correct	n/a	0.48877	no	n/a	n/a
73.00146484	n/a	18688.375	largeTSmallH	correct	incongruent	0.58691	no	T	H
73.58837891	n/a	18838.625	responseLargeT	correct	n/a	0.58691	no	n/a	n/a
74.65527344	n/a	19111.75	largeTSmallT	correct	congruent	0.44287	no	T	T
75.09814453	n/a	19225.125	responseLargeT	correct	n/a	0.44287	no	n/a	n/a
76.16162109	n/a	19497.375	largeHSmallT	correct	incongruent	0.44531	no	H	T
76.60693359	n/a	19611.375	responseLargeH	correct	n/a	0.44531	no	n/a	n/a
77.68164062	n/a	19886.5	largeHSmallT	error	incongruent	0.37646	no	H	T
78.05810547	n/a	19982.875	responseLargeT	error	n/a	0.37646	no	n/a	n/a
79.13476562	n/a	20258.5	largeHSmallH	correct	congruent	0.42285	no	H	H
79.55761719	n/a	20366.75	responseLargeH	correct	n/a	0.42285	no	n/a	n/a
80.62792969	n/a	20640.75	largeHSmallT	correct	incongruent	0.40527	no	H	T
81.03320312	n/a	20744.5	responseLargeH	correct	n/a	0.40527	no	n/a	n/a
82.10791016	n/a	21019.625	largeHSmallT	correct	incongruent	0.39404	no	H	T
82.50195312	n/a	21120.5	responseLargeH	correct	n/a	0.39404	no	n/a	n/a
83.57470703	n/a	21395.125	largeTSmallT	correct	congruent	0.42822	no	T	T
84.00292969	n/a	21504.75	responseLargeT	correct	n/a	0.42822	no	n/a	n/a
85.08154297	n/a	21780.875	largeTSmallH	correct	incongruent	0.46973	no	T	H
85.55126953	n/a	21901.125	responseLargeT	correct	n/a	0.46973	no	n/a	n/a
86.61474609	n/a	22173.375	largeHSmallT	correct	incongruent	0.44531	no	H	T
87.06005859	n/a	22287.375	responseLargeH	correct	n/a	0.44531	no	n/a	n/a
88.13476562	n/a	22562.5	largeTSmallH	correct	incongruent	0.40625	no	T	H
88.54101562	n/a	22666.5	responseLargeT	correct	n/a	0.40625	no	n/a	n/a
89.61474609	n/a	22941.375	largeTSmallT	correct	congruent	0.51514	no	T	T
90.12988281	n/a	23073.25	responseLargeT	correct	n/a	0.51514	no	n/a	n/a
91.20117188	n/a	23347.5	largeTSmallH	correct	incongruent	0.4751	no	T	H
91.67626953	n/a	23469.125	responseLargeT	correct	n/a	0.4751	no	n/a	n/a
92.74804688	n/a	23743.5	largeTSmallH	correct	incongruent	0.43506	no	T	H
93.18310547	n/a	23854.875	responseLargeT	correct	n/a	0.43506	no	n/a	n/a
94.24169922	n/a	24125.875	largeHSmallH	correct	congruent	0.44678	no	H	H
94.68847656	n/a	24240.25	responseLargeH	correct	n/a	0.44678	no	n/a	n/a
95.76123047	n/a	24514.875	largeTSmallH	correct	incongruent	0.5835	no	T	H
96.34472656	n/a	24664.25	responseLargeT	correct	n/a	0.5835	no	n/a	n/a
97.41455078	n/a	24938.125	largeHSmallT	correct	incongruent	0.39502	no	H	T
97.80957031	n/a	25039.25	responseLargeH	correct	n/a	0.39502	no	n/a	n/a
98.88134766	n/a	25313.625	largeTSmallH	correct	incongruent	0.41602	no	T	H
99.29736328	n/a	25420.125	responseLargeT	correct	n/a	0.41602	no	n/a	n/a
100.3608398	n/a	25692.375	largeHSmallT	correct	incongruent	0.43018	no	H	T
100.7910156	n/a	25802.5	responseLargeH	correct	n/a	0.43018	no	n/a	n/a
101.8540039	n/a	26074.625	largeHSmallT	correct	incongruent	0.42285	no	H	T
102.2768555	n/a	26182.875	responseLargeH	correct	n/a	0.42285	no	n/a	n/a
103.3344727	n/a	26453.625	largeTSmallT	correct	congruent	0.48584	no	T	T
103.8203125	n/a	26578	responseLargeT	correct	n/a	0.48584	no	n/a	n/a
104.8808594	n/a	26849.5	largeTSmallT	correct	congruent	0.43652	no	T	T
105.3173828	n/a	26961.25	responseLargeT	correct	n/a	0.43652	no	n/a	n/a
106.3876953	n/a	27235.25	largeHSmallT	correct	incongruent	0.39941	no	H	T
106.7871094	n/a	27337.5	responseLargeH	correct	n/a	0.39941	no	n/a	n/a
107.8676758	n/a	27614.125	largeHSmallT	error	incongruent	0.37158	no	H	T
108.2392578	n/a	27709.25	responseLargeT	error	n/a	0.37158	no	n/a	n/a
109.3208008	n/a	27986.125	largeHSmallH	correct	congruent	0.56445	no	H	H
109.8852539	n/a	28130.625	responseLargeH	correct	n/a	0.56445	no	n/a	n/a
110.9472656	n/a	28402.5	largeTSmallT	correct	congruent	0.44531	no	T	T
111.3925781	n/a	28516.5	responseLargeT	correct	n/a	0.44531	no	n/a	n/a
112.4672852	n/a	28791.625	largeTSmallH	correct	incongruent	0.48779	no	T	H
112.9550781	n/a	28916.5	responseLargeT	correct	n/a	0.48779	no	n/a	n/a
114.0273438	n/a	29191	largeTSmallT	correct	congruent	0.48877	no	T	T
114.5161133	n/a	29316.125	responseLargeT	correct	n/a	0.48877	no	n/a	n/a
115.5874023	n/a	29590.375	largeTSmallT	correct	congruent	0.37451	no	T	T
115.9619141	n/a	29686.25	responseLargeT	correct	n/a	0.37451	no	n/a	n/a
117.0405273	n/a	29962.375	largeTSmallH	correct	incongruent	0.44727	no	T	H
117.487793	n/a	30076.875	responseLargeT	correct	n/a	0.44727	no	n/a	n/a
118.5605469	n/a	30351.5	largeHSmallH	correct	congruent	0.45068	no	H	H
119.0112305	n/a	30466.875	responseLargeH	correct	n/a	0.45068	no	n/a	n/a
120.0805664	n/a	30740.625	largeTSmallT	correct	congruent	0.35693	no	T	T
120.4375	n/a	30832	responseLargeT	correct	n/a	0.35693	no	n/a	n/a
121.5205078	n/a	31109.25	largeHSmallH	correct	congruent	0.39941	no	H	H
121.9199219	n/a	31211.5	responseLargeH	correct	n/a	0.39941	no	n/a	n/a
123.0004883	n/a	31488.125	largeHSmallH	error	congruent	0.43506	no	H	H
123.4355469	n/a	31599.5	responseLargeT	error	n/a	0.43506	no	n/a	n/a
124.5073242	n/a	31873.875	largeTSmallT	correct	congruent	0.46924	no	T	T
124.9765625	n/a	31994	responseLargeT	correct	n/a	0.46924	no	n/a	n/a
126.0537109	n/a	32269.75	largeHSmallT	correct	incongruent	0.44336	no	H	T
126.4970703	n/a	32383.25	responseLargeH	correct	n/a	0.44336	no	n/a	n/a
127.5737305	n/a	32658.875	largeHSmallH	error	congruent	0.42383	no	H	H
127.9975586	n/a	32767.375	responseLargeT	error	n/a	0.42383	no	n/a	n/a
129.0668945	n/a	33041.125	largeHSmallH	correct	congruent	0.44385	no	H	H
129.5107422	n/a	33154.75	responseLargeH	correct	n/a	0.44385	no	n/a	n/a
130.5737305	n/a	33426.875	largeTSmallT	correct	congruent	0.49805	no	T	T
131.0717773	n/a	33554.375	responseLargeT	correct	n/a	0.49805	no	n/a	n/a
132.1469727	n/a	33829.625	largeHSmallT	correct	incongruent	0.43945	no	H	T
132.5864258	n/a	33942.125	responseLargeH	correct	n/a	0.43945	no	n/a	n/a
133.6538086	n/a	34215.375	largeHSmallH	error	congruent	0.40479	no	H	H
134.0585938	n/a	34319	responseLargeT	error	n/a	0.40479	no	n/a	n/a
135.1333008	n/a	34594.125	largeTSmallT	correct	congruent	0.52637	no	T	T
135.659668	n/a	34728.875	responseLargeT	correct	n/a	0.52637	no	n/a	n/a
136.7202148	n/a	35000.375	largeTSmallT	correct	congruent	0.47021	no	T	T
137.1904297	n/a	35120.75	responseLargeT	correct	n/a	0.47021	no	n/a	n/a
138.253418	n/a	35392.875	largeHSmallT	correct	incongruent	0.43066	no	H	T
138.684082	n/a	35503.125	responseLargeH	correct	n/a	0.43066	no	n/a	n/a
139.746582	n/a	35775.125	largeHSmallH	correct	congruent	0.35352	no	H	H
140.1000977	n/a	35865.625	responseLargeH	correct	n/a	0.35352	no	n/a	n/a
141.1733398	n/a	36140.375	largeTSmallH	correct	incongruent	0.4917	no	T	H
141.6650391	n/a	36266.25	responseLargeT	correct	n/a	0.4917	no	n/a	n/a
142.7333984	n/a	36539.75	largeTSmallT	correct	congruent	0.49316	no	T	T
143.2265625	n/a	36666	responseLargeT	correct	n/a	0.49316	no	n/a	n/a
144.293457	n/a	36939.125	largeHSmallT	correct	incongruent	0.35791	no	H	T
144.6513672	n/a	37030.75	responseLargeH	correct	n/a	0.35791	no	n/a	n/a
145.7333984	n/a	37307.75	largeTSmallH	correct	incongruent	0.39844	no	T	H
146.1318359	n/a	37409.75	responseLargeT	correct	n/a	0.39844	no	n/a	n/a
147.2133789	n/a	37686.625	largeTSmallH	correct	incongruent	0.48291	no	T	H
147.6962891	n/a	37810.25	responseLargeT	correct	n/a	0.48291	no	n/a	n/a
148.7734375	n/a	38086	largeTSmallH	error	incongruent	0.33252	no	T	H
149.105957	n/a	38171.125	responseLargeH	error	n/a	0.33252	no	n/a	n/a
150.1733398	n/a	38444.375	largeHSmallH	correct	congruent	0.48877	no	H	H
150.6621094	n/a	38569.5	responseLargeH	correct	n/a	0.48877	no	n/a	n/a
151.7329102	n/a	38843.625	largeTSmallH	correct	incongruent	0.69482	no	T	H
152.4277344	n/a	39021.5	responseLargeT	correct	n/a	0.69482	no	n/a	n/a
153.4931641	n/a	39294.25	largeTSmallH	correct	incongruent	0.54492	no	T	H
154.0380859	n/a	39433.75	responseLargeT	correct	n/a	0.54492	no	n/a	n/a
155.1064453	n/a	39707.25	largeTSmallH	error	incongruent	0.43506	no	T	H
155.5415039	n/a	39818.625	responseLargeH	error	n/a	0.43506	no	n/a	n/a
156.612793	n/a	40092.875	largeTSmallH	correct	incongruent	0.5332	no	T	H
157.1459961	n/a	40229.375	responseLargeT	correct	n/a	0.5332	no	n/a	n/a
158.2265625	n/a	40506	largeHSmallT	correct	incongruent	0.42529	no	H	T
158.6518555	n/a	40614.875	responseLargeH	correct	n/a	0.42529	no	n/a	n/a
159.7192383	n/a	40888.125	largeHSmallH	correct	congruent	0.51709	no	H	H
160.2363281	n/a	41020.5	responseLargeH	correct	n/a	0.51709	no	n/a	n/a
161.3061523	n/a	41294.375	largeHSmallT	correct	incongruent	0.41797	no	H	T
161.7241211	n/a	41401.375	responseLargeH	correct	n/a	0.41797	no	n/a	n/a
162.7993164	n/a	41676.625	largeTSmallT	correct	congruent	0.51172	no	T	T
163.3110352	n/a	41807.625	responseLargeT	correct	n/a	0.51172	no	n/a	n/a
164.3862305	n/a	42082.875	largeTSmallH	correct	incongruent	0.521	no	T	H
164.9072266	n/a	42216.25	responseLargeT	correct	n/a	0.521	no	n/a	n/a
165.972168	n/a	42488.875	largeTSmallH	error	incongruent	0.40283	no	T	H
166.375	n/a	42592	responseLargeH	error	n/a	0.40283	no	n/a	n/a
167.4394531	n/a	42864.5	largeHSmallH	correct	congruent	0.47119	no	H	H
167.9106445	n/a	42985.125	responseLargeH	correct	n/a	0.47119	no	n/a	n/a
168.9863281	n/a	43260.5	largeHSmallH	correct	congruent	0.55664	no	H	H
169.5429688	n/a	43403	responseLargeH	correct	n/a	0.55664	no	n/a	n/a
170.612793	n/a	43676.875	largeTSmallT	correct	congruent	0.50928	no	T	T
171.1220703	n/a	43807.25	responseLargeT	correct	n/a	0.50928	no	n/a	n/a
172.1992188	n/a	44083	largeHSmallH	correct	congruent	0.5127	no	H	H
172.7119141	n/a	44214.25	responseLargeH	correct	n/a	0.5127	no	n/a	n/a
173.7724609	n/a	44485.75	largeTSmallH	correct	incongruent	0.37695	no	T	H
174.1494141	n/a	44582.25	responseLargeT	correct	n/a	0.37695	no	n/a	n/a
175.2255859	n/a	44857.75	largeHSmallH	correct	congruent	0.41162	no	H	H
175.637207	n/a	44963.125	responseLargeH	correct	n/a	0.41162	no	n/a	n/a
176.7055664	n/a	45236.625	largeTSmallT	correct	congruent	0.39404	no	T	T
177.0996094	n/a	45337.5	responseLargeT	correct	n/a	0.39404	no	n/a	n/a
178.1723633	n/a	45612.125	largeHSmallH	correct	congruent	0.36816	no	H	H
178.5405273	n/a	45706.375	responseLargeH	correct	n/a	0.36816	no	n/a	n/a
179.6123047	n/a	45980.75	largeHSmallT	correct	incongruent	0.50732	no	H	T
180.1196289	n/a	46110.625	responseLargeH	correct	n/a	0.50732	no	n/a	n/a
181.1855469	n/a	46383.5	largeTSmallT	correct	congruent	0.75195	no	T	T
181.9375	n/a	46576	responseLargeT	correct	n/a	0.75195	no	n/a	n/a
183.012207	n/a	46851.125	largeHSmallH	correct	congruent	0.43311	no	H	H
183.4453125	n/a	46962	responseLargeH	correct	n/a	0.43311	no	n/a	n/a
184.519043	n/a	47236.875	largeTSmallH	correct	incongruent	0.53271	no	T	H
185.0517578	n/a	47373.25	responseLargeT	correct	n/a	0.53271	no	n/a	n/a
186.1323242	n/a	47649.875	largeTSmallT	correct	congruent	0.46582	no	T	T
186.5981445	n/a	47769.125	responseLargeT	correct	n/a	0.46582	no	n/a	n/a
187.6787109	n/a	48045.75	largeTSmallT	correct	congruent	0.42236	no	T	T
188.1010742	n/a	48153.875	responseLargeT	correct	n/a	0.42236	no	n/a	n/a
189.1723633	n/a	48428.125	largeTSmallH	correct	incongruent	0.61865	no	T	H
189.7910156	n/a	48586.5	responseLargeT	correct	n/a	0.61865	no	n/a	n/a
190.9453125	n/a	48882	largeHSmallT	correct	incongruent	0.66992	no	H	T
191.6152344	n/a	49053.5	responseLargeH	correct	n/a	0.66992	no	n/a	n/a
192.6787109	n/a	49325.75	largeHSmallH	correct	congruent	0.45215	no	H	H
193.1308594	n/a	49441.5	responseLargeH	correct	n/a	0.45215	no	n/a	n/a
194.1987305	n/a	49714.875	largeTSmallT	correct	congruent	0.4248	no	T	T
194.6235352	n/a	49823.625	responseLargeT	correct	n/a	0.4248	no	n/a	n/a
195.6918945	n/a	50097.125	largeHSmallH	correct	congruent	0.4375	no	H	H
196.1293945	n/a	50209.125	responseLargeH	correct	n/a	0.4375	no	n/a	n/a
197.2119141	n/a	50486.25	largeTSmallT	correct	congruent	0.51172	no	T	T
197.7236328	n/a	50617.25	responseLargeT	correct	n/a	0.51172	no	n/a	n/a
198.7988281	n/a	50892.5	largeTSmallT	correct	congruent	0.46143	no	T	T
199.2602539	n/a	51010.625	responseLargeT	correct	n/a	0.46143	no	n/a	n/a
200.3320312	n/a	51285	largeHSmallT	correct	incongruent	0.42725	no	H	T
200.7592773	n/a	51394.375	responseLargeH	correct	n/a	0.42725	no	n/a	n/a
201.9594727	n/a	51701.625	largeTSmallT	correct	congruent	0.51318	no	T	T
202.4726562	n/a	51833	responseLargeT	correct	n/a	0.51318	no	n/a	n/a
203.5454102	n/a	52107.625	largeHSmallT	correct	incongruent	0.4458	no	H	T
203.9912109	n/a	52221.75	responseLargeH	correct	n/a	0.4458	no	n/a	n/a
205.0649414	n/a	52496.625	largeHSmallH	correct	congruent	0.43994	no	H	H
205.5048828	n/a	52609.25	responseLargeH	correct	n/a	0.43994	no	n/a	n/a
206.5849609	n/a	52885.75	largeTSmallT	correct	congruent	0.44727	no	T	T
207.0322266	n/a	53000.25	responseLargeT	correct	n/a	0.44727	no	n/a	n/a
208.0917969	n/a	53271.5	largeHSmallT	correct	incongruent	0.5625	no	H	T
208.6542969	n/a	53415.5	responseLargeH	correct	n/a	0.5625	no	n/a	n/a
209.7182617	n/a	53687.875	largeHSmallT	correct	incongruent	0.479	no	H	T
210.1972656	n/a	53810.5	responseLargeH	correct	n/a	0.479	no	n/a	n/a
211.2646484	n/a	54083.75	largeTSmallH	correct	incongruent	0.66895	no	T	H
211.9335938	n/a	54255	responseLargeT	correct	n/a	0.66895	no	n/a	n/a
213.0117188	n/a	54531	largeTSmallT	correct	congruent	0.45801	no	T	T
213.4697266	n/a	54648.25	responseLargeT	correct	n/a	0.45801	no	n/a	n/a
214.5317383	n/a	54920.125	largeHSmallH	correct	congruent	0.43213	no	H	H
214.9638672	n/a	55030.75	responseLargeH	correct	n/a	0.43213	no	n/a	n/a
216.0380859	n/a	55305.75	largeHSmallT	correct	incongruent	0.39893	no	H	T
216.4370117	n/a	55407.875	responseLargeH	correct	n/a	0.39893	no	n/a	n/a
217.5048828	n/a	55681.25	largeTSmallH	correct	incongruent	0.42627	no	T	H
217.9311523	n/a	55790.375	responseLargeT	correct	n/a	0.42627	no	n/a	n/a
218.9980469	n/a	56063.5	largeHSmallH	correct	congruent	0.37305	no	H	H
219.3710938	n/a	56159	responseLargeH	correct	n/a	0.37305	no	n/a	n/a
220.4379883	n/a	56432.125	largeTSmallH	correct	incongruent	0.47217	no	T	H
220.9101562	n/a	56553	responseLargeT	correct	n/a	0.47217	no	n/a	n/a
221.984375	n/a	56828	largeHSmallT	correct	incongruent	0.42041	no	H	T
222.4047852	n/a	56935.625	responseLargeH	correct	n/a	0.42041	no	n/a	n/a
223.4780273	n/a	57210.375	largeTSmallT	correct	congruent	0.43799	no	T	T
223.9160156	n/a	57322.5	responseLargeT	correct	n/a	0.43799	no	n/a	n/a
224.984375	n/a	57596	largeTSmallH	correct	incongruent	0.49561	no	T	H
225.4799805	n/a	57722.875	responseLargeT	correct	n/a	0.49561	no	n/a	n/a
226.5444336	n/a	57995.375	largeHSmallH	correct	congruent	0.4585	no	H	H
227.0029297	n/a	58112.75	responseLargeH	correct	n/a	0.4585	no	n/a	n/a
228.0776367	n/a	58387.875	largeHSmallT	correct	incongruent	0.5	no	H	T
228.5776367	n/a	58515.875	responseLargeH	correct	n/a	0.5	no	n/a	n/a
229.6513672	n/a	58790.75	largeTSmallH	correct	incongruent	0.43164	no	T	H
230.0830078	n/a	58901.25	responseLargeT	correct	n/a	0.43164	no	n/a	n/a
231.1577148	n/a	59176.375	largeTSmallT	correct	congruent	0.5166	no	T	T
231.6743164	n/a	59308.625	responseLargeT	correct	n/a	0.5166	no	n/a	n/a
232.7446289	n/a	59582.625	largeTSmallH	correct	incongruent	0.44629	no	T	H
233.190918	n/a	59696.875	responseLargeT	correct	n/a	0.44629	no	n/a	n/a
234.2509766	n/a	59968.25	largeTSmallH	correct	incongruent	0.49902	no	T	H
234.75	n/a	60096	responseLargeT	correct	n/a	0.49902	no	n/a	n/a
235.8110352	n/a	60367.625	largeHSmallH	correct	congruent	0.48438	no	H	H
236.2954102	n/a	60491.625	responseLargeH	correct	n/a	0.48438	no	n/a	n/a
237.3579102	n/a	60763.625	largeHSmallH	correct	congruent	0.4458	no	H	H
237.8037109	n/a	60877.75	responseLargeH	correct	n/a	0.4458	no	n/a	n/a
238.9443359	n/a	61169.75	largeHSmallT	correct	incongruent	0.43115	no	H	T
239.3754883	n/a	61280.125	responseLargeH	correct	n/a	0.43115	no	n/a	n/a
240.4506836	n/a	61555.375	largeHSmallH	correct	congruent	0.42285	no	H	H
240.8735352	n/a	61663.625	responseLargeH	correct	n/a	0.42285	no	n/a	n/a
241.9443359	n/a	61937.75	largeHSmallH	correct	congruent	0.40186	no	H	H
242.3461914	n/a	62040.625	responseLargeH	correct	n/a	0.40186	no	n/a	n/a
243.4106445	n/a	62313.125	largeHSmallT	correct	incongruent	0.38623	no	H	T
243.796875	n/a	62412	responseLargeH	correct	n/a	0.38623	no	n/a	n/a
244.9438477	n/a	62705.625	largeTSmallT	correct	congruent	0.45508	no	T	T
245.3989258	n/a	62822.125	responseLargeT	correct	n/a	0.45508	no	n/a	n/a
246.4775391	n/a	63098.25	largeHSmallH	correct	congruent	0.38965	no	H	H
246.8671875	n/a	63198	responseLargeH	correct	n/a	0.38965	no	n/a	n/a
247.9443359	n/a	63473.75	largeTSmallT	correct	congruent	0.55908	no	T	T
248.503418	n/a	63616.875	responseLargeT	correct	n/a	0.55908	no	n/a	n/a
249.5708008	n/a	63890.125	largeHSmallH	correct	congruent	0.40479	no	H	H
249.9755859	n/a	63993.75	responseLargeH	correct	n/a	0.40479	no	n/a	n/a
251.0371094	n/a	64265.5	largeTSmallH	correct	incongruent	0.37988	no	T	H
251.4169922	n/a	64362.75	responseLargeT	correct	n/a	0.37988	no	n/a	n/a
252.4907227	n/a	64637.625	largeHSmallH	correct	congruent	0.3916	no	H	H
252.8823242	n/a	64737.875	responseLargeH	correct	n/a	0.3916	no	n/a	n/a
253.9570312	n/a	65013	largeHSmallT	correct	incongruent	0.53076	no	H	T
254.487793	n/a	65148.875	responseLargeH	correct	n/a	0.53076	no	n/a	n/a
255.5703125	n/a	65426	largeTSmallH	correct	incongruent	0.46289	no	T	H
256.0332031	n/a	65544.5	responseLargeT	correct	n/a	0.46289	no	n/a	n/a
257.1171875	n/a	65822	largeHSmallH	correct	congruent	0.42871	no	H	H
257.5458984	n/a	65931.75	responseLargeH	correct	n/a	0.42871	no	n/a	n/a
258.6235352	n/a	66207.625	largeHSmallT	correct	incongruent	0.44824	no	H	T
259.0717773	n/a	66322.375	responseLargeH	correct	n/a	0.44824	no	n/a	n/a
260.1435547	n/a	66596.75	largeHSmallT	correct	incongruent	0.38525	no	H	T
260.5288086	n/a	66695.375	responseLargeH	correct	n/a	0.38525	no	n/a	n/a
261.6103516	n/a	66972.25	largeTSmallT	correct	congruent	0.45654	no	T	T
262.0668945	n/a	67089.125	responseLargeT	correct	n/a	0.45654	no	n/a	n/a
263.1303711	n/a	67361.375	largeHSmallH	correct	congruent	0.38623	no	H	H
263.5166016	n/a	67460.25	responseLargeH	correct	n/a	0.38623	no	n/a	n/a
264.5834961	n/a	67733.375	largeHSmallT	correct	incongruent	0.67188	no	H	T
265.2553711	n/a	67905.375	responseLargeH	correct	n/a	0.67188	no	n/a	n/a
266.3305664	n/a	68180.625	largeHSmallH	correct	congruent	0.4292	no	H	H
266.7597656	n/a	68290.5	responseLargeH	correct	n/a	0.4292	no	n/a	n/a
267.956543	n/a	68596.875	largeTSmallH	correct	incongruent	0.49072	no	T	H
268.4472656	n/a	68722.5	responseLargeT	correct	n/a	0.49072	no	n/a	n/a
269.5166016	n/a	68996.25	largeHSmallT	correct	incongruent	0.43066	no	H	T
269.9472656	n/a	69106.5	responseLargeH	correct	n/a	0.43066	no	n/a	n/a
271.0234375	n/a	69382	largeTSmallH	correct	incongruent	0.4873	no	T	H
271.5107422	n/a	69506.75	responseLargeT	correct	n/a	0.4873	no	n/a	n/a
272.5834961	n/a	69781.375	largeTSmallT	correct	congruent	0.44873	no	T	T
273.0322266	n/a	69896.25	responseLargeT	correct	n/a	0.44873	no	n/a	n/a
274.1035156	n/a	70170.5	largeHSmallH	correct	congruent	0.42627	no	H	H
274.5297852	n/a	70279.625	responseLargeH	correct	n/a	0.42627	no	n/a	n/a
275.5966797	n/a	70552.75	largeTSmallH	correct	incongruent	0.48193	no	T	H
276.0786133	n/a	70676.125	responseLargeT	correct	n/a	0.48193	no	n/a	n/a
277.1435547	n/a	70948.75	largeHSmallT	correct	incongruent	0.48242	no	H	T
277.6259766	n/a	71072.25	responseLargeH	correct	n/a	0.48242	no	n/a	n/a
278.703125	n/a	71348	largeHSmallH	correct	congruent	0.4707	no	H	H
279.1738281	n/a	71468.5	responseLargeH	correct	n/a	0.4707	no	n/a	n/a
280.25	n/a	71744	largeTSmallH	correct	incongruent	0.69971	no	T	H
280.949707	n/a	71923.125	responseLargeT	correct	n/a	0.69971	no	n/a	n/a
282.0234375	n/a	72198	largeTSmallT	correct	congruent	0.48633	no	T	T
282.5097656	n/a	72322.5	responseLargeT	correct	n/a	0.48633	no	n/a	n/a
283.5830078	n/a	72597.25	largeTSmallT	correct	congruent	0.4585	no	T	T
284.0415039	n/a	72714.625	responseLargeT	correct	n/a	0.4585	no	n/a	n/a
285.1162109	n/a	72989.75	largeHSmallT	correct	incongruent	0.45703	no	H	T
285.5732422	n/a	73106.75	responseLargeH	correct	n/a	0.45703	no	n/a	n/a
286.6499023	n/a	73382.375	largeTSmallT	correct	congruent	0.30664	no	T	T
286.956543	n/a	73460.875	responseLargeT	correct	n/a	0.30664	no	n/a	n/a
288.0361328	n/a	73737.25	largeHSmallH	correct	congruent	0.37646	no	H	H
288.4125977	n/a	73833.625	responseLargeH	correct	n/a	0.37646	no	n/a	n/a
289.4765625	n/a	74106	largeTSmallT	correct	congruent	0.32324	no	T	T
289.7998047	n/a	74188.75	responseLargeT	correct	n/a	0.32324	no	n/a	n/a
290.8632812	n/a	74461	largeHSmallT	correct	incongruent	0.34717	no	H	T
291.2104492	n/a	74549.875	responseLargeH	correct	n/a	0.34717	no	n/a	n/a
292.2758789	n/a	74822.625	largeHSmallH	correct	congruent	0.43213	no	H	H
292.7080078	n/a	74933.25	responseLargeH	correct	n/a	0.43213	no	n/a	n/a
293.7695312	n/a	75205	largeTSmallT	correct	congruent	0.34717	no	T	T
294.1166992	n/a	75293.875	responseLargeT	correct	n/a	0.34717	no	n/a	n/a
295.1962891	n/a	75570.25	largeHSmallH	correct	congruent	0.40137	no	H	H
295.5976562	n/a	75673	responseLargeH	correct	n/a	0.40137	no	n/a	n/a
296.6762695	n/a	75949.125	largeHSmallH	error	congruent	0.34326	no	H	H
297.0195312	n/a	76037	responseLargeT	error	n/a	0.34326	no	n/a	n/a
298.1030273	n/a	76314.375	largeHSmallH	correct	congruent	0.37451	no	H	H
298.4775391	n/a	76410.25	responseLargeH	correct	n/a	0.37451	no	n/a	n/a
299.5429688	n/a	76683	largeHSmallT	correct	incongruent	0.49023	no	H	T
300.0332031	n/a	76808.5	responseLargeH	correct	n/a	0.49023	no	n/a	n/a
301.1025391	n/a	77082.25	largeTSmallT	correct	congruent	0.39795	no	T	T
301.5004883	n/a	77184.125	responseLargeT	correct	n/a	0.39795	no	n/a	n/a
302.5693359	n/a	77457.75	largeHSmallH	correct	congruent	0.38428	no	H	H
302.9536133	n/a	77556.125	responseLargeH	correct	n/a	0.38428	no	n/a	n/a
304.0224609	n/a	77829.75	largeTSmallT	correct	congruent	0.36182	no	T	T
304.3842773	n/a	77922.375	responseLargeT	correct	n/a	0.36182	no	n/a	n/a
305.4492188	n/a	78195	largeTSmallH	correct	incongruent	0.48242	no	T	H
305.9316406	n/a	78318.5	responseLargeT	correct	n/a	0.48242	no	n/a	n/a
306.9960938	n/a	78591	largeHSmallH	error	congruent	0.40479	no	H	H
307.4008789	n/a	78694.625	responseLargeT	error	n/a	0.40479	no	n/a	n/a
308.4624023	n/a	78966.375	largeHSmallH	correct	congruent	0.46289	no	H	H
308.925293	n/a	79084.875	responseLargeH	correct	n/a	0.46289	no	n/a	n/a
309.9960938	n/a	79359	largeTSmallT	error	congruent	0.4707	no	T	T
310.4667969	n/a	79479.5	responseLargeH	error	n/a	0.4707	no	n/a	n/a
311.5424805	n/a	79754.875	largeTSmallH	correct	incongruent	0.45752	no	T	H
312	n/a	79872	responseLargeT	correct	n/a	0.45752	no	n/a	n/a
313.0756836	n/a	80147.375	largeHSmallT	correct	incongruent	0.39404	no	H	T
313.4697266	n/a	80248.25	responseLargeH	correct	n/a	0.39404	no	n/a	n/a
314.5292969	n/a	80519.5	largeTSmallH	correct	incongruent	0.55029	no	T	H
315.0795898	n/a	80660.375	responseLargeT	correct	n/a	0.55029	no	n/a	n/a
316.1557617	n/a	80935.875	largeTSmallH	correct	incongruent	0.44434	no	T	H
316.6000977	n/a	81049.625	responseLargeT	correct	n/a	0.44434	no	n/a	n/a
317.6757812	n/a	81325	largeTSmallH	correct	incongruent	0.45068	no	T	H
318.1264648	n/a	81440.375	responseLargeT	correct	n/a	0.45068	no	n/a	n/a
319.1958008	n/a	81714.125	largeHSmallT	correct	incongruent	0.44287	no	H	T
319.6386719	n/a	81827.5	responseLargeH	correct	n/a	0.44287	no	n/a	n/a
320.715332	n/a	82103.125	largeTSmallH	correct	incongruent	0.40674	no	T	H
321.1220703	n/a	82207.25	responseLargeT	correct	n/a	0.40674	no	n/a	n/a
322.1958008	n/a	82482.125	largeTSmallT	correct	congruent	0.43457	no	T	T
322.6303711	n/a	82593.375	responseLargeT	correct	n/a	0.43457	no	n/a	n/a
323.7021484	n/a	82867.75	largeHSmallH	error	congruent	0.39014	no	H	H
324.0922852	n/a	82967.625	responseLargeT	error	n/a	0.39014	no	n/a	n/a
325.1552734	n/a	83239.75	largeTSmallH	correct	incongruent	0.47461	no	T	H
325.6298828	n/a	83361.25	responseLargeT	correct	n/a	0.47461	no	n/a	n/a
326.7021484	n/a	83635.75	largeTSmallT	correct	congruent	0.44775	no	T	T
327.1499023	n/a	83750.375	responseLargeT	correct	n/a	0.44775	no	n/a	n/a
328.222168	n/a	84024.875	largeTSmallH	correct	incongruent	0.46631	no	T	H
328.6884766	n/a	84144.25	responseLargeT	correct	n/a	0.46631	no	n/a	n/a
329.7553711	n/a	84417.375	largeHSmallT	correct	incongruent	0.39795	no	H	T
330.1533203	n/a	84519.25	responseLargeH	correct	n/a	0.39795	no	n/a	n/a
335.7685547	n/a	85956.75	largeHSmallT	correct	incongruent	0.53906	no	H	T
336.3076172	n/a	86094.75	responseSmallT	correct	n/a	0.53906	no	n/a	n/a
337.3681641	n/a	86366.25	largeTSmallT	correct	congruent	0.43066	no	T	T
337.7988281	n/a	86476.5	responseSmallT	correct	n/a	0.43066	no	n/a	n/a
338.875	n/a	86752	largeHSmallH	correct	congruent	0.40869	no	H	H
339.2836914	n/a	86856.625	responseSmallH	correct	n/a	0.40869	no	n/a	n/a
340.3549805	n/a	87130.875	largeTSmallH	correct	incongruent	0.46191	no	T	H
340.8168945	n/a	87249.125	responseSmallH	correct	n/a	0.46191	no	n/a	n/a
341.8886719	n/a	87523.5	largeTSmallT	correct	congruent	0.41309	no	T	T
342.3017578	n/a	87629.25	responseSmallT	correct	n/a	0.41309	no	n/a	n/a
343.3818359	n/a	87905.75	largeTSmallH	correct	incongruent	0.55371	no	T	H
343.9355469	n/a	88047.5	responseSmallH	correct	n/a	0.55371	no	n/a	n/a
345.0083008	n/a	88322.125	largeHSmallH	correct	congruent	0.45264	no	H	H
345.4609375	n/a	88438	responseSmallH	correct	n/a	0.45264	no	n/a	n/a
346.5283203	n/a	88711.25	largeTSmallH	correct	incongruent	0.44824	no	T	H
346.9765625	n/a	88826	responseSmallH	correct	n/a	0.44824	no	n/a	n/a
348.0483398	n/a	89100.375	largeTSmallH	correct	incongruent	0.41602	no	T	H
348.4643555	n/a	89206.875	responseSmallH	correct	n/a	0.41602	no	n/a	n/a
349.6206055	n/a	89502.875	largeHSmallT	correct	incongruent	0.46729	no	H	T
350.0878906	n/a	89622.5	responseSmallT	correct	n/a	0.46729	no	n/a	n/a
351.1679688	n/a	89899	largeHSmallT	correct	incongruent	0.52148	no	H	T
351.6894531	n/a	90032.5	responseSmallT	correct	n/a	0.52148	no	n/a	n/a
352.7548828	n/a	90305.25	largeTSmallT	correct	congruent	0.54492	no	T	T
353.2998047	n/a	90444.75	responseSmallT	correct	n/a	0.54492	no	n/a	n/a
354.3813477	n/a	90721.625	largeTSmallT	correct	congruent	0.49805	no	T	T
354.8793945	n/a	90849.125	responseSmallT	correct	n/a	0.49805	no	n/a	n/a
355.9545898	n/a	91124.375	largeTSmallT	correct	congruent	0.47266	no	T	T
356.4272461	n/a	91245.375	responseSmallT	correct	n/a	0.47266	no	n/a	n/a
357.5009766	n/a	91520.25	largeHSmallT	correct	incongruent	0.4375	no	H	T
357.9384766	n/a	91632.25	responseSmallT	correct	n/a	0.4375	no	n/a	n/a
359.0078125	n/a	91906	largeHSmallT	correct	incongruent	0.45947	no	H	T
359.4672852	n/a	92023.625	responseSmallT	correct	n/a	0.45947	no	n/a	n/a
360.5410156	n/a	92298.5	largeHSmallT	correct	incongruent	0.39746	no	H	T
360.9384766	n/a	92400.25	responseSmallT	correct	n/a	0.39746	no	n/a	n/a
362.0078125	n/a	92674	largeHSmallH	correct	congruent	0.4624	no	H	H
362.4702148	n/a	92792.375	responseSmallH	correct	n/a	0.4624	no	n/a	n/a
363.527832	n/a	93063.125	largeHSmallT	correct	incongruent	0.47607	no	H	T
364.0039062	n/a	93185	responseSmallT	correct	n/a	0.47607	no	n/a	n/a
365.074707	n/a	93459.125	largeHSmallT	correct	incongruent	0.42578	no	H	T
365.5004883	n/a	93568.125	responseSmallT	correct	n/a	0.42578	no	n/a	n/a
366.5810547	n/a	93844.75	largeTSmallT	correct	congruent	0.47607	no	T	T
367.0571289	n/a	93966.625	responseSmallT	correct	n/a	0.47607	no	n/a	n/a
368.1274414	n/a	94240.625	largeTSmallT	correct	congruent	0.43018	no	T	T
368.5576172	n/a	94350.75	responseSmallT	correct	n/a	0.43018	no	n/a	n/a
369.6342773	n/a	94626.375	largeTSmallT	correct	congruent	0.3667	no	T	T
370.0009766	n/a	94720.25	responseSmallT	correct	n/a	0.3667	no	n/a	n/a
371.0742188	n/a	94995	largeTSmallH	correct	incongruent	0.58301	no	T	H
371.6572266	n/a	95144.25	responseSmallH	correct	n/a	0.58301	no	n/a	n/a
372.7275391	n/a	95418.25	largeHSmallH	correct	congruent	0.4917	no	H	H
373.2192383	n/a	95544.125	responseSmallH	correct	n/a	0.4917	no	n/a	n/a
374.2875977	n/a	95817.625	largeTSmallH	correct	incongruent	0.49463	no	T	H
374.7822266	n/a	95944.25	responseSmallH	correct	n/a	0.49463	no	n/a	n/a
375.8608398	n/a	96220.375	largeHSmallH	correct	congruent	0.45605	no	H	H
376.3168945	n/a	96337.125	responseSmallH	correct	n/a	0.45605	no	n/a	n/a
377.394043	n/a	96612.875	largeTSmallT	correct	congruent	0.49072	no	T	T
377.8847656	n/a	96738.5	responseSmallT	correct	n/a	0.49072	no	n/a	n/a
378.9667969	n/a	97015.5	largeHSmallT	correct	incongruent	0.48682	no	H	T
379.4536133	n/a	97140.125	responseSmallT	correct	n/a	0.48682	no	n/a	n/a
380.5273438	n/a	97415	largeTSmallT	correct	congruent	0.47656	no	T	T
381.0039062	n/a	97537	responseSmallT	correct	n/a	0.47656	no	n/a	n/a
382.0605469	n/a	97807.5	largeHSmallH	correct	congruent	0.47998	no	H	H
382.5405273	n/a	97930.375	responseSmallH	correct	n/a	0.47998	no	n/a	n/a
383.6074219	n/a	98203.5	largeTSmallH	correct	incongruent	0.42676	no	T	H
384.0341797	n/a	98312.75	responseSmallH	correct	n/a	0.42676	no	n/a	n/a
385.1137695	n/a	98589.125	largeHSmallT	correct	incongruent	0.39746	no	H	T
385.5112305	n/a	98690.875	responseSmallT	correct	n/a	0.39746	no	n/a	n/a
386.5805664	n/a	98964.625	largeTSmallH	correct	incongruent	0.45703	no	T	H
387.0375977	n/a	99081.625	responseSmallH	correct	n/a	0.45703	no	n/a	n/a
388.1005859	n/a	99353.75	largeTSmallT	correct	congruent	0.47949	no	T	T
388.5800781	n/a	99476.5	responseSmallT	correct	n/a	0.47949	no	n/a	n/a
389.6469727	n/a	99749.625	largeTSmallH	correct	incongruent	0.4502	no	T	H
390.097168	n/a	99864.875	responseSmallH	correct	n/a	0.4502	no	n/a	n/a
391.1674805	n/a	100138.875	largeTSmallT	correct	congruent	0.42773	no	T	T
391.5952148	n/a	100248.375	responseSmallT	correct	n/a	0.42773	no	n/a	n/a
392.6606445	n/a	100521.125	largeHSmallT	correct	incongruent	0.50439	no	H	T
393.1650391	n/a	100650.25	responseSmallT	correct	n/a	0.50439	no	n/a	n/a
394.2338867	n/a	100923.875	largeTSmallT	correct	congruent	0.48389	no	T	T
394.7177734	n/a	101047.75	responseSmallT	correct	n/a	0.48389	no	n/a	n/a
395.793457	n/a	101323.125	largeHSmallT	correct	incongruent	0.46973	no	H	T
396.2631836	n/a	101443.375	responseSmallT	correct	n/a	0.46973	no	n/a	n/a
397.340332	n/a	101719.125	largeHSmallH	correct	congruent	0.44336	no	H	H
397.7836914	n/a	101832.625	responseSmallH	correct	n/a	0.44336	no	n/a	n/a
398.8603516	n/a	102108.25	largeTSmallT	correct	congruent	0.40625	no	T	T
399.2666016	n/a	102212.25	responseSmallT	correct	n/a	0.40625	no	n/a	n/a
400.340332	n/a	102487.125	largeTSmallT	correct	congruent	0.55371	no	T	T
400.894043	n/a	102628.875	responseSmallT	correct	n/a	0.55371	no	n/a	n/a
401.9536133	n/a	102900.125	largeHSmallH	correct	congruent	0.46826	no	H	H
402.421875	n/a	103020	responseSmallH	correct	n/a	0.46826	no	n/a	n/a
403.4868164	n/a	103292.625	largeTSmallT	correct	congruent	0.38135	no	T	T
403.8681641	n/a	103390.25	responseSmallT	correct	n/a	0.38135	no	n/a	n/a
404.9399414	n/a	103664.625	largeTSmallT	correct	congruent	0.43896	no	T	T
405.3789062	n/a	103777	responseSmallT	correct	n/a	0.43896	no	n/a	n/a
406.4467773	n/a	104050.375	largeHSmallT	correct	incongruent	0.46045	no	H	T
406.9072266	n/a	104168.25	responseSmallT	correct	n/a	0.46045	no	n/a	n/a
407.9799805	n/a	104442.875	largeTSmallH	correct	incongruent	0.58252	no	T	H
408.5625	n/a	104592	responseSmallH	correct	n/a	0.58252	no	n/a	n/a
409.6333008	n/a	104866.125	largeHSmallH	correct	congruent	0.50732	no	H	H
410.140625	n/a	104996	responseSmallH	correct	n/a	0.50732	no	n/a	n/a
411.206543	n/a	105268.875	largeTSmallH	correct	incongruent	0.48877	no	T	H
411.6953125	n/a	105394	responseSmallH	correct	n/a	0.48877	no	n/a	n/a
412.7666016	n/a	105668.25	largeHSmallH	correct	congruent	0.48975	no	H	H
413.2563477	n/a	105793.625	responseSmallH	correct	n/a	0.48975	no	n/a	n/a
414.3261719	n/a	106067.5	largeTSmallT	correct	congruent	0.4165	no	T	T
414.7426758	n/a	106174.125	responseSmallT	correct	n/a	0.4165	no	n/a	n/a
415.8066406	n/a	106446.5	largeHSmallH	correct	congruent	0.46729	no	H	H
416.2739258	n/a	106566.125	responseSmallH	correct	n/a	0.46729	no	n/a	n/a
417.3398438	n/a	106839	largeTSmallT	correct	congruent	0.36963	no	T	T
417.7094727	n/a	106933.625	responseSmallT	correct	n/a	0.36963	no	n/a	n/a
418.7797852	n/a	107207.625	largeTSmallT	correct	congruent	0.48486	no	T	T
419.2646484	n/a	107331.75	responseSmallT	correct	n/a	0.48486	no	n/a	n/a
420.3398438	n/a	107607	largeTSmallT	correct	congruent	0.47754	no	T	T
420.8173828	n/a	107729.25	responseSmallT	correct	n/a	0.47754	no	n/a	n/a
421.8994141	n/a	108006.25	largeTSmallH	correct	incongruent	0.48047	no	T	H
422.3798828	n/a	108129.25	responseSmallH	correct	n/a	0.48047	no	n/a	n/a
423.4594727	n/a	108405.625	largeHSmallT	correct	incongruent	0.46436	no	H	T
423.9238281	n/a	108524.5	responseSmallT	correct	n/a	0.46436	no	n/a	n/a
425.0063477	n/a	108801.625	largeTSmallT	correct	congruent	0.48682	no	T	T
425.4931641	n/a	108926.25	responseSmallT	correct	n/a	0.48682	no	n/a	n/a
426.5527344	n/a	109197.5	largeHSmallH	correct	congruent	0.41895	no	H	H
426.9716797	n/a	109304.75	responseSmallH	correct	n/a	0.41895	no	n/a	n/a
428.0458984	n/a	109579.75	largeHSmallT	correct	incongruent	0.37939	no	H	T
428.425293	n/a	109676.875	responseSmallT	correct	n/a	0.37939	no	n/a	n/a
429.4858398	n/a	109948.375	largeTSmallH	correct	incongruent	0.43848	no	T	H
429.9243164	n/a	110060.625	responseSmallH	correct	n/a	0.43848	no	n/a	n/a
430.9926758	n/a	110334.125	largeTSmallH	error	incongruent	0.36768	no	T	H
431.3603516	n/a	110428.25	responseSmallT	error	n/a	0.36768	no	n/a	n/a
432.4194336	n/a	110699.375	largeHSmallT	correct	incongruent	0.44043	no	H	T
432.8598633	n/a	110812.125	responseSmallT	correct	n/a	0.44043	no	n/a	n/a
433.9394531	n/a	111088.5	largeTSmallH	error	incongruent	0.53223	no	T	H
434.4716797	n/a	111224.75	responseSmallT	error	n/a	0.53223	no	n/a	n/a
435.5390625	n/a	111498	largeHSmallH	correct	congruent	0.46484	no	H	H
436.0039062	n/a	111617	responseSmallH	correct	n/a	0.46484	no	n/a	n/a
437.0727539	n/a	111890.625	largeHSmallT	correct	incongruent	0.47705	no	H	T
437.5498047	n/a	112012.75	responseSmallT	correct	n/a	0.47705	no	n/a	n/a
438.6191406	n/a	112286.5	largeTSmallT	correct	congruent	0.5127	no	T	T
439.1318359	n/a	112417.75	responseSmallT	correct	n/a	0.5127	no	n/a	n/a
440.2055664	n/a	112692.625	largeHSmallT	correct	incongruent	0.57422	no	H	T
440.7797852	n/a	112839.625	responseSmallT	correct	n/a	0.57422	no	n/a	n/a
441.9370117	n/a	113135.875	largeHSmallH	correct	congruent	0.54199	no	H	H
442.4790039	n/a	113274.625	responseSmallH	correct	n/a	0.54199	no	n/a	n/a
443.5522461	n/a	113549.375	largeTSmallH	correct	incongruent	0.52637	no	T	H
444.0786133	n/a	113684.125	responseSmallH	correct	n/a	0.52637	no	n/a	n/a
445.1655273	n/a	113962.375	largeHSmallT	correct	incongruent	0.44629	no	H	T
445.6118164	n/a	114076.625	responseSmallT	correct	n/a	0.44629	no	n/a	n/a
446.6855469	n/a	114351.5	largeHSmallH	correct	congruent	0.43359	no	H	H
447.1191406	n/a	114462.5	responseSmallH	correct	n/a	0.43359	no	n/a	n/a
448.1923828	n/a	114737.25	largeHSmallH	correct	congruent	0.4458	no	H	H
448.6381836	n/a	114851.375	responseSmallH	correct	n/a	0.4458	no	n/a	n/a
449.7119141	n/a	115126.25	largeHSmallH	correct	congruent	0.46338	no	H	H
450.175293	n/a	115244.875	responseSmallH	correct	n/a	0.46338	no	n/a	n/a
451.2587891	n/a	115522.25	largeHSmallH	correct	congruent	0.37793	no	H	H
451.6367188	n/a	115619	responseSmallH	correct	n/a	0.37793	no	n/a	n/a
452.6987305	n/a	115890.875	largeHSmallT	correct	incongruent	0.85791	no	H	T
453.5566406	n/a	116110.5	responseSmallT	correct	n/a	0.85791	no	n/a	n/a
454.6186523	n/a	116382.375	largeTSmallT	correct	congruent	0.47314	no	T	T
455.0917969	n/a	116503.5	responseSmallT	correct	n/a	0.47314	no	n/a	n/a
456.1655273	n/a	116778.375	largeTSmallT	correct	congruent	0.47559	no	T	T
456.6411133	n/a	116900.125	responseSmallT	correct	n/a	0.47559	no	n/a	n/a
457.7119141	n/a	117174.25	largeHSmallH	correct	congruent	0.42725	no	H	H
458.1391602	n/a	117283.625	responseSmallH	correct	n/a	0.42725	no	n/a	n/a
459.2055664	n/a	117556.625	largeHSmallH	correct	congruent	0.42041	no	H	H
459.6259766	n/a	117664.25	responseSmallH	correct	n/a	0.42041	no	n/a	n/a
460.6850586	n/a	117935.375	largeTSmallH	correct	incongruent	0.46191	no	T	H
461.1469727	n/a	118053.625	responseSmallH	correct	n/a	0.46191	no	n/a	n/a
462.21875	n/a	118328	largeTSmallT	correct	congruent	0.45605	no	T	T
462.6748047	n/a	118444.75	responseSmallT	correct	n/a	0.45605	no	n/a	n/a
463.7519531	n/a	118720.5	largeHSmallT	error	incongruent	0.35156	no	H	T
464.1035156	n/a	118810.5	responseSmallH	error	n/a	0.35156	no	n/a	n/a
465.1650391	n/a	119082.25	largeTSmallT	correct	congruent	0.4375	no	T	T
465.6025391	n/a	119194.25	responseSmallT	correct	n/a	0.4375	no	n/a	n/a
466.671875	n/a	119468	largeHSmallT	correct	incongruent	0.46191	no	H	T
467.1337891	n/a	119586.25	responseSmallT	correct	n/a	0.46191	no	n/a	n/a
468.2050781	n/a	119860.5	largeTSmallH	correct	incongruent	0.46777	no	T	H
468.6728516	n/a	119980.25	responseSmallH	correct	n/a	0.46777	no	n/a	n/a
469.7382812	n/a	120253	largeHSmallT	correct	incongruent	0.46729	no	H	T
470.2055664	n/a	120372.625	responseSmallT	correct	n/a	0.46729	no	n/a	n/a
471.2851562	n/a	120649	largeHSmallT	error	incongruent	0.43652	no	H	T
471.7216797	n/a	120760.75	responseSmallH	error	n/a	0.43652	no	n/a	n/a
472.7915039	n/a	121034.625	largeHSmallT	correct	incongruent	0.5	no	H	T
473.2915039	n/a	121162.625	responseSmallT	correct	n/a	0.5	no	n/a	n/a
474.3515625	n/a	121434	largeHSmallT	correct	incongruent	0.45312	no	H	T
474.8046875	n/a	121550	responseSmallT	correct	n/a	0.45312	no	n/a	n/a
475.871582	n/a	121823.125	largeTSmallH	correct	incongruent	0.49023	no	T	H
476.3618164	n/a	121948.625	responseSmallH	correct	n/a	0.49023	no	n/a	n/a
477.4316406	n/a	122222.5	largeTSmallH	correct	incongruent	0.49219	no	T	H
477.9238281	n/a	122348.5	responseSmallH	correct	n/a	0.49219	no	n/a	n/a
478.9912109	n/a	122621.75	largeTSmallH	error	incongruent	0.37793	no	T	H
479.3691406	n/a	122718.5	responseSmallT	error	n/a	0.37793	no	n/a	n/a
480.4448242	n/a	122993.875	largeTSmallT	correct	congruent	0.50684	no	T	T
480.9516602	n/a	123123.625	responseSmallT	correct	n/a	0.50684	no	n/a	n/a
482.0180664	n/a	123396.625	largeHSmallH	correct	congruent	0.46289	no	H	H
482.480957	n/a	123515.125	responseSmallH	correct	n/a	0.46289	no	n/a	n/a
483.5512695	n/a	123789.125	largeHSmallT	correct	incongruent	0.4917	no	H	T
484.0429688	n/a	123915	responseSmallT	correct	n/a	0.4917	no	n/a	n/a
485.125	n/a	124192	largeHSmallH	correct	congruent	0.46631	no	H	H
485.5913086	n/a	124311.375	responseSmallH	correct	n/a	0.46631	no	n/a	n/a
486.6713867	n/a	124587.875	largeTSmallT	correct	congruent	0.53711	no	T	T
487.2084961	n/a	124725.375	responseSmallT	correct	n/a	0.53711	no	n/a	n/a
488.2714844	n/a	124997.5	largeHSmallH	correct	congruent	0.42529	no	H	H
488.6967773	n/a	125106.375	responseSmallH	correct	n/a	0.42529	no	n/a	n/a
489.7646484	n/a	125379.75	largeTSmallH	correct	incongruent	0.62305	no	T	H
490.3876953	n/a	125539.25	responseSmallH	correct	n/a	0.62305	no	n/a	n/a
491.4580078	n/a	125813.25	largeHSmallT	correct	incongruent	0.49658	no	H	T
491.9545898	n/a	125940.375	responseSmallT	correct	n/a	0.49658	no	n/a	n/a
493.03125	n/a	126216	largeHSmallH	correct	congruent	0.43115	no	H	H
493.4624023	n/a	126326.375	responseSmallH	correct	n/a	0.43115	no	n/a	n/a
494.5244141	n/a	126598.25	largeTSmallH	error	incongruent	0.36523	no	T	H
494.8896484	n/a	126691.75	responseSmallT	error	n/a	0.36523	no	n/a	n/a
495.9638672	n/a	126966.75	largeHSmallT	correct	incongruent	0.77441	no	H	T
496.7382812	n/a	127165	responseSmallT	correct	n/a	0.77441	no	n/a	n/a
497.8041992	n/a	127437.875	largeHSmallT	correct	incongruent	0.66992	no	H	T
498.4741211	n/a	127609.375	responseSmallT	correct	n/a	0.66992	no	n/a	n/a
499.5507812	n/a	127885	largeHSmallT	correct	incongruent	0.48145	no	H	T
500.0322266	n/a	128008.25	responseSmallT	correct	n/a	0.48145	no	n/a	n/a
501.0976562	n/a	128281	largeHSmallT	correct	incongruent	0.46533	no	H	T
501.5629883	n/a	128400.125	responseSmallT	correct	n/a	0.46533	no	n/a	n/a
502.644043	n/a	128676.875	largeHSmallH	correct	congruent	0.42871	no	H	H
503.0727539	n/a	128786.625	responseSmallH	correct	n/a	0.42871	no	n/a	n/a
504.1376953	n/a	129059.25	largeHSmallH	correct	congruent	0.51221	no	H	H
504.6499023	n/a	129190.375	responseSmallH	correct	n/a	0.51221	no	n/a	n/a
505.7109375	n/a	129462	largeTSmallT	correct	congruent	0.49609	no	T	T
506.2070312	n/a	129589	responseSmallT	correct	n/a	0.49609	no	n/a	n/a
507.2705078	n/a	129861.25	largeHSmallH	correct	congruent	0.50098	no	H	H
507.7714844	n/a	129989.5	responseSmallH	correct	n/a	0.50098	no	n/a	n/a
508.9375	n/a	130288	largeTSmallH	correct	incongruent	0.46387	no	T	H
509.4013672	n/a	130406.75	responseSmallH	correct	n/a	0.46387	no	n/a	n/a
510.4707031	n/a	130680.5	largeHSmallT	correct	incongruent	0.47266	no	H	T
510.9433594	n/a	130801.5	responseSmallT	correct	n/a	0.47266	no	n/a	n/a
512.0175781	n/a	131076.5	largeHSmallH	correct	congruent	0.46777	no	H	H
512.4853516	n/a	131196.25	responseSmallH	correct	n/a	0.46777	no	n/a	n/a
513.5639648	n/a	131472.375	largeTSmallH	correct	incongruent	0.45459	no	T	H
514.0185547	n/a	131588.75	responseSmallH	correct	n/a	0.45459	no	n/a	n/a
515.0844727	n/a	131861.625	largeTSmallT	correct	congruent	0.49365	no	T	T
515.578125	n/a	131988	responseSmallT	correct	n/a	0.49365	no	n/a	n/a
516.644043	n/a	132260.875	largeTSmallH	correct	incongruent	0.48584	no	T	H
517.1298828	n/a	132385.25	responseSmallH	correct	n/a	0.48584	no	n/a	n/a
518.1904297	n/a	132656.75	largeTSmallH	correct	incongruent	0.46777	no	T	H
518.6582031	n/a	132776.5	responseSmallH	correct	n/a	0.46777	no	n/a	n/a
519.7236328	n/a	133049.25	largeTSmallT	correct	congruent	0.52441	no	T	T
520.2480469	n/a	133183.5	responseSmallT	correct	n/a	0.52441	no	n/a	n/a
521.3105469	n/a	133455.5	largeTSmallH	correct	incongruent	0.4834	no	T	H
521.7939453	n/a	133579.25	responseSmallH	correct	n/a	0.4834	no	n/a	n/a
522.8569336	n/a	133851.375	largeHSmallT	correct	incongruent	0.47705	no	H	T
523.3339844	n/a	133973.5	responseSmallT	correct	n/a	0.47705	no	n/a	n/a
524.4038086	n/a	134247.375	largeTSmallH	correct	incongruent	0.4917	no	T	H
524.8955078	n/a	134373.25	responseSmallH	correct	n/a	0.4917	no	n/a	n/a
525.9628906	n/a	134646.5	largeHSmallT	correct	incongruent	0.49951	no	H	T
526.4624023	n/a	134774.375	responseSmallT	correct	n/a	0.49951	no	n/a	n/a
527.5366211	n/a	135049.375	largeHSmallT	correct	incongruent	0.4043	no	H	T
527.940918	n/a	135152.875	responseSmallT	correct	n/a	0.4043	no	n/a	n/a
529.003418	n/a	135424.875	largeTSmallT	correct	congruent	0.44287	no	T	T
529.4462891	n/a	135538.25	responseSmallT	correct	n/a	0.44287	no	n/a	n/a
530.5234375	n/a	135814	largeTSmallT	correct	congruent	0.40088	no	T	T
530.9243164	n/a	135916.625	responseSmallT	correct	n/a	0.40088	no	n/a	n/a
532.003418	n/a	136192.875	largeHSmallH	correct	congruent	0.69336	no	H	H
532.6967773	n/a	136370.375	responseSmallH	correct	n/a	0.69336	no	n/a	n/a
533.7636719	n/a	136643.5	largeTSmallT	correct	congruent	0.44092	no	T	T
534.2045898	n/a	136756.375	responseSmallT	correct	n/a	0.44092	no	n/a	n/a
535.2700195	n/a	137029.125	largeHSmallH	correct	congruent	0.51709	no	H	H
535.7871094	n/a	137161.5	responseSmallH	correct	n/a	0.51709	no	n/a	n/a
536.8569336	n/a	137435.375	largeHSmallH	correct	congruent	0.53955	no	H	H
537.3964844	n/a	137573.5	responseSmallH	correct	n/a	0.53955	no	n/a	n/a
538.4702148	n/a	137848.375	largeTSmallH	correct	incongruent	0.47656	no	T	H
538.9467773	n/a	137970.375	responseSmallH	correct	n/a	0.47656	no	n/a	n/a
540.0166016	n/a	138244.25	largeHSmallH	correct	congruent	0.4541	no	H	H
540.4707031	n/a	138360.5	responseSmallH	correct	n/a	0.4541	no	n/a	n/a
541.5498047	n/a	138636.75	largeHSmallT	correct	incongruent	0.69775	no	H	T
542.2475586	n/a	138815.375	responseSmallT	correct	n/a	0.69775	no	n/a	n/a
543.3232422	n/a	139090.75	largeHSmallH	correct	congruent	0.37695	no	H	H
543.7001953	n/a	139187.25	responseSmallH	correct	n/a	0.37695	no	n/a	n/a
544.7763672	n/a	139462.75	largeHSmallH	correct	congruent	0.50684	no	H	H
545.2832031	n/a	139592.5	responseSmallH	correct	n/a	0.50684	no	n/a	n/a
546.3496094	n/a	139865.5	largeHSmallT	correct	incongruent	0.46973	no	H	T
546.8193359	n/a	139985.75	responseSmallT	correct	n/a	0.46973	no	n/a	n/a
547.8964844	n/a	140261.5	largeTSmallH	correct	incongruent	0.40381	no	T	H
548.300293	n/a	140364.875	responseSmallH	correct	n/a	0.40381	no	n/a	n/a
549.3764648	n/a	140640.375	largeTSmallH	error	incongruent	0.54297	no	T	H
549.9194336	n/a	140779.375	responseSmallT	error	n/a	0.54297	no	n/a	n/a
550.9897461	n/a	141053.375	largeHSmallT	correct	incongruent	0.52881	no	H	T
551.5185547	n/a	141188.75	responseSmallT	correct	n/a	0.52881	no	n/a	n/a
552.5898438	n/a	141463	largeTSmallH	correct	incongruent	0.4502	no	T	H
553.0400391	n/a	141578.25	responseSmallH	correct	n/a	0.4502	no	n/a	n/a
554.109375	n/a	141852	largeHSmallT	correct	incongruent	0.44482	no	H	T
554.5541992	n/a	141965.875	responseSmallT	correct	n/a	0.44482	no	n/a	n/a
555.6162109	n/a	142237.75	largeTSmallH	correct	incongruent	0.49609	no	T	H
556.1123047	n/a	142364.75	responseSmallH	correct	n/a	0.49609	no	n/a	n/a
557.1762695	n/a	142637.125	largeHSmallH	correct	congruent	0.47363	no	H	H
557.6499023	n/a	142758.375	responseSmallH	correct	n/a	0.47363	no	n/a	n/a
558.7226562	n/a	143033	largeHSmallH	correct	congruent	0.46826	no	H	H
559.190918	n/a	143152.875	responseSmallH	correct	n/a	0.46826	no	n/a	n/a
560.2695312	n/a	143429	largeHSmallH	correct	congruent	0.42627	no	H	H
560.6958008	n/a	143538.125	responseSmallH	correct	n/a	0.42627	no	n/a	n/a
561.7626953	n/a	143811.25	largeTSmallT	correct	congruent	0.56201	no	T	T
562.324707	n/a	143955.125	responseSmallT	correct	n/a	0.56201	no	n/a	n/a
563.402832	n/a	144231.125	largeTSmallH	correct	incongruent	0.45654	no	T	H
563.859375	n/a	144348	responseSmallH	correct	n/a	0.45654	no	n/a	n/a
564.9360352	n/a	144623.625	largeTSmallT	error	congruent	0.4668	no	T	T
565.402832	n/a	144743.125	responseSmallH	error	n/a	0.4668	no	n/a	n/a
566.4697266	n/a	145016.25	largeHSmallH	correct	congruent	0.36621	no	H	H
566.8359375	n/a	145110	responseSmallH	correct	n/a	0.36621	no	n/a	n/a
567.9375	n/a	145392	largeTSmallT	correct	congruent	0.37012	no	T	T
568.3076172	n/a	145486.75	responseSmallT	correct	n/a	0.37012	no	n/a	n/a
569.3759766	n/a	145760.25	largeTSmallH	correct	incongruent	0.42285	no	T	H
569.7988281	n/a	145868.5	responseSmallH	correct	n/a	0.42285	no	n/a	n/a
570.8691406	n/a	146142.5	largeTSmallT	correct	congruent	0.41357	no	T	T
571.2827148	n/a	146248.375	responseSmallT	correct	n/a	0.41357	no	n/a	n/a
572.3623047	n/a	146524.75	largeHSmallH	correct	congruent	0.40723	no	H	H
572.7695312	n/a	146629	responseSmallH	correct	n/a	0.40723	no	n/a	n/a
573.8422852	n/a	146903.625	largeTSmallH	correct	incongruent	0.63721	no	T	H
574.4794922	n/a	147066.75	responseSmallH	correct	n/a	0.63721	no	n/a	n/a
575.5493164	n/a	147340.625	largeTSmallH	correct	incongruent	0.44971	no	T	H
575.9990234	n/a	147455.75	responseSmallH	correct	n/a	0.44971	no	n/a	n/a
577.0688477	n/a	147729.625	largeHSmallH	correct	congruent	0.43848	no	H	H
577.5073242	n/a	147841.875	responseSmallH	correct	n/a	0.43848	no	n/a	n/a
578.5756836	n/a	148115.375	largeTSmallH	correct	incongruent	0.43457	no	T	H
579.0102539	n/a	148226.625	responseSmallH	correct	n/a	0.43457	no	n/a	n/a
580.0825195	n/a	148501.125	largeHSmallH	correct	congruent	0.46338	no	H	H
580.5458984	n/a	148619.75	responseSmallH	correct	n/a	0.46338	no	n/a	n/a
581.6289062	n/a	148897	largeTSmallT	correct	congruent	0.50098	no	T	T
582.1298828	n/a	149025.25	responseSmallT	correct	n/a	0.50098	no	n/a	n/a
583.2021484	n/a	149299.75	largeHSmallH	correct	congruent	0.45605	no	H	H
583.6582031	n/a	149416.5	responseSmallH	correct	n/a	0.45605	no	n/a	n/a
584.722168	n/a	149688.875	largeHSmallH	correct	congruent	0.43994	no	H	H
585.1621094	n/a	149801.5	responseSmallH	correct	n/a	0.43994	no	n/a	n/a
586.2285156	n/a	150074.5	largeHSmallH	correct	congruent	0.45361	no	H	H
586.6821289	n/a	150190.625	responseSmallH	correct	n/a	0.45361	no	n/a	n/a
587.7485352	n/a	150463.625	largeHSmallT	correct	incongruent	0.50439	no	H	T
588.2529297	n/a	150592.75	responseSmallT	correct	n/a	0.50439	no	n/a	n/a
589.3354492	n/a	150869.875	largeTSmallH	correct	incongruent	0.41602	no	T	H
589.7514648	n/a	150976.375	responseSmallH	correct	n/a	0.41602	no	n/a	n/a
590.8286133	n/a	151252.125	largeTSmallH	correct	incongruent	0.41016	no	T	H
591.2387695	n/a	151357.125	responseSmallH	correct	n/a	0.41016	no	n/a	n/a
592.3085938	n/a	151631	largeHSmallT	correct	incongruent	0.49707	no	H	T
592.8056641	n/a	151758.25	responseSmallT	correct	n/a	0.49707	no	n/a	n/a
593.8686523	n/a	152030.375	largeTSmallT	correct	congruent	0.57471	no	T	T
594.4433594	n/a	152177.5	responseSmallT	correct	n/a	0.57471	no	n/a	n/a
595.5087891	n/a	152450.25	largeTSmallH	correct	incongruent	0.4707	no	T	H
595.9794922	n/a	152570.75	responseSmallH	correct	n/a	0.4707	no	n/a	n/a
597.0551758	n/a	152846.125	largeHSmallT	correct	incongruent	0.48828	no	H	T
597.543457	n/a	152971.125	responseSmallT	correct	n/a	0.48828	no	n/a	n/a
598.6152344	n/a	153245.5	largeHSmallT	correct	incongruent	0.58984	no	H	T
599.2050781	n/a	153396.5	responseSmallT	correct	n/a	0.58984	no	n/a	n/a
600.2817383	n/a	153672.125	largeTSmallT	correct	congruent	0.6333	no	T	T
600.9150391	n/a	153834.25	responseSmallT	correct	n/a	0.6333	no	n/a	n/a
601.9882812	n/a	154109	largeTSmallT	correct	congruent	0.375	no	T	T
602.3632812	n/a	154205	responseSmallT	correct	n/a	0.375	no	n/a	n/a
603.4282227	n/a	154477.625	largeHSmallH	correct	congruent	0.43262	no	H	H
603.8608398	n/a	154588.375	responseSmallH	correct	n/a	0.43262	no	n/a	n/a
604.9350586	n/a	154863.375	largeHSmallT	correct	incongruent	0.48779	no	H	T
605.4228516	n/a	154988.25	responseSmallT	correct	n/a	0.48779	no	n/a	n/a
606.4946289	n/a	155262.625	largeTSmallH	correct	incongruent	0.50244	no	T	H
606.9970703	n/a	155391.25	responseSmallH	correct	n/a	0.50244	no	n/a	n/a
608.0683594	n/a	155665.5	largeTSmallT	correct	congruent	0.49268	no	T	T
608.5610352	n/a	155791.625	responseSmallT	correct	n/a	0.49268	no	n/a	n/a
609.6279297	n/a	156064.75	largeTSmallT	correct	congruent	0.48193	no	T	T
610.1098633	n/a	156188.125	responseSmallT	correct	n/a	0.48193	no	n/a	n/a
611.1879883	n/a	156464.125	largeTSmallT	correct	congruent	0.42578	no	T	T
611.6137695	n/a	156573.125	responseSmallT	correct	n/a	0.42578	no	n/a	n/a
612.6811523	n/a	156846.375	largeTSmallH	correct	incongruent	0.50732	no	T	H
613.1884766	n/a	156976.25	responseSmallH	correct	n/a	0.50732	no	n/a	n/a
614.2543945	n/a	157249.125	largeHSmallT	correct	incongruent	0.43359	no	H	T
614.6879883	n/a	157360.125	responseSmallT	correct	n/a	0.43359	no	n/a	n/a
615.7612305	n/a	157634.875	largeTSmallH	correct	incongruent	0.42383	no	T	H
616.1850586	n/a	157743.375	responseSmallH	correct	n/a	0.42383	no	n/a	n/a
617.2548828	n/a	158017.25	largeHSmallH	correct	congruent	0.42334	no	H	H
617.6782227	n/a	158125.625	responseSmallH	correct	n/a	0.42334	no	n/a	n/a
618.7475586	n/a	158399.375	largeTSmallT	correct	congruent	0.55762	no	T	T
619.3051758	n/a	158542.125	responseSmallT	correct	n/a	0.55762	no	n/a	n/a
620.3745117	n/a	158815.875	largeTSmallH	correct	incongruent	0.43066	no	T	H
620.8051758	n/a	158926.125	responseSmallH	correct	n/a	0.43066	no	n/a	n/a
621.8676758	n/a	159198.125	largeTSmallH	error	incongruent	0.40088	no	T	H
622.2685547	n/a	159300.75	responseSmallT	error	n/a	0.40088	no	n/a	n/a
623.3344727	n/a	159573.625	largeTSmallH	correct	incongruent	0.44678	no	T	H
623.78125	n/a	159688	responseSmallH	correct	n/a	0.44678	no	n/a	n/a
624.9379883	n/a	159984.125	largeTSmallT	error	congruent	0.45752	no	T	T
625.3955078	n/a	160101.25	responseSmallH	error	n/a	0.45752	no	n/a	n/a
626.4677734	n/a	160375.75	largeHSmallT	correct	incongruent	0.52246	no	H	T
626.9902344	n/a	160509.5	responseSmallT	correct	n/a	0.52246	no	n/a	n/a
628.0678711	n/a	160785.375	largeHSmallT	correct	incongruent	0.47949	no	H	T
628.5473633	n/a	160908.125	responseSmallT	correct	n/a	0.47949	no	n/a	n/a
629.6274414	n/a	161184.625	largeHSmallH	correct	congruent	0.44727	no	H	H
630.074707	n/a	161299.125	responseSmallH	correct	n/a	0.44727	no	n/a	n/a
631.1342773	n/a	161570.375	largeHSmallT	correct	incongruent	0.44434	no	H	T
631.5786133	n/a	161684.125	responseSmallT	correct	n/a	0.44434	no	n/a	n/a
632.6542969	n/a	161959.5	largeHSmallH	correct	congruent	0.44873	no	H	H
633.1030273	n/a	162074.375	responseSmallH	correct	n/a	0.44873	no	n/a	n/a
634.1743164	n/a	162348.625	largeTSmallT	correct	congruent	0.45312	no	T	T
634.6274414	n/a	162464.625	responseSmallT	correct	n/a	0.45312	no	n/a	n/a
635.6938477	n/a	162737.625	largeTSmallH	correct	incongruent	0.61768	no	T	H
636.3115234	n/a	162895.75	responseSmallH	correct	n/a	0.61768	no	n/a	n/a
637.3740234	n/a	163167.75	largeHSmallH	correct	congruent	0.54492	no	H	H
637.9189453	n/a	163307.25	responseSmallH	correct	n/a	0.54492	no	n/a	n/a
638.9873047	n/a	163580.75	largeTSmallT	correct	congruent	0.4209	no	T	T
639.4082031	n/a	163688.5	responseSmallT	correct	n/a	0.4209	no	n/a	n/a
640.4804688	n/a	163963	largeHSmallH	correct	congruent	0.47363	no	H	H
640.9541016	n/a	164084.25	responseSmallH	correct	n/a	0.47363	no	n/a	n/a
642.0273438	n/a	164359	largeHSmallT	correct	incongruent	0.39062	no	H	T
642.4179688	n/a	164459	responseSmallT	correct	n/a	0.39062	no	n/a	n/a
643.4936523	n/a	164734.375	largeTSmallH	correct	incongruent	0.43555	no	T	H
643.9291992	n/a	164845.875	responseSmallH	correct	n/a	0.43555	no	n/a	n/a
647.9072266	n/a	165864.25	largeTSmallH	correct	incongruent	0.72607	no	T	H
648.6333008	n/a	166050.125	responseLargeT	correct	n/a	0.72607	no	n/a	n/a
649.7070312	n/a	166325	largeHSmallH	correct	congruent	0.46338	no	H	H
650.1704102	n/a	166443.625	responseLargeH	correct	n/a	0.46338	no	n/a	n/a
651.2402344	n/a	166717.5	largeTSmallT	correct	congruent	0.39404	no	T	T
651.6342773	n/a	166818.375	responseLargeT	correct	n/a	0.39404	no	n/a	n/a
652.7202148	n/a	167096.375	largeHSmallH	correct	congruent	0.4209	no	H	H
653.1411133	n/a	167204.125	responseLargeH	correct	n/a	0.4209	no	n/a	n/a
654.2138672	n/a	167478.75	largeTSmallH	correct	incongruent	0.34619	no	T	H
654.5600586	n/a	167567.375	responseLargeT	correct	n/a	0.34619	no	n/a	n/a
655.6269531	n/a	167840.5	largeTSmallT	correct	congruent	0.37793	no	T	T
656.0048828	n/a	167937.25	responseLargeT	correct	n/a	0.37793	no	n/a	n/a
657.0800781	n/a	168212.5	largeTSmallT	correct	congruent	0.52588	no	T	T
657.605957	n/a	168347.125	responseLargeT	correct	n/a	0.52588	no	n/a	n/a
658.6669922	n/a	168618.75	largeHSmallH	correct	congruent	0.57373	no	H	H
659.2407227	n/a	168765.625	responseLargeH	correct	n/a	0.57373	no	n/a	n/a
660.3066406	n/a	169038.5	largeHSmallT	correct	incongruent	0.604	no	H	T
660.9106445	n/a	169193.125	responseLargeH	correct	n/a	0.604	no	n/a	n/a
661.9868164	n/a	169468.625	largeHSmallT	error	incongruent	0.42529	no	H	T
662.4121094	n/a	169577.5	responseLargeT	error	n/a	0.42529	no	n/a	n/a
663.4799805	n/a	169850.875	largeTSmallT	correct	congruent	0.52832	no	T	T
664.0083008	n/a	169986.125	responseLargeT	correct	n/a	0.52832	no	n/a	n/a
665.0800781	n/a	170260.5	largeHSmallH	correct	congruent	0.36719	no	H	H
665.4472656	n/a	170354.5	responseLargeH	correct	n/a	0.36719	no	n/a	n/a
666.5200195	n/a	170629.125	largeTSmallH	correct	incongruent	0.42676	no	T	H
666.9467773	n/a	170738.375	responseLargeT	correct	n/a	0.42676	no	n/a	n/a
668.0131836	n/a	171011.375	largeTSmallH	correct	incongruent	0.47119	no	T	H
668.484375	n/a	171132	responseLargeT	correct	n/a	0.47119	no	n/a	n/a
669.5595703	n/a	171407.25	largeTSmallH	correct	incongruent	0.48535	no	T	H
670.0449219	n/a	171531.5	responseLargeT	correct	n/a	0.48535	no	n/a	n/a
671.1201172	n/a	171806.75	largeTSmallH	correct	incongruent	0.4585	no	T	H
671.5786133	n/a	171924.125	responseLargeT	correct	n/a	0.4585	no	n/a	n/a
672.6533203	n/a	172199.25	largeTSmallT	correct	congruent	0.46777	no	T	T
673.1210938	n/a	172319	responseLargeT	correct	n/a	0.46777	no	n/a	n/a
674.199707	n/a	172595.125	largeHSmallT	correct	incongruent	0.49072	no	H	T
674.6904297	n/a	172720.75	responseLargeH	correct	n/a	0.49072	no	n/a	n/a
675.7597656	n/a	172994.5	largeHSmallH	correct	congruent	0.50391	no	H	H
676.2636719	n/a	173123.5	responseLargeH	correct	n/a	0.50391	no	n/a	n/a
677.3330078	n/a	173397.25	largeHSmallT	error	incongruent	0.52246	no	H	T
677.8554688	n/a	173531	responseLargeT	error	n/a	0.52246	no	n/a	n/a
678.9306641	n/a	173806.25	largeHSmallH	correct	congruent	0.47119	no	H	H
679.4018555	n/a	173926.875	responseLargeH	correct	n/a	0.47119	no	n/a	n/a
680.4663086	n/a	174199.375	largeHSmallH	correct	congruent	0.44238	no	H	H
680.9086914	n/a	174312.625	responseLargeH	correct	n/a	0.44238	no	n/a	n/a
681.9863281	n/a	174588.5	largeTSmallT	correct	congruent	0.50879	no	T	T
682.4951172	n/a	174718.75	responseLargeT	correct	n/a	0.50879	no	n/a	n/a
683.5727539	n/a	174994.625	largeTSmallT	correct	congruent	0.53418	no	T	T
684.1069336	n/a	175131.375	responseLargeT	correct	n/a	0.53418	no	n/a	n/a
685.1728516	n/a	175404.25	largeTSmallH	correct	incongruent	0.43457	no	T	H
685.6074219	n/a	175515.5	responseLargeT	correct	n/a	0.43457	no	n/a	n/a
686.6796875	n/a	175790	largeTSmallT	correct	congruent	0.40723	no	T	T
687.0869141	n/a	175894.25	responseLargeT	correct	n/a	0.40723	no	n/a	n/a
688.159668	n/a	176168.875	largeHSmallH	correct	congruent	0.54248	no	H	H
688.7021484	n/a	176307.75	responseLargeH	correct	n/a	0.54248	no	n/a	n/a
689.7861328	n/a	176585.25	largeTSmallH	correct	incongruent	0.43506	no	T	H
690.2211914	n/a	176696.625	responseLargeT	correct	n/a	0.43506	no	n/a	n/a
691.2929688	n/a	176971	largeHSmallH	correct	congruent	0.42725	no	H	H
691.7202148	n/a	177080.375	responseLargeH	correct	n/a	0.42725	no	n/a	n/a
692.7861328	n/a	177353.25	largeHSmallH	correct	congruent	0.43359	no	H	H
693.2197266	n/a	177464.25	responseLargeH	correct	n/a	0.43359	no	n/a	n/a
694.2924805	n/a	177738.875	largeTSmallH	correct	incongruent	0.48584	no	T	H
694.7783203	n/a	177863.25	responseLargeT	correct	n/a	0.48584	no	n/a	n/a
695.8525391	n/a	178138.25	largeTSmallT	correct	congruent	0.47852	no	T	T
696.3310547	n/a	178260.75	responseLargeT	correct	n/a	0.47852	no	n/a	n/a
697.4125977	n/a	178537.625	largeTSmallT	correct	congruent	0.42334	no	T	T
697.8359375	n/a	178646	responseLargeT	correct	n/a	0.42334	no	n/a	n/a
698.9057617	n/a	178919.875	largeTSmallH	correct	incongruent	0.3999	no	T	H
699.3056641	n/a	179022.25	responseLargeT	correct	n/a	0.3999	no	n/a	n/a
700.3725586	n/a	179295.375	largeTSmallT	correct	congruent	0.47607	no	T	T
700.8486328	n/a	179417.25	responseLargeT	correct	n/a	0.47607	no	n/a	n/a
701.9189453	n/a	179691.25	largeTSmallH	correct	incongruent	0.35693	no	T	H
702.2758789	n/a	179782.625	responseLargeT	correct	n/a	0.35693	no	n/a	n/a
703.359375	n/a	180060	largeHSmallT	correct	incongruent	0.45898	no	H	T
703.8183594	n/a	180177.5	responseLargeH	correct	n/a	0.45898	no	n/a	n/a
704.8925781	n/a	180452.5	largeTSmallT	correct	congruent	0.43945	no	T	T
705.3320312	n/a	180565	responseLargeT	correct	n/a	0.43945	no	n/a	n/a
706.4121094	n/a	180841.5	largeTSmallT	correct	congruent	0.38428	no	T	T
706.7963867	n/a	180939.875	responseLargeT	correct	n/a	0.38428	no	n/a	n/a
707.8789062	n/a	181217	largeTSmallT	correct	congruent	0.38428	no	T	T
708.2631836	n/a	181315.375	responseLargeT	correct	n/a	0.38428	no	n/a	n/a
709.3457031	n/a	181592.5	largeHSmallH	correct	congruent	0.45801	no	H	H
709.8037109	n/a	181709.75	responseLargeH	correct	n/a	0.45801	no	n/a	n/a
710.8657227	n/a	181981.625	largeTSmallT	correct	congruent	0.4502	no	T	T
711.315918	n/a	182096.875	responseLargeT	correct	n/a	0.4502	no	n/a	n/a
712.3857422	n/a	182370.75	largeTSmallH	correct	incongruent	0.52686	no	T	H
712.9125977	n/a	182505.625	responseLargeT	correct	n/a	0.52686	no	n/a	n/a
713.9858398	n/a	182780.375	largeTSmallH	correct	incongruent	0.50244	no	T	H
714.4882812	n/a	182909	responseLargeT	correct	n/a	0.50244	no	n/a	n/a
715.5585938	n/a	183183	largeHSmallT	correct	incongruent	0.46191	no	H	T
716.0205078	n/a	183301.25	responseLargeH	correct	n/a	0.46191	no	n/a	n/a
717.0922852	n/a	183575.625	largeHSmallT	correct	incongruent	0.47949	no	H	T
717.5717773	n/a	183698.375	responseLargeH	correct	n/a	0.47949	no	n/a	n/a
718.6386719	n/a	183971.5	largeHSmallT	correct	incongruent	0.40771	no	H	T
719.0463867	n/a	184075.875	responseLargeH	correct	n/a	0.40771	no	n/a	n/a
720.1186523	n/a	184350.375	largeHSmallT	correct	incongruent	0.39551	no	H	T
720.5141602	n/a	184451.625	responseLargeH	correct	n/a	0.39551	no	n/a	n/a
721.5854492	n/a	184725.875	largeHSmallH	correct	congruent	0.47949	no	H	H
722.0649414	n/a	184848.625	responseLargeH	correct	n/a	0.47949	no	n/a	n/a
723.1318359	n/a	185121.75	largeTSmallT	correct	congruent	0.46094	no	T	T
723.5927734	n/a	185239.75	responseLargeT	correct	n/a	0.46094	no	n/a	n/a
724.6650391	n/a	185514.25	largeHSmallH	correct	congruent	0.52197	no	H	H
725.1870117	n/a	185647.875	responseLargeH	correct	n/a	0.52197	no	n/a	n/a
726.2519531	n/a	185920.5	largeHSmallT	correct	incongruent	0.66113	no	H	T
726.9130859	n/a	186089.75	responseLargeH	correct	n/a	0.66113	no	n/a	n/a
727.9848633	n/a	186364.125	largeTSmallH	correct	incongruent	0.46631	no	T	H
728.4511719	n/a	186483.5	responseLargeT	correct	n/a	0.46631	no	n/a	n/a
729.5317383	n/a	186760.125	largeTSmallH	correct	incongruent	0.46484	no	T	H
729.996582	n/a	186879.125	responseLargeT	correct	n/a	0.46484	no	n/a	n/a
731.0654297	n/a	187152.75	largeHSmallH	correct	congruent	0.35156	no	H	H
731.4169922	n/a	187242.75	responseLargeH	correct	n/a	0.35156	no	n/a	n/a
732.4916992	n/a	187517.875	largeHSmallT	correct	incongruent	0.45068	no	H	T
732.9423828	n/a	187633.25	responseLargeH	correct	n/a	0.45068	no	n/a	n/a
734.0249023	n/a	187910.375	largeTSmallH	correct	incongruent	0.3877	no	T	H
734.4125977	n/a	188009.625	responseLargeT	correct	n/a	0.3877	no	n/a	n/a
735.4916992	n/a	188285.875	largeHSmallH	correct	congruent	0.46582	no	H	H
735.9575195	n/a	188405.125	responseLargeH	correct	n/a	0.46582	no	n/a	n/a
737.0249023	n/a	188678.375	largeHSmallH	correct	congruent	0.37646	no	H	H
737.4013672	n/a	188774.75	responseLargeH	correct	n/a	0.37646	no	n/a	n/a
738.4648438	n/a	189047	largeHSmallT	correct	incongruent	0.44629	no	H	T
738.9111328	n/a	189161.25	responseLargeH	correct	n/a	0.44629	no	n/a	n/a
739.9848633	n/a	189436.125	largeHSmallT	correct	incongruent	0.47998	no	H	T
740.4648438	n/a	189559	responseLargeH	correct	n/a	0.47998	no	n/a	n/a
741.5449219	n/a	189835.5	largeTSmallT	correct	congruent	0.49023	no	T	T
742.0351562	n/a	189961	responseLargeT	correct	n/a	0.49023	no	n/a	n/a
743.1049805	n/a	190234.875	largeTSmallH	correct	incongruent	0.43213	no	T	H
743.5371094	n/a	190345.5	responseLargeT	correct	n/a	0.43213	no	n/a	n/a
744.6113281	n/a	190620.5	largeHSmallT	correct	incongruent	0.42432	no	H	T
745.0356445	n/a	190729.125	responseLargeH	correct	n/a	0.42432	no	n/a	n/a
746.1044922	n/a	191002.75	largeHSmallT	correct	incongruent	0.41309	no	H	T
746.5175781	n/a	191108.5	responseLargeH	correct	n/a	0.41309	no	n/a	n/a
747.5981445	n/a	191385.125	largeTSmallH	correct	incongruent	0.5249	no	T	H
748.1230469	n/a	191519.5	responseLargeT	correct	n/a	0.5249	no	n/a	n/a
749.1977539	n/a	191794.625	largeTSmallT	error	congruent	0.49316	no	T	T
749.690918	n/a	191920.875	responseLargeH	error	n/a	0.49316	no	n/a	n/a
750.7578125	n/a	192194	largeTSmallH	correct	incongruent	0.61475	no	T	H
751.3725586	n/a	192351.375	responseLargeT	correct	n/a	0.61475	no	n/a	n/a
752.4379883	n/a	192624.125	largeTSmallH	correct	incongruent	0.44043	no	T	H
752.878418	n/a	192736.875	responseLargeT	correct	n/a	0.44043	no	n/a	n/a
753.9580078	n/a	193013.25	largeTSmallH	correct	incongruent	0.39844	no	T	H
754.3564453	n/a	193115.25	responseLargeT	correct	n/a	0.39844	no	n/a	n/a
755.4243164	n/a	193388.625	largeHSmallH	correct	congruent	0.44189	no	H	H
755.8662109	n/a	193501.75	responseLargeH	correct	n/a	0.44189	no	n/a	n/a
756.9438477	n/a	193777.625	largeTSmallT	correct	congruent	0.48828	no	T	T
757.4321289	n/a	193902.625	responseLargeT	correct	n/a	0.48828	no	n/a	n/a
758.4912109	n/a	194173.75	largeTSmallH	correct	incongruent	0.41016	no	T	H
758.9013672	n/a	194278.75	responseLargeT	correct	n/a	0.41016	no	n/a	n/a
759.984375	n/a	194556	largeTSmallH	correct	incongruent	0.3833	no	T	H
760.3676758	n/a	194654.125	responseLargeT	correct	n/a	0.3833	no	n/a	n/a
761.4511719	n/a	194931.5	largeTSmallH	error	incongruent	0.44434	no	T	H
761.8955078	n/a	195045.25	responseLargeH	error	n/a	0.44434	no	n/a	n/a
762.9702148	n/a	195320.375	largeTSmallT	correct	congruent	0.44531	no	T	T
763.4155273	n/a	195434.375	responseLargeT	correct	n/a	0.44531	no	n/a	n/a
764.4912109	n/a	195709.75	largeHSmallH	correct	congruent	0.46826	no	H	H
764.9594727	n/a	195829.625	responseLargeH	correct	n/a	0.46826	no	n/a	n/a
766.0375977	n/a	196105.625	largeHSmallT	correct	incongruent	0.49316	no	H	T
766.5307617	n/a	196231.875	responseLargeH	correct	n/a	0.49316	no	n/a	n/a
767.6108398	n/a	196508.375	largeTSmallH	correct	incongruent	0.61133	no	T	H
768.222168	n/a	196664.875	responseLargeT	correct	n/a	0.61133	no	n/a	n/a
769.2905273	n/a	196938.375	largeTSmallT	correct	congruent	0.47412	no	T	T
769.7646484	n/a	197059.75	responseLargeT	correct	n/a	0.47412	no	n/a	n/a
770.8374023	n/a	197334.375	largeTSmallH	correct	incongruent	0.50293	no	T	H
771.340332	n/a	197463.125	responseLargeT	correct	n/a	0.50293	no	n/a	n/a
772.4106445	n/a	197737.125	largeTSmallH	correct	incongruent	0.44385	no	T	H
772.8544922	n/a	197850.75	responseLargeT	correct	n/a	0.44385	no	n/a	n/a
773.9306641	n/a	198126.25	largeHSmallT	correct	incongruent	0.49023	no	H	T
774.4208984	n/a	198251.75	responseLargeH	correct	n/a	0.49023	no	n/a	n/a
775.4907227	n/a	198525.625	largeTSmallH	correct	incongruent	0.43604	no	T	H
775.9267578	n/a	198637.25	responseLargeT	correct	n/a	0.43604	no	n/a	n/a
776.9970703	n/a	198911.25	largeHSmallH	correct	congruent	0.53467	no	H	H
777.5317383	n/a	199048.125	responseLargeH	correct	n/a	0.53467	no	n/a	n/a
778.6103516	n/a	199324.25	largeHSmallT	correct	incongruent	0.36768	no	H	T
778.9780273	n/a	199418.375	responseLargeH	correct	n/a	0.36768	no	n/a	n/a
780.050293	n/a	199692.875	largeHSmallT	correct	incongruent	0.40479	no	H	T
780.4550781	n/a	199796.5	responseLargeH	correct	n/a	0.40479	no	n/a	n/a
781.5170898	n/a	200068.375	largeTSmallT	correct	congruent	0.45703	no	T	T
781.9741211	n/a	200185.375	responseLargeT	correct	n/a	0.45703	no	n/a	n/a
783.050293	n/a	200460.875	largeHSmallH	correct	congruent	0.44092	no	H	H
783.4912109	n/a	200573.75	responseLargeH	correct	n/a	0.44092	no	n/a	n/a
784.5576172	n/a	200846.75	largeTSmallH	correct	incongruent	0.36182	no	T	H
784.9194336	n/a	200939.375	responseLargeT	correct	n/a	0.36182	no	n/a	n/a
785.9833984	n/a	201211.75	largeHSmallT	correct	incongruent	0.43359	no	H	T
786.4169922	n/a	201322.75	responseLargeH	correct	n/a	0.43359	no	n/a	n/a
787.4770508	n/a	201594.125	largeTSmallH	correct	incongruent	0.36816	no	T	H
787.8452148	n/a	201688.375	responseLargeT	correct	n/a	0.36816	no	n/a	n/a
788.9169922	n/a	201962.75	largeHSmallT	correct	incongruent	0.46191	no	H	T
789.3789062	n/a	202081	responseLargeH	correct	n/a	0.46191	no	n/a	n/a
790.4501953	n/a	202355.25	largeHSmallH	correct	congruent	0.64453	no	H	H
791.0947266	n/a	202520.25	responseLargeH	correct	n/a	0.64453	no	n/a	n/a
792.1567383	n/a	202792.125	largeHSmallH	correct	congruent	0.41504	no	H	H
792.5717773	n/a	202898.375	responseLargeH	correct	n/a	0.41504	no	n/a	n/a
793.6503906	n/a	203174.5	largeTSmallT	correct	congruent	0.44287	no	T	T
794.0932617	n/a	203287.875	responseLargeT	correct	n/a	0.44287	no	n/a	n/a
795.1567383	n/a	203560.125	largeTSmallT	correct	congruent	0.50146	no	T	T
795.6582031	n/a	203688.5	responseLargeT	correct	n/a	0.50146	no	n/a	n/a
796.7299805	n/a	203962.875	largeTSmallH	correct	incongruent	0.45459	no	T	H
797.1845703	n/a	204079.25	responseLargeT	correct	n/a	0.45459	no	n/a	n/a
798.2631836	n/a	204355.375	largeHSmallH	correct	congruent	0.49414	no	H	H
798.7573242	n/a	204481.875	responseLargeH	correct	n/a	0.49414	no	n/a	n/a
799.9165039	n/a	204778.625	largeHSmallH	correct	congruent	0.38818	no	H	H
800.3046875	n/a	204878	responseLargeH	correct	n/a	0.38818	no	n/a	n/a
801.3833008	n/a	205154.125	largeHSmallT	correct	incongruent	0.4248	no	H	T
801.8081055	n/a	205262.875	responseLargeH	correct	n/a	0.4248	no	n/a	n/a
802.8764648	n/a	205536.375	largeHSmallH	correct	congruent	0.43945	no	H	H
803.315918	n/a	205648.875	responseLargeH	correct	n/a	0.43945	no	n/a	n/a
804.3964844	n/a	205925.5	largeTSmallT	correct	congruent	0.51123	no	T	T
804.9077148	n/a	206056.375	responseLargeT	correct	n/a	0.51123	no	n/a	n/a
805.9960938	n/a	206335	largeTSmallH	correct	incongruent	0.40869	no	T	H
806.4047852	n/a	206439.625	responseLargeT	correct	n/a	0.40869	no	n/a	n/a
807.4760742	n/a	206713.875	largeHSmallT	error	incongruent	0.53516	no	H	T
808.0112305	n/a	206850.875	responseLargeT	error	n/a	0.53516	no	n/a	n/a
809.0893555	n/a	207126.875	largeTSmallH	correct	incongruent	0.45117	no	T	H
809.5405273	n/a	207242.375	responseLargeT	correct	n/a	0.45117	no	n/a	n/a
810.6230469	n/a	207519.5	largeHSmallH	correct	congruent	0.43311	no	H	H
811.0561523	n/a	207630.375	responseLargeH	correct	n/a	0.43311	no	n/a	n/a
812.1293945	n/a	207905.125	largeHSmallH	correct	congruent	0.43701	no	H	H
812.5664062	n/a	208017	responseLargeH	correct	n/a	0.43701	no	n/a	n/a
813.6494141	n/a	208294.25	largeHSmallT	correct	incongruent	0.4917	no	H	T
814.1411133	n/a	208420.125	responseLargeH	correct	n/a	0.4917	no	n/a	n/a
815.2226562	n/a	208697	largeHSmallT	correct	incongruent	0.43115	no	H	T
815.6538086	n/a	208807.375	responseLargeH	correct	n/a	0.43115	no	n/a	n/a
816.7294922	n/a	209082.75	largeTSmallT	error	congruent	0.4126	no	T	T
817.1420898	n/a	209188.375	responseLargeH	error	n/a	0.4126	no	n/a	n/a
818.2094727	n/a	209461.625	largeHSmallT	correct	incongruent	0.45361	no	H	T
818.6630859	n/a	209577.75	responseLargeH	correct	n/a	0.45361	no	n/a	n/a
819.7294922	n/a	209850.75	largeHSmallT	correct	incongruent	0.49561	no	H	T
820.2250977	n/a	209977.625	responseLargeH	correct	n/a	0.49561	no	n/a	n/a
821.3027344	n/a	210253.5	largeHSmallH	correct	congruent	0.38086	no	H	H
821.6835938	n/a	210351	responseLargeH	correct	n/a	0.38086	no	n/a	n/a
822.7558594	n/a	210625.5	largeTSmallH	error	incongruent	0.42188	no	T	H
823.1777344	n/a	210733.5	responseLargeH	error	n/a	0.42188	no	n/a	n/a
824.2490234	n/a	211007.75	largeTSmallT	correct	congruent	0.49219	no	T	T
824.7412109	n/a	211133.75	responseLargeT	correct	n/a	0.49219	no	n/a	n/a
825.809082	n/a	211407.125	largeTSmallT	correct	congruent	0.41357	no	T	T
826.2226562	n/a	211513	responseLargeT	correct	n/a	0.41357	no	n/a	n/a
827.2890625	n/a	211786	largeTSmallH	correct	incongruent	0.43701	no	T	H
827.7260742	n/a	211897.875	responseLargeT	correct	n/a	0.43701	no	n/a	n/a
828.7958984	n/a	212171.75	largeTSmallH	correct	incongruent	0.54297	no	T	H
829.3388672	n/a	212310.75	responseLargeT	correct	n/a	0.54297	no	n/a	n/a
830.4091797	n/a	212584.75	largeTSmallT	correct	congruent	0.4375	no	T	T
830.8466797	n/a	212696.75	responseLargeT	correct	n/a	0.4375	no	n/a	n/a
831.9155273	n/a	212970.375	largeTSmallH	correct	incongruent	0.42432	no	T	H
832.3398438	n/a	213079	responseLargeT	correct	n/a	0.42432	no	n/a	n/a
833.4091797	n/a	213352.75	largeTSmallH	correct	incongruent	0.45068	no	T	H
833.8598633	n/a	213468.125	responseLargeT	correct	n/a	0.45068	no	n/a	n/a
834.9414062	n/a	213745	largeHSmallH	correct	congruent	0.51074	no	H	H
835.4521484	n/a	213875.75	responseLargeH	correct	n/a	0.51074	no	n/a	n/a
836.5288086	n/a	214151.375	largeTSmallH	correct	incongruent	0.42822	no	T	H
836.9570312	n/a	214261	responseLargeT	correct	n/a	0.42822	no	n/a	n/a
838.0224609	n/a	214533.75	largeHSmallT	correct	incongruent	0.39258	no	H	T
838.4150391	n/a	214634.25	responseLargeH	correct	n/a	0.39258	no	n/a	n/a
839.4887695	n/a	214909.125	largeHSmallT	correct	incongruent	0.42334	no	H	T
839.9121094	n/a	215017.5	responseLargeH	correct	n/a	0.42334	no	n/a	n/a
840.9824219	n/a	215291.5	largeTSmallT	correct	congruent	0.48096	no	T	T
841.4633789	n/a	215414.625	responseLargeT	correct	n/a	0.48096	no	n/a	n/a
842.5419922	n/a	215690.75	largeTSmallT	correct	congruent	0.4624	no	T	T
843.0043945	n/a	215809.125	responseLargeT	correct	n/a	0.4624	no	n/a	n/a
844.0756836	n/a	216083.375	largeHSmallT	correct	incongruent	0.4126	no	H	T
844.4882812	n/a	216189	responseLargeH	correct	n/a	0.4126	no	n/a	n/a
845.5688477	n/a	216465.625	largeTSmallT	correct	congruent	0.40186	no	T	T
845.9707031	n/a	216568.5	responseLargeT	correct	n/a	0.40186	no	n/a	n/a
847.0488281	n/a	216844.5	largeHSmallH	correct	congruent	0.37109	no	H	H
847.4199219	n/a	216939.5	responseLargeH	correct	n/a	0.37109	no	n/a	n/a
848.4887695	n/a	217213.125	largeHSmallH	correct	congruent	0.52441	no	H	H
849.0131836	n/a	217347.375	responseLargeH	correct	n/a	0.52441	no	n/a	n/a
850.0883789	n/a	217622.625	largeTSmallT	correct	congruent	0.44727	no	T	T
850.5356445	n/a	217737.125	responseLargeT	correct	n/a	0.44727	no	n/a	n/a
851.6083984	n/a	218011.75	largeHSmallH	correct	congruent	0.41943	no	H	H
852.027832	n/a	218119.125	responseLargeH	correct	n/a	0.41943	no	n/a	n/a
853.0883789	n/a	218390.625	largeHSmallH	correct	congruent	0.57764	no	H	H
853.6660156	n/a	218538.5	responseLargeH	correct	n/a	0.57764	no	n/a	n/a
854.7285156	n/a	218810.5	largeTSmallT	correct	congruent	0.40527	no	T	T
855.1337891	n/a	218914.25	responseLargeT	correct	n/a	0.40527	no	n/a	n/a
856.1953125	n/a	219186	largeTSmallT	error	congruent	0.354	no	T	T
856.5493164	n/a	219276.625	responseLargeH	error	n/a	0.354	no	n/a	n/a
857.621582	n/a	219551.125	largeHSmallH	correct	congruent	0.39746	no	H	H
858.019043	n/a	219652.875	responseLargeH	correct	n/a	0.39746	no	n/a	n/a
859.0883789	n/a	219926.625	largeTSmallT	correct	congruent	0.604	no	T	T
859.6923828	n/a	220081.25	responseLargeT	correct	n/a	0.604	no	n/a	n/a
860.7680664	n/a	220356.625	largeHSmallH	correct	congruent	0.44824	no	H	H
861.2163086	n/a	220471.375	responseLargeH	correct	n/a	0.44824	no	n/a	n/a
862.2885742	n/a	220745.875	largeHSmallT	correct	incongruent	0.43799	no	H	T
862.7265625	n/a	220858	responseLargeH	correct	n/a	0.43799	no	n/a	n/a
863.7949219	n/a	221131.5	largeHSmallH	correct	congruent	0.44482	no	H	H
864.2397461	n/a	221245.375	responseLargeH	correct	n/a	0.44482	no	n/a	n/a
865.3149414	n/a	221520.625	largeHSmallT	correct	incongruent	0.41016	no	H	T
865.7250977	n/a	221625.625	responseLargeH	correct	n/a	0.41016	no	n/a	n/a
866.7949219	n/a	221899.5	largeHSmallH	correct	congruent	0.42432	no	H	H
867.2192383	n/a	222008.125	responseLargeH	correct	n/a	0.42432	no	n/a	n/a
868.2880859	n/a	222281.75	largeHSmallH	correct	congruent	0.37012	no	H	H
868.6582031	n/a	222376.5	responseLargeH	correct	n/a	0.37012	no	n/a	n/a
869.7280273	n/a	222650.375	largeHSmallH	correct	congruent	0.47217	no	H	H
870.2001953	n/a	222771.25	responseLargeH	correct	n/a	0.47217	no	n/a	n/a
871.2749023	n/a	223046.375	largeTSmallT	correct	congruent	0.61035	no	T	T
871.8852539	n/a	223202.625	responseLargeT	correct	n/a	0.61035	no	n/a	n/a
872.9545898	n/a	223476.375	largeTSmallH	correct	incongruent	0.58154	no	T	H
873.5361328	n/a	223625.25	responseLargeT	correct	n/a	0.58154	no	n/a	n/a
874.6079102	n/a	223899.625	largeTSmallH	correct	incongruent	0.43604	no	T	H
875.0439453	n/a	224011.25	responseLargeT	correct	n/a	0.43604	no	n/a	n/a
876.1147461	n/a	224285.375	largeTSmallH	correct	incongruent	0.40723	no	T	H
876.5219727	n/a	224389.625	responseLargeT	correct	n/a	0.40723	no	n/a	n/a
877.5810547	n/a	224660.75	largeHSmallH	correct	congruent	0.5166	no	H	H
878.0976562	n/a	224793	responseLargeH	correct	n/a	0.5166	no	n/a	n/a
879.1679688	n/a	225067	largeHSmallT	correct	incongruent	0.46094	no	H	T
879.6289062	n/a	225185	responseLargeH	correct	n/a	0.46094	no	n/a	n/a
880.6879883	n/a	225456.125	largeTSmallT	correct	congruent	0.48828	no	T	T
881.1762695	n/a	225581.125	responseLargeT	correct	n/a	0.48828	no	n/a	n/a
882.2475586	n/a	225855.375	largeHSmallH	correct	congruent	0.57861	no	H	H
882.8261719	n/a	226003.5	responseLargeH	correct	n/a	0.57861	no	n/a	n/a
883.8876953	n/a	226275.25	largeHSmallT	correct	incongruent	0.48193	no	H	T
884.3696289	n/a	226398.625	responseLargeH	correct	n/a	0.48193	no	n/a	n/a
885.434082	n/a	226671.125	largeHSmallT	correct	incongruent	0.61914	no	H	T
886.0532227	n/a	226829.625	responseLargeH	correct	n/a	0.61914	no	n/a	n/a
887.1142578	n/a	227101.25	largeHSmallH	correct	congruent	0.43018	no	H	H
887.5444336	n/a	227211.375	responseLargeH	correct	n/a	0.43018	no	n/a	n/a
888.6210938	n/a	227487	largeHSmallT	correct	incongruent	0.43799	no	H	T
889.059082	n/a	227599.125	responseLargeH	correct	n/a	0.43799	no	n/a	n/a
890.1274414	n/a	227872.625	largeTSmallT	correct	congruent	0.48486	no	T	T
890.6123047	n/a	227996.75	responseLargeT	correct	n/a	0.48486	no	n/a	n/a
891.6875	n/a	228272	largeHSmallT	correct	incongruent	0.38281	no	H	T
892.0703125	n/a	228370	responseLargeH	correct	n/a	0.38281	no	n/a	n/a
893.140625	n/a	228644	largeTSmallH	correct	incongruent	0.39746	no	T	H
893.5380859	n/a	228745.75	responseLargeT	correct	n/a	0.39746	no	n/a	n/a
894.6074219	n/a	229019.5	largeTSmallT	correct	congruent	0.47705	no	T	T
895.0844727	n/a	229141.625	responseLargeT	correct	n/a	0.47705	no	n/a	n/a
896.1542969	n/a	229415.5	largeHSmallT	correct	incongruent	0.50195	no	H	T
896.65625	n/a	229544	responseLargeH	correct	n/a	0.50195	no	n/a	n/a
897.7275391	n/a	229818.25	largeTSmallT	correct	congruent	0.56836	no	T	T
898.2958984	n/a	229963.75	responseLargeT	correct	n/a	0.56836	no	n/a	n/a
899.3671875	n/a	230238	largeHSmallH	correct	congruent	0.45215	no	H	H
899.8193359	n/a	230353.75	responseLargeH	correct	n/a	0.45215	no	n/a	n/a
900.887207	n/a	230627.125	largeHSmallH	error	congruent	0.39648	no	H	H
901.2836914	n/a	230728.625	responseLargeT	error	n/a	0.39648	no	n/a	n/a
902.3671875	n/a	231006	largeTSmallH	correct	incongruent	0.31494	no	T	H
902.6821289	n/a	231086.625	responseLargeT	correct	n/a	0.31494	no	n/a	n/a
903.7539062	n/a	231361	largeHSmallT	correct	incongruent	0.47607	no	H	T
904.2299805	n/a	231482.875	responseLargeH	correct	n/a	0.47607	no	n/a	n/a
905.3139648	n/a	231760.375	largeTSmallH	correct	incongruent	0.48389	no	T	H
905.7978516	n/a	231884.25	responseLargeT	correct	n/a	0.48389	no	n/a	n/a
906.8740234	n/a	232159.75	largeTSmallH	error	incongruent	0.48682	no	T	H
907.3608398	n/a	232284.375	responseLargeH	error	n/a	0.48682	no	n/a	n/a
908.4335938	n/a	232559	largeTSmallT	correct	congruent	0.55469	no	T	T
908.9882812	n/a	232701	responseLargeT	correct	n/a	0.55469	no	n/a	n/a
910.0605469	n/a	232975.5	largeHSmallT	correct	incongruent	0.46094	no	H	T
910.5214844	n/a	233093.5	responseLargeH	correct	n/a	0.46094	no	n/a	n/a
911.59375	n/a	233368	largeTSmallT	correct	congruent	0.49756	no	T	T
912.0913086	n/a	233495.375	responseLargeT	correct	n/a	0.49756	no	n/a	n/a
913.1538086	n/a	233767.375	largeHSmallH	correct	congruent	0.59375	no	H	H
913.7475586	n/a	233919.375	responseLargeH	correct	n/a	0.59375	no	n/a	n/a
914.8203125	n/a	234194	largeHSmallT	correct	incongruent	0.47021	no	H	T
915.2905273	n/a	234314.375	responseLargeH	correct	n/a	0.47021	no	n/a	n/a
916.3671875	n/a	234590	largeTSmallH	error	incongruent	0.4624	no	T	H
916.8295898	n/a	234708.375	responseLargeH	error	n/a	0.4624	no	n/a	n/a
917.8999023	n/a	234982.375	largeHSmallH	correct	congruent	0.48486	no	H	H
918.3847656	n/a	235106.5	responseLargeH	correct	n/a	0.48486	no	n/a	n/a
919.4599609	n/a	235381.75	largeHSmallH	correct	congruent	0.47754	no	H	H
919.9375	n/a	235504	responseLargeH	correct	n/a	0.47754	no	n/a	n/a
921.0068359	n/a	235777.75	largeHSmallH	correct	congruent	0.48486	no	H	H
921.4916992	n/a	235901.875	responseLargeH	correct	n/a	0.48486	no	n/a	n/a
922.5668945	n/a	236177.125	largeHSmallH	correct	congruent	0.41162	no	H	H
922.9785156	n/a	236282.5	responseLargeH	correct	n/a	0.41162	no	n/a	n/a
924.046875	n/a	236556	largeHSmallT	correct	incongruent	0.41699	no	H	T
924.4638672	n/a	236662.75	responseLargeH	correct	n/a	0.41699	no	n/a	n/a
925.5400391	n/a	236938.25	largeHSmallT	correct	incongruent	0.3916	no	H	T
925.9316406	n/a	237038.5	responseLargeH	correct	n/a	0.3916	no	n/a	n/a
927.0063477	n/a	237313.625	largeTSmallH	correct	incongruent	0.47461	no	T	H
927.480957	n/a	237435.125	responseLargeT	correct	n/a	0.47461	no	n/a	n/a
928.5532227	n/a	237709.625	largeTSmallT	correct	congruent	0.44434	no	T	T
928.9975586	n/a	237823.375	responseLargeT	correct	n/a	0.44434	no	n/a	n/a
930.0600586	n/a	238095.375	largeTSmallH	correct	incongruent	0.42529	no	T	H
930.4853516	n/a	238204.25	responseLargeT	correct	n/a	0.42529	no	n/a	n/a
931.5664062	n/a	238481	largeHSmallT	correct	incongruent	0.50098	no	H	T
932.0673828	n/a	238609.25	responseLargeH	correct	n/a	0.50098	no	n/a	n/a
933.1396484	n/a	238883.75	largeHSmallH	correct	congruent	0.60352	no	H	H
933.7431641	n/a	239038.25	responseLargeH	correct	n/a	0.60352	no	n/a	n/a
934.9394531	n/a	239344.5	largeHSmallT	correct	incongruent	0.38525	no	H	T
935.324707	n/a	239443.125	responseLargeH	correct	n/a	0.38525	no	n/a	n/a
936.3930664	n/a	239716.625	largeTSmallT	correct	congruent	0.46777	no	T	T
936.8608398	n/a	239836.375	responseLargeT	correct	n/a	0.46777	no	n/a	n/a
937.9262695	n/a	240109.125	largeHSmallT	correct	incongruent	0.42969	no	H	T
938.355957	n/a	240219.125	responseLargeH	correct	n/a	0.42969	no	n/a	n/a
939.4194336	n/a	240491.375	largeTSmallT	correct	congruent	0.53271	no	T	T
939.9521484	n/a	240627.75	responseLargeT	correct	n/a	0.53271	no	n/a	n/a
941.0195312	n/a	240901	largeTSmallT	correct	congruent	0.53809	no	T	T
941.5576172	n/a	241038.75	responseLargeT	correct	n/a	0.53809	no	n/a	n/a
942.6196289	n/a	241310.625	largeHSmallT	correct	incongruent	0.63037	no	H	T
943.25	n/a	241472	responseLargeH	correct	n/a	0.63037	no	n/a	n/a
944.3261719	n/a	241747.5	largeHSmallT	correct	incongruent	0.51367	no	H	T
944.8398438	n/a	241879	responseLargeH	correct	n/a	0.51367	no	n/a	n/a
945.925293	n/a	242156.875	largeHSmallT	correct	incongruent	0.42822	no	H	T
946.3535156	n/a	242266.5	responseLargeH	correct	n/a	0.42822	no	n/a	n/a
947.4326172	n/a	242542.75	largeHSmallT	correct	incongruent	0.39893	no	H	T
947.831543	n/a	242644.875	responseLargeH	correct	n/a	0.39893	no	n/a	n/a
948.8994141	n/a	242918.25	largeTSmallT	correct	congruent	0.479	no	T	T
949.378418	n/a	243040.875	responseLargeT	correct	n/a	0.479	no	n/a	n/a
950.4594727	n/a	243317.625	largeTSmallH	correct	incongruent	0.41602	no	T	H
950.8754883	n/a	243424.125	responseLargeT	correct	n/a	0.41602	no	n/a	n/a
951.9521484	n/a	243699.75	largeTSmallT	correct	congruent	0.4624	no	T	T
952.4145508	n/a	243818.125	responseLargeT	correct	n/a	0.4624	no	n/a	n/a
953.4858398	n/a	244092.375	largeTSmallT	correct	congruent	0.47607	no	T	T
953.9619141	n/a	244214.25	responseLargeT	correct	n/a	0.47607	no	n/a	n/a
959.2456055	n/a	245566.875	largeTSmallT	correct	congruent	0.56543	no	T	T
959.8110352	n/a	245711.625	responseSmallT	correct	n/a	0.56543	no	n/a	n/a
960.8725586	n/a	245983.375	largeTSmallT	correct	congruent	0.4834	no	T	T
961.355957	n/a	246107.125	responseSmallT	correct	n/a	0.4834	no	n/a	n/a
962.4189453	n/a	246379.25	largeTSmallT	correct	congruent	0.45215	no	T	T
962.8710938	n/a	246495	responseSmallT	correct	n/a	0.45215	no	n/a	n/a
963.9516602	n/a	246771.625	largeHSmallT	correct	incongruent	0.51367	no	H	T
964.465332	n/a	246903.125	responseSmallT	correct	n/a	0.51367	no	n/a	n/a
965.5390625	n/a	247178	largeTSmallH	correct	incongruent	0.45801	no	T	H
965.9970703	n/a	247295.25	responseSmallH	correct	n/a	0.45801	no	n/a	n/a
967.0722656	n/a	247570.5	largeHSmallH	correct	congruent	0.49854	no	H	H
967.5708008	n/a	247698.125	responseSmallH	correct	n/a	0.49854	no	n/a	n/a
968.6455078	n/a	247973.25	largeHSmallH	correct	congruent	0.41113	no	H	H
969.0566406	n/a	248078.5	responseSmallH	correct	n/a	0.41113	no	n/a	n/a
970.1254883	n/a	248352.125	largeHSmallH	correct	congruent	0.39111	no	H	H
970.5166016	n/a	248452.25	responseSmallH	correct	n/a	0.39111	no	n/a	n/a
971.5922852	n/a	248727.625	largeHSmallH	correct	congruent	0.39209	no	H	H
971.984375	n/a	248828	responseSmallH	correct	n/a	0.39209	no	n/a	n/a
973.0585938	n/a	249103	largeHSmallT	correct	incongruent	0.46582	no	H	T
973.5244141	n/a	249222.25	responseSmallT	correct	n/a	0.46582	no	n/a	n/a
974.5922852	n/a	249495.625	largeTSmallT	correct	congruent	0.48096	no	T	T
975.0732422	n/a	249618.75	responseSmallT	correct	n/a	0.48096	no	n/a	n/a
976.1523438	n/a	249895	largeHSmallH	correct	congruent	0.43164	no	H	H
976.5839844	n/a	250005.5	responseSmallH	correct	n/a	0.43164	no	n/a	n/a
977.6586914	n/a	250280.625	largeHSmallT	correct	incongruent	0.41943	no	H	T
978.078125	n/a	250388	responseSmallT	correct	n/a	0.41943	no	n/a	n/a
979.1386719	n/a	250659.5	largeTSmallT	error	congruent	0.37451	no	T	T
979.5131836	n/a	250755.375	responseSmallH	error	n/a	0.37451	no	n/a	n/a
980.5786133	n/a	251028.125	largeHSmallH	correct	congruent	0.52002	no	H	H
981.0986328	n/a	251161.25	responseSmallH	correct	n/a	0.52002	no	n/a	n/a
982.1650391	n/a	251434.25	largeTSmallH	correct	incongruent	0.48975	no	T	H
982.6547852	n/a	251559.625	responseSmallH	correct	n/a	0.48975	no	n/a	n/a
983.7250977	n/a	251833.625	largeTSmallT	correct	congruent	0.41846	no	T	T
984.1435547	n/a	251940.75	responseSmallT	correct	n/a	0.41846	no	n/a	n/a
985.21875	n/a	252216	largeHSmallT	correct	incongruent	0.38184	no	H	T
985.6005859	n/a	252313.75	responseSmallT	correct	n/a	0.38184	no	n/a	n/a
986.6850586	n/a	252591.375	largeHSmallH	correct	congruent	0.46777	no	H	H
987.152832	n/a	252711.125	responseSmallH	correct	n/a	0.46777	no	n/a	n/a
988.2182617	n/a	252983.875	largeHSmallT	correct	incongruent	0.44824	no	H	T
988.6665039	n/a	253098.625	responseSmallT	correct	n/a	0.44824	no	n/a	n/a
989.7382812	n/a	253373	largeTSmallH	correct	incongruent	0.40967	no	T	H
990.1479492	n/a	253477.875	responseSmallH	correct	n/a	0.40967	no	n/a	n/a
991.2182617	n/a	253751.875	largeTSmallH	correct	incongruent	0.40723	no	T	H
991.6254883	n/a	253856.125	responseSmallH	correct	n/a	0.40723	no	n/a	n/a
992.6982422	n/a	254130.75	largeTSmallT	correct	congruent	0.46143	no	T	T
993.159668	n/a	254248.875	responseSmallT	correct	n/a	0.46143	no	n/a	n/a
994.2314453	n/a	254523.25	largeTSmallH	correct	incongruent	0.46387	no	T	H
994.6953125	n/a	254642	responseSmallH	correct	n/a	0.46387	no	n/a	n/a
995.7783203	n/a	254919.25	largeHSmallT	correct	incongruent	0.42529	no	H	T
996.2036133	n/a	255028.125	responseSmallT	correct	n/a	0.42529	no	n/a	n/a
997.2714844	n/a	255301.5	largeTSmallH	correct	incongruent	0.4668	no	T	H
997.7382812	n/a	255421	responseSmallH	correct	n/a	0.4668	no	n/a	n/a
998.8178711	n/a	255697.375	largeHSmallH	correct	congruent	0.40771	no	H	H
999.2255859	n/a	255801.75	responseSmallH	correct	n/a	0.40771	no	n/a	n/a
1000.298828	n/a	256076.5	largeTSmallH	correct	incongruent	0.37451	no	T	H
1000.67334	n/a	256172.375	responseSmallH	correct	n/a	0.37451	no	n/a	n/a
1001.751465	n/a	256448.375	largeTSmallT	correct	congruent	0.45557	no	T	T
1002.207031	n/a	256565	responseSmallT	correct	n/a	0.45557	no	n/a	n/a
1003.271484	n/a	256837.5	largeTSmallT	correct	congruent	0.50342	no	T	T
1003.774902	n/a	256966.375	responseSmallT	correct	n/a	0.50342	no	n/a	n/a
1004.85791	n/a	257243.625	largeHSmallH	correct	congruent	0.43994	no	H	H
1005.297852	n/a	257356.25	responseSmallH	correct	n/a	0.43994	no	n/a	n/a
1006.364746	n/a	257629.375	largeTSmallT	error	congruent	0.43896	no	T	T
1006.803711	n/a	257741.75	responseSmallH	error	n/a	0.43896	no	n/a	n/a
1007.884277	n/a	258018.375	largeHSmallH	correct	congruent	0.42871	no	H	H
1008.312988	n/a	258128.125	responseSmallH	correct	n/a	0.42871	no	n/a	n/a
1009.37793	n/a	258400.75	largeHSmallT	correct	incongruent	0.39111	no	H	T
1009.769043	n/a	258500.875	responseSmallT	correct	n/a	0.39111	no	n/a	n/a
1010.844238	n/a	258776.125	largeHSmallH	correct	congruent	0.43359	no	H	H
1011.277832	n/a	258887.125	responseSmallH	correct	n/a	0.43359	no	n/a	n/a
1012.364258	n/a	259165.25	largeTSmallT	correct	congruent	0.38232	no	T	T
1012.746582	n/a	259263.125	responseSmallT	correct	n/a	0.38232	no	n/a	n/a
1013.818359	n/a	259537.5	largeTSmallT	correct	congruent	0.47119	no	T	T
1014.289551	n/a	259658.125	responseSmallT	correct	n/a	0.47119	no	n/a	n/a
1015.364258	n/a	259933.25	largeHSmallH	correct	congruent	0.42529	no	H	H
1015.789551	n/a	260042.125	responseSmallH	correct	n/a	0.42529	no	n/a	n/a
1016.85791	n/a	260315.625	largeTSmallT	correct	congruent	0.31055	no	T	T
1017.168457	n/a	260395.125	responseSmallT	correct	n/a	0.31055	no	n/a	n/a
1018.244141	n/a	260670.5	largeHSmallT	correct	incongruent	0.49707	no	H	T
1018.741211	n/a	260797.75	responseSmallT	correct	n/a	0.49707	no	n/a	n/a
1019.817383	n/a	261073.25	largeHSmallT	correct	incongruent	0.44824	no	H	T
1020.265625	n/a	261188	responseSmallT	correct	n/a	0.44824	no	n/a	n/a
1021.337402	n/a	261462.375	largeHSmallH	correct	congruent	0.48779	no	H	H
1021.825195	n/a	261587.25	responseSmallH	correct	n/a	0.48779	no	n/a	n/a
1022.897461	n/a	261861.75	largeHSmallH	correct	congruent	0.49219	no	H	H
1023.389648	n/a	261987.75	responseSmallH	correct	n/a	0.49219	no	n/a	n/a
1024.45752	n/a	262261.125	largeHSmallT	correct	incongruent	0.43408	no	H	T
1024.891602	n/a	262372.25	responseSmallT	correct	n/a	0.43408	no	n/a	n/a
1025.964355	n/a	262646.875	largeHSmallH	correct	congruent	0.51025	no	H	H
1026.474609	n/a	262777.5	responseSmallH	correct	n/a	0.51025	no	n/a	n/a
1027.550781	n/a	263053	largeTSmallH	correct	incongruent	0.42822	no	T	H
1027.979004	n/a	263162.625	responseSmallH	correct	n/a	0.42822	no	n/a	n/a
1029.043945	n/a	263435.25	largeHSmallT	correct	incongruent	0.52588	no	H	T
1029.569824	n/a	263569.875	responseSmallT	correct	n/a	0.52588	no	n/a	n/a
1030.644043	n/a	263844.875	largeHSmallH	correct	congruent	0.38623	no	H	H
1031.030273	n/a	263943.75	responseSmallH	correct	n/a	0.38623	no	n/a	n/a
1032.110352	n/a	264220.25	largeTSmallH	correct	incongruent	0.49512	no	T	H
1032.605469	n/a	264347	responseSmallH	correct	n/a	0.49512	no	n/a	n/a
1033.684082	n/a	264623.125	largeTSmallT	correct	congruent	0.50439	no	T	T
1034.188477	n/a	264752.25	responseSmallT	correct	n/a	0.50439	no	n/a	n/a
1035.257324	n/a	265025.875	largeHSmallT	correct	incongruent	0.46484	no	H	T
1035.722168	n/a	265144.875	responseSmallT	correct	n/a	0.46484	no	n/a	n/a
1036.790527	n/a	265418.375	largeTSmallT	error	congruent	0.51025	no	T	T
1037.300781	n/a	265549	responseSmallH	error	n/a	0.51025	no	n/a	n/a
1038.376953	n/a	265824.5	largeHSmallH	correct	congruent	0.44482	no	H	H
1038.821777	n/a	265938.375	responseSmallH	correct	n/a	0.44482	no	n/a	n/a
1039.896973	n/a	266213.625	largeTSmallT	correct	congruent	0.51855	no	T	T
1040.415527	n/a	266346.375	responseSmallT	correct	n/a	0.51855	no	n/a	n/a
1041.483398	n/a	266619.75	largeTSmallH	correct	incongruent	0.43848	no	T	H
1041.921875	n/a	266732	responseSmallH	correct	n/a	0.43848	no	n/a	n/a
1042.990234	n/a	267005.5	largeTSmallH	correct	incongruent	0.44092	no	T	H
1043.431152	n/a	267118.375	responseSmallH	correct	n/a	0.44092	no	n/a	n/a
1044.510254	n/a	267394.625	largeHSmallH	correct	congruent	0.51855	no	H	H
1045.028809	n/a	267527.375	responseSmallH	correct	n/a	0.51855	no	n/a	n/a
1046.09668	n/a	267800.75	largeHSmallH	correct	congruent	0.36572	no	H	H
1046.462402	n/a	267894.375	responseSmallH	correct	n/a	0.36572	no	n/a	n/a
1047.536621	n/a	268169.375	largeHSmallT	error	incongruent	0.37451	no	H	T
1047.911133	n/a	268265.25	responseSmallH	error	n/a	0.37451	no	n/a	n/a
1048.990234	n/a	268541.5	largeHSmallT	correct	incongruent	0.43896	no	H	T
1049.429199	n/a	268653.875	responseSmallT	correct	n/a	0.43896	no	n/a	n/a
1050.496582	n/a	268927.125	largeTSmallT	correct	congruent	0.4917	no	T	T
1050.988281	n/a	269053	responseSmallT	correct	n/a	0.4917	no	n/a	n/a
1052.056641	n/a	269326.5	largeTSmallT	correct	congruent	0.44238	no	T	T
1052.499023	n/a	269439.75	responseSmallT	correct	n/a	0.44238	no	n/a	n/a
1053.577148	n/a	269715.75	largeTSmallT	correct	congruent	0.4585	no	T	T
1054.035645	n/a	269833.125	responseSmallT	correct	n/a	0.4585	no	n/a	n/a
1055.09668	n/a	270104.75	largeHSmallH	correct	congruent	0.4668	no	H	H
1055.563477	n/a	270224.25	responseSmallH	correct	n/a	0.4668	no	n/a	n/a
1056.629883	n/a	270497.25	largeHSmallH	correct	congruent	0.42139	no	H	H
1057.05127	n/a	270605.125	responseSmallH	correct	n/a	0.42139	no	n/a	n/a
1058.123047	n/a	270879.5	largeHSmallT	correct	incongruent	0.50879	no	H	T
1058.631836	n/a	271009.75	responseSmallT	correct	n/a	0.50879	no	n/a	n/a
1059.696289	n/a	271282.25	largeHSmallT	correct	incongruent	0.4502	no	H	T
1060.146484	n/a	271397.5	responseSmallT	correct	n/a	0.4502	no	n/a	n/a
1061.216309	n/a	271671.375	largeTSmallH	correct	incongruent	0.53906	no	T	H
1061.755371	n/a	271809.375	responseSmallH	correct	n/a	0.53906	no	n/a	n/a
1062.82959	n/a	272084.375	largeHSmallH	correct	congruent	0.42871	no	H	H
1063.258301	n/a	272194.125	responseSmallH	correct	n/a	0.42871	no	n/a	n/a
1064.335938	n/a	272470	largeHSmallH	correct	congruent	0.41357	no	H	H
1064.749512	n/a	272575.875	responseSmallH	correct	n/a	0.41357	no	n/a	n/a
1065.908691	n/a	272872.625	largeTSmallH	correct	incongruent	0.42871	no	T	H
1066.337402	n/a	272982.375	responseSmallH	correct	n/a	0.42871	no	n/a	n/a
1067.402832	n/a	273255.125	largeHSmallT	correct	incongruent	0.43457	no	H	T
1067.837402	n/a	273366.375	responseSmallT	correct	n/a	0.43457	no	n/a	n/a
1068.909668	n/a	273640.875	largeTSmallH	correct	incongruent	0.44238	no	T	H
1069.352051	n/a	273754.125	responseSmallH	correct	n/a	0.44238	no	n/a	n/a
1070.416016	n/a	274026.5	largeTSmallH	correct	incongruent	0.51807	no	T	H
1070.934082	n/a	274159.125	responseSmallH	correct	n/a	0.51807	no	n/a	n/a
1072.016113	n/a	274436.125	largeTSmallH	correct	incongruent	0.41016	no	T	H
1072.42627	n/a	274541.125	responseSmallH	correct	n/a	0.41016	no	n/a	n/a
1073.496094	n/a	274815	largeTSmallH	correct	incongruent	0.44189	no	T	H
1073.937988	n/a	274928.125	responseSmallH	correct	n/a	0.44189	no	n/a	n/a
1075.00293	n/a	275200.75	largeTSmallT	correct	congruent	0.49316	no	T	T
1075.496094	n/a	275327	responseSmallT	correct	n/a	0.49316	no	n/a	n/a
1076.562988	n/a	275600.125	largeTSmallT	correct	congruent	0.43066	no	T	T
1076.993652	n/a	275710.375	responseSmallT	correct	n/a	0.43066	no	n/a	n/a
1078.069336	n/a	275985.75	largeHSmallH	correct	congruent	0.45605	no	H	H
1078.525391	n/a	276102.5	responseSmallH	correct	n/a	0.45605	no	n/a	n/a
1079.589355	n/a	276374.875	largeHSmallT	error	incongruent	0.54834	no	H	T
1080.137695	n/a	276515.25	responseSmallH	error	n/a	0.54834	no	n/a	n/a
1081.216309	n/a	276791.375	largeTSmallT	correct	congruent	0.43262	no	T	T
1081.648926	n/a	276902.125	responseSmallT	correct	n/a	0.43262	no	n/a	n/a
1082.708984	n/a	277173.5	largeTSmallT	correct	congruent	0.48633	no	T	T
1083.195312	n/a	277298	responseSmallT	correct	n/a	0.48633	no	n/a	n/a
1084.269531	n/a	277573	largeHSmallT	correct	incongruent	0.4541	no	H	T
1084.723633	n/a	277689.25	responseSmallT	correct	n/a	0.4541	no	n/a	n/a
1085.802734	n/a	277965.5	largeTSmallH	error	incongruent	0.41309	no	T	H
1086.21582	n/a	278071.25	responseSmallT	error	n/a	0.41309	no	n/a	n/a
1087.282715	n/a	278344.375	largeTSmallH	correct	incongruent	0.41406	no	T	H
1087.696777	n/a	278450.375	responseSmallH	correct	n/a	0.41406	no	n/a	n/a
1088.762695	n/a	278723.25	largeTSmallT	error	congruent	0.43701	no	T	T
1089.199707	n/a	278835.125	responseSmallH	error	n/a	0.43701	no	n/a	n/a
1090.282715	n/a	279112.375	largeHSmallT	correct	incongruent	0.50732	no	H	T
1090.790039	n/a	279242.25	responseSmallT	correct	n/a	0.50732	no	n/a	n/a
1091.855957	n/a	279515.125	largeTSmallT	correct	congruent	0.49658	no	T	T
1092.352539	n/a	279642.25	responseSmallT	correct	n/a	0.49658	no	n/a	n/a
1093.429199	n/a	279917.875	largeHSmallT	correct	incongruent	0.52051	no	H	T
1093.949707	n/a	280051.125	responseSmallT	correct	n/a	0.52051	no	n/a	n/a
1095.015625	n/a	280324	largeHSmallH	correct	congruent	0.52441	no	H	H
1095.540039	n/a	280458.25	responseSmallH	correct	n/a	0.52441	no	n/a	n/a
1096.615723	n/a	280733.625	largeTSmallT	correct	congruent	0.4917	no	T	T
1097.107422	n/a	280859.5	responseSmallT	correct	n/a	0.4917	no	n/a	n/a
1098.175293	n/a	281132.875	largeHSmallH	correct	congruent	0.47705	no	H	H
1098.652344	n/a	281255	responseSmallH	correct	n/a	0.47705	no	n/a	n/a
1099.722168	n/a	281528.875	largeTSmallT	correct	congruent	0.43994	no	T	T
1100.162109	n/a	281641.5	responseSmallT	correct	n/a	0.43994	no	n/a	n/a
1101.228516	n/a	281914.5	largeHSmallH	correct	congruent	0.37402	no	H	H
1101.602539	n/a	282010.25	responseSmallH	correct	n/a	0.37402	no	n/a	n/a
1102.682129	n/a	282286.625	largeHSmallT	correct	incongruent	0.37549	no	H	T
1103.057617	n/a	282382.75	responseSmallT	correct	n/a	0.37549	no	n/a	n/a
1104.135254	n/a	282658.625	largeHSmallT	error	incongruent	0.33105	no	H	T
1104.466309	n/a	282743.375	responseSmallH	error	n/a	0.33105	no	n/a	n/a
