onset	duration	sample	value	stimulus	response_type	response_time
42.515625	n/a	10884	B	nontarget	n/a	n/a
44.1484375	n/a	11302	D	nontarget	n/a	n/a
45.73828125	n/a	11709	D	nontarget	n/a	n/a
47.3046875	n/a	12110	C	nontarget	n/a	n/a
48.875	n/a	12512	D	target	hit	714.8438
49.58984375	n/a	12695	rt	n/a	hit	714.8438
50.453125	n/a	12916	B	nontarget	n/a	n/a
52.0234375	n/a	13318	D	nontarget	false_alarm	1011.7188
53.03515625	n/a	13577	rt	n/a	false_alarm	1011.7188
53.58203125	n/a	13717	C	nontarget	n/a	n/a
55.14453125	n/a	14117	C	nontarget	n/a	n/a
56.71484375	n/a	14519	C	nontarget	n/a	n/a
58.27734375	n/a	14919	C	target	hit	566.4062
58.84375	n/a	15064	rt	n/a	hit	566.4062
59.8359375	n/a	15318	C	target	hit	382.8125
60.21875	n/a	15416	rt	n/a	hit	382.8125
61.39453125	n/a	15717	A	nontarget	n/a	n/a
62.95703125	n/a	16117	C	target	hit	1332.0312
64.2890625	n/a	16458	rt	n/a	hit	1332.0312
64.515625	n/a	16516	A	nontarget	n/a	n/a
66.078125	n/a	16916	C	nontarget	n/a	n/a
67.6484375	n/a	17318	A	nontarget	false_alarm	871.0938
68.51953125	n/a	17541	rt	n/a	false_alarm	871.0938
69.22265625	n/a	17721	B	nontarget	n/a	n/a
70.8046875	n/a	18126	D	nontarget	n/a	n/a
72.37109375	n/a	18527	C	nontarget	n/a	n/a
73.94140625	n/a	18929	B	target	hit	1500
75.44140625	n/a	19313	rt	n/a	hit	1500
75.51953125	n/a	19333	C	nontarget	false_alarm	968.75
76.48828125	n/a	19581	rt	n/a	false_alarm	968.75
77.07421875	n/a	19731	D	nontarget	n/a	n/a
78.63671875	n/a	20131	B	target	miss	n/a
80.1953125	n/a	20530	A	nontarget	miss	n/a
81.75390625	n/a	20929	C	nontarget	n/a	n/a
83.31640625	n/a	21329	B	target	miss	n/a
84.890625	n/a	21732	A	target	hit	1351.5625
86.2421875	n/a	22078	rt	n/a	hit	1351.5625
86.44921875	n/a	22131	C	target	miss	n/a
88.0234375	n/a	22534	B	target	miss	n/a
89.59375	n/a	22936	D	nontarget	miss	n/a
91.16796875	n/a	23339	B	nontarget	false_alarm	917.9688
92.0859375	n/a	23574	rt	n/a	false_alarm	917.9688
92.7421875	n/a	23742	A	nontarget	n/a	n/a
94.31640625	n/a	24145	B	nontarget	n/a	n/a
95.875	n/a	24544	A	nontarget	false_alarm	937.5
96.8125	n/a	24784	rt	n/a	false_alarm	937.5
97.4375	n/a	24944	D	nontarget	n/a	n/a
98.99609375	n/a	25343	A	nontarget	n/a	n/a
100.5546875	n/a	25742	D	nontarget	n/a	n/a
102.1171875	n/a	26142	B	nontarget	n/a	n/a
103.6757812	n/a	26541	A	target	miss	n/a
105.234375	n/a	26940	D	target	miss	n/a
106.796875	n/a	27340	A	nontarget	false_alarm	671.875
107.46875	n/a	27512	rt	n/a	false_alarm	671.875
108.3554688	n/a	27739	B	nontarget	false_alarm	1046.875
109.4023438	n/a	28007	rt	n/a	false_alarm	1046.875
109.9140625	n/a	28138	A	nontarget	n/a	n/a
111.4765625	n/a	28538	C	nontarget	n/a	n/a
113.0351562	n/a	28937	B	target	miss	n/a
114.59375	n/a	29336	B	nontarget	miss	n/a
116.15625	n/a	29736	A	nontarget	n/a	n/a
117.7148438	n/a	30135	B	target	miss	n/a
119.2734375	n/a	30534	C	nontarget	miss	n/a
120.8359375	n/a	30934	A	target	hit	882.8125
121.71875	n/a	31160	rt	n/a	hit	882.8125
122.3945312	n/a	31333	C	nontarget	false_alarm	1039.0625
123.4335938	n/a	31599	rt	n/a	false_alarm	1039.0625
123.953125	n/a	31732	A	nontarget	n/a	n/a
125.515625	n/a	32132	C	nontarget	n/a	n/a
127.0742188	n/a	32531	A	nontarget	n/a	n/a
128.6367188	n/a	32931	D	nontarget	n/a	n/a
130.1953125	n/a	33330	D	nontarget	n/a	n/a
131.7539062	n/a	33729	B	nontarget	n/a	n/a
133.3164062	n/a	34129	A	nontarget	false_alarm	988.2812
134.3046875	n/a	34382	rt	n/a	false_alarm	988.2812
134.875	n/a	34528	A	nontarget	n/a	n/a
136.4335938	n/a	34927	A	nontarget	n/a	n/a
137.9960938	n/a	35327	C	nontarget	n/a	n/a
139.5546875	n/a	35726	C	nontarget	n/a	n/a
141.1132812	n/a	36125	D	nontarget	n/a	n/a
142.6757812	n/a	36525	A	nontarget	false_alarm	804.6875
143.4804688	n/a	36731	rt	n/a	false_alarm	804.6875
144.234375	n/a	36924	B	nontarget	n/a	n/a
145.7929688	n/a	37323	C	nontarget	n/a	n/a
147.3554688	n/a	37723	C	nontarget	n/a	n/a
148.9140625	n/a	38122	B	target	hit	605.4688
149.5195312	n/a	38277	rt	n/a	hit	605.4688
150.4726562	n/a	38521	A	nontarget	n/a	n/a
152.0351562	n/a	38921	A	nontarget	n/a	n/a
153.59375	n/a	39320	A	nontarget	n/a	n/a
155.1523438	n/a	39719	C	nontarget	n/a	n/a
156.7148438	n/a	40119	B	nontarget	n/a	n/a
158.2734375	n/a	40518	B	nontarget	n/a	n/a
159.8359375	n/a	40918	B	nontarget	n/a	n/a
161.3945312	n/a	41317	A	nontarget	n/a	n/a
162.953125	n/a	41716	A	nontarget	n/a	n/a
164.515625	n/a	42116	D	nontarget	n/a	n/a
166.0742188	n/a	42515	D	nontarget	n/a	n/a
167.6328125	n/a	42914	D	nontarget	false_alarm	1226.5625
168.859375	n/a	43228	rt	n/a	false_alarm	1226.5625
169.1953125	n/a	43314	A	nontarget	n/a	n/a
170.7539062	n/a	43713	D	target	hit	1375
172.1289062	n/a	44065	rt	n/a	hit	1375
172.3125	n/a	44112	D	target	hit	894.5312
173.2070312	n/a	44341	rt	n/a	hit	894.5312
173.875	n/a	44512	A	target	hit	972.6562
174.8476562	n/a	44761	rt	n/a	hit	972.6562
175.4335938	n/a	44911	B	nontarget	n/a	n/a
176.9921875	n/a	45310	B	nontarget	n/a	n/a
178.5546875	n/a	45710	B	nontarget	n/a	n/a
180.1132812	n/a	46109	B	target	hit	433.5938
180.546875	n/a	46220	rt	n/a	hit	433.5938
181.6757812	n/a	46509	D	nontarget	n/a	n/a
183.234375	n/a	46908	A	nontarget	n/a	n/a
184.7929688	n/a	47307	B	target	hit	1000
185.7929688	n/a	47563	rt	n/a	hit	1000
186.3554688	n/a	47707	A	nontarget	n/a	n/a
187.9140625	n/a	48106	A	target	hit	1160.1562
189.0742188	n/a	48403	rt	n/a	hit	1160.1562
189.4726562	n/a	48505	D	nontarget	false_alarm	914.0625
190.3867188	n/a	48739	rt	n/a	false_alarm	914.0625
191.0351562	n/a	48905	B	nontarget	false_alarm	953.125
191.9882812	n/a	49149	rt	n/a	false_alarm	953.125
192.59375	n/a	49304	A	target	miss	n/a
194.1523438	n/a	49703	B	nontarget	miss	n/a
195.7148438	n/a	50103	A	nontarget	n/a	n/a
197.2734375	n/a	50502	C	nontarget	n/a	n/a
198.8320312	n/a	50901	A	nontarget	false_alarm	1128.9062
199.9609375	n/a	51190	rt	n/a	false_alarm	1128.9062
200.3945312	n/a	51301	B	nontarget	false_alarm	1335.9375
201.7304688	n/a	51643	rt	n/a	false_alarm	1335.9375
201.953125	n/a	51700	D	nontarget	n/a	n/a
203.515625	n/a	52100	A	target	miss	n/a
205.0742188	n/a	52499	D	nontarget	miss	n/a
206.6484375	n/a	52902	A	nontarget	n/a	n/a
208.2070312	n/a	53301	B	nontarget	n/a	n/a
209.78125	n/a	53704	C	nontarget	n/a	n/a
211.3515625	n/a	54106	A	target	hit	843.75
212.1953125	n/a	54322	rt	n/a	hit	843.75
212.9257812	n/a	54509	D	nontarget	n/a	n/a
214.5	n/a	54912	C	target	miss	n/a
216.0585938	n/a	55311	B	nontarget	miss	n/a
217.6210938	n/a	55711	D	target	hit	660.1562
218.28125	n/a	55880	rt	n/a	hit	660.1562
219.1796875	n/a	56110	A	nontarget	n/a	n/a
220.7382812	n/a	56509	B	target	miss	n/a
222.3007812	n/a	56909	C	nontarget	miss	n/a
223.859375	n/a	57308	A	target	miss	n/a
225.4335938	n/a	57711	A	nontarget	miss	n/a
226.9921875	n/a	58110	C	target	miss	n/a
228.5546875	n/a	58510	D	nontarget	miss	n/a
230.1132812	n/a	58909	D	nontarget	n/a	n/a
231.671875	n/a	59308	C	target	miss	n/a
233.234375	n/a	59708	A	nontarget	miss	n/a
234.7929688	n/a	60107	B	nontarget	n/a	n/a
236.3515625	n/a	60506	C	target	miss	n/a
237.9140625	n/a	60906	D	nontarget	miss	n/a
239.4726562	n/a	61305	C	nontarget	n/a	n/a
241.03125	n/a	61704	C	target	hit	156.25
241.1875	n/a	61744	rt	n/a	hit	156.25
242.59375	n/a	62104	D	target	hit	855.4688
243.4492188	n/a	62323	rt	n/a	hit	855.4688
244.1523438	n/a	62503	A	nontarget	n/a	n/a
245.7109375	n/a	62902	C	target	miss	n/a
247.2734375	n/a	63302	C	nontarget	miss	n/a
248.8320312	n/a	63701	C	nontarget	n/a	n/a
250.390625	n/a	64100	D	nontarget	n/a	n/a
251.953125	n/a	64500	B	nontarget	n/a	n/a
253.5117188	n/a	64899	B	nontarget	n/a	n/a
255.0703125	n/a	65298	D	target	miss	n/a
256.6328125	n/a	65698	B	target	miss	n/a
258.1914062	n/a	66097	B	target	miss	n/a
259.7539062	n/a	66497	C	nontarget	miss	n/a
261.3125	n/a	66896	D	nontarget	n/a	n/a
262.8710938	n/a	67295	C	nontarget	n/a	n/a
264.4335938	n/a	67695	C	target	hit	585.9375
265.0195312	n/a	67845	rt	n/a	hit	585.9375
265.9921875	n/a	68094	B	nontarget	n/a	n/a
267.5507812	n/a	68493	C	target	hit	816.4062
268.3671875	n/a	68702	rt	n/a	hit	816.4062
269.1132812	n/a	68893	D	nontarget	n/a	n/a
270.6835938	n/a	69295	C	nontarget	n/a	n/a
272.2460938	n/a	69695	C	target	miss	n/a
273.8046875	n/a	70094	C	nontarget	false_alarm	386.7188
274.1914062	n/a	70193	rt	n/a	false_alarm	386.7188
275.3789062	n/a	70497	A	nontarget	n/a	n/a
276.953125	n/a	70900	D	nontarget	n/a	n/a
278.5234375	n/a	71302	B	nontarget	n/a	n/a
280.0976562	n/a	71705	C	nontarget	n/a	n/a
281.6601562	n/a	72105	C	nontarget	n/a	n/a
283.234375	n/a	72508	A	nontarget	n/a	n/a
284.7929688	n/a	72907	C	target	hit	917.9688
285.7109375	n/a	73142	rt	n/a	hit	917.9688
286.3515625	n/a	73306	B	nontarget	n/a	n/a
287.9101562	n/a	73705	A	target	hit	1179.6875
289.0898438	n/a	74007	rt	n/a	hit	1179.6875
289.4726562	n/a	74105	A	nontarget	n/a	n/a
291.03125	n/a	74504	C	nontarget	n/a	n/a
292.5898438	n/a	74903	B	nontarget	n/a	n/a
294.1523438	n/a	75303	D	nontarget	n/a	n/a
295.7109375	n/a	75702	C	target	miss	n/a
297.2695312	n/a	76101	C	nontarget	false_alarm	609.375
297.8789062	n/a	76257	rt	n/a	false_alarm	609.375
298.8320312	n/a	76501	B	nontarget	n/a	n/a
300.390625	n/a	76900	D	nontarget	n/a	n/a
301.953125	n/a	77300	B	nontarget	n/a	n/a
303.5117188	n/a	77699	C	nontarget	n/a	n/a
305.0703125	n/a	78098	C	nontarget	n/a	n/a
306.6328125	n/a	78498	A	nontarget	n/a	n/a
308.1914062	n/a	78897	D	nontarget	n/a	n/a
309.75	n/a	79296	A	nontarget	false_alarm	1375
311.125	n/a	79648	rt	n/a	false_alarm	1375
311.3125	n/a	79696	C	nontarget	n/a	n/a
312.8710938	n/a	80095	A	nontarget	n/a	n/a
314.4296875	n/a	80494	A	target	hit	734.375
315.1640625	n/a	80682	rt	n/a	hit	734.375
315.9921875	n/a	80894	D	nontarget	false_alarm	917.9688
316.9101562	n/a	81129	rt	n/a	false_alarm	917.9688
317.5507812	n/a	81293	B	nontarget	n/a	n/a
319.109375	n/a	81692	D	nontarget	n/a	n/a
320.671875	n/a	82092	C	nontarget	n/a	n/a
322.2304688	n/a	82491	A	nontarget	n/a	n/a
323.7929688	n/a	82891	D	target	hit	1117.1875
324.9101562	n/a	83177	rt	n/a	hit	1117.1875
325.3515625	n/a	83290	A	nontarget	false_alarm	734.375
326.0859375	n/a	83478	rt	n/a	false_alarm	734.375
326.9101562	n/a	83689	D	nontarget	n/a	n/a
328.4726562	n/a	84089	D	target	miss	n/a
330.03125	n/a	84488	D	nontarget	false_alarm	394.5312
330.4257812	n/a	84589	rt	n/a	false_alarm	394.5312
331.5898438	n/a	84887	A	nontarget	false_alarm	750
332.3398438	n/a	85079	rt	n/a	false_alarm	750
333.1523438	n/a	85287	A	nontarget	n/a	n/a
334.7109375	n/a	85686	A	nontarget	n/a	n/a
336.2695312	n/a	86085	B	nontarget	n/a	n/a
337.8320312	n/a	86485	A	target	hit	757.8125
338.5898438	n/a	86679	rt	n/a	hit	757.8125
339.390625	n/a	86884	B	nontarget	false_alarm	886.7188
340.2773438	n/a	87111	rt	n/a	false_alarm	886.7188
340.9492188	n/a	87283	D	nontarget	n/a	n/a
342.5117188	n/a	87683	A	target	hit	1226.5625
343.7382812	n/a	87997	rt	n/a	hit	1226.5625
344.0703125	n/a	88082	C	nontarget	n/a	n/a
345.6289062	n/a	88481	D	target	miss	n/a
347.1914062	n/a	88881	C	nontarget	miss	n/a
348.75	n/a	89280	B	nontarget	n/a	n/a
350.3085938	n/a	89679	B	nontarget	n/a	n/a
351.8710938	n/a	90079	A	nontarget	n/a	n/a
353.4296875	n/a	90478	B	target	hit	882.8125
354.3125	n/a	90704	rt	n/a	hit	882.8125
354.9921875	n/a	90878	B	target	hit	1253.9062
356.2460938	n/a	91199	rt	n/a	hit	1253.9062
356.5507812	n/a	91277	A	target	hit	656.25
357.2070312	n/a	91445	rt	n/a	hit	656.25
358.109375	n/a	91676	C	nontarget	n/a	n/a
359.671875	n/a	92076	B	target	miss	n/a
361.2304688	n/a	92475	B	nontarget	false_alarm	1007.8125
362.2382812	n/a	92733	rt	n/a	false_alarm	1007.8125
362.7890625	n/a	92874	C	target	hit	800.7812
363.5898438	n/a	93079	rt	n/a	hit	800.7812
364.3632812	n/a	93277	D	nontarget	n/a	n/a
365.9375	n/a	93680	B	target	hit	1039.0625
366.9765625	n/a	93946	rt	n/a	hit	1039.0625
367.5117188	n/a	94083	B	nontarget	n/a	n/a
369.0820312	n/a	94485	C	nontarget	n/a	n/a
370.65625	n/a	94888	B	target	hit	1531.25
372.1875	n/a	95280	rt	n/a	hit	1531.25
372.265625	n/a	95300	C	nontarget	n/a	n/a
373.828125	n/a	95700	B	nontarget	n/a	n/a
375.4023438	n/a	96103	A	nontarget	n/a	n/a
376.9765625	n/a	96506	D	nontarget	n/a	n/a
378.5507812	n/a	96909	D	nontarget	n/a	n/a
380.125	n/a	97312	A	target	hit	753.9062
380.8789062	n/a	97505	rt	n/a	hit	753.9062
381.6835938	n/a	97711	C	nontarget	n/a	n/a
383.2421875	n/a	98110	A	nontarget	false_alarm	1187.5
384.4296875	n/a	98414	rt	n/a	false_alarm	1187.5
384.8046875	n/a	98510	B	nontarget	n/a	n/a
386.3632812	n/a	98909	D	nontarget	n/a	n/a
387.921875	n/a	99308	C	nontarget	n/a	n/a
389.484375	n/a	99708	B	target	hit	640.625
390.125	n/a	99872	rt	n/a	hit	640.625
391.0429688	n/a	100107	B	nontarget	n/a	n/a
392.6015625	n/a	100506	D	nontarget	n/a	n/a
394.1640625	n/a	100906	D	nontarget	n/a	n/a
395.7226562	n/a	101305	A	nontarget	n/a	n/a
397.28125	n/a	101704	B	nontarget	n/a	n/a
398.84375	n/a	102104	D	target	miss	n/a
400.4023438	n/a	102503	D	nontarget	miss	n/a
401.9609375	n/a	102902	D	nontarget	false_alarm	500
402.4609375	n/a	103030	rt	n/a	false_alarm	500
403.5234375	n/a	103302	A	nontarget	n/a	n/a
405.0820312	n/a	103701	D	target	miss	n/a
406.6445312	n/a	104101	D	target	miss	n/a
408.203125	n/a	104500	A	target	hit	910.1562
409.1132812	n/a	104733	rt	n/a	hit	910.1562
409.7617188	n/a	104899	A	nontarget	n/a	n/a
411.3242188	n/a	105299	B	nontarget	n/a	n/a
412.8828125	n/a	105698	D	nontarget	n/a	n/a
414.4414062	n/a	106097	B	nontarget	false_alarm	960.9375
415.4023438	n/a	106343	rt	n/a	false_alarm	960.9375
416.0039062	n/a	106497	D	nontarget	false_alarm	1375
417.3789062	n/a	106849	rt	n/a	false_alarm	1375
417.5625	n/a	106896	C	nontarget	n/a	n/a
419.1210938	n/a	107295	A	nontarget	n/a	n/a
420.6835938	n/a	107695	C	nontarget	n/a	n/a
422.2421875	n/a	108094	A	nontarget	n/a	n/a
423.8007812	n/a	108493	A	target	hit	1515.625
425.3164062	n/a	108881	rt	n/a	hit	1515.625
425.3828125	n/a	108898	D	nontarget	n/a	n/a
426.9492188	n/a	109299	D	nontarget	n/a	n/a
428.5234375	n/a	109702	D	nontarget	n/a	n/a
430.09375	n/a	110104	D	target	hit	417.9688
430.5117188	n/a	110211	rt	n/a	hit	417.9688
431.6679688	n/a	110507	A	nontarget	n/a	n/a
433.2421875	n/a	110910	C	nontarget	n/a	n/a
434.8007812	n/a	111309	A	nontarget	n/a	n/a
436.3632812	n/a	111709	C	nontarget	false_alarm	1015.625
437.3789062	n/a	111969	rt	n/a	false_alarm	1015.625
437.921875	n/a	112108	A	nontarget	n/a	n/a
439.4804688	n/a	112507	D	nontarget	n/a	n/a
441.0429688	n/a	112907	B	nontarget	n/a	n/a
442.6015625	n/a	113306	B	nontarget	n/a	n/a
444.1601562	n/a	113705	D	target	miss	n/a
445.7226562	n/a	114105	D	nontarget	miss	n/a
447.28125	n/a	114504	C	nontarget	n/a	n/a
448.8398438	n/a	114903	D	target	hit	667.9688
449.5078125	n/a	115074	rt	n/a	hit	667.9688
450.4023438	n/a	115303	D	target	hit	480.4688
450.8828125	n/a	115426	rt	n/a	hit	480.4688
451.9609375	n/a	115702	C	target	hit	703.125
452.6640625	n/a	115882	rt	n/a	hit	703.125
453.5234375	n/a	116102	D	target	hit	859.375
454.3828125	n/a	116322	rt	n/a	hit	859.375
455.0820312	n/a	116501	A	nontarget	n/a	n/a
456.640625	n/a	116900	D	nontarget	false_alarm	1320.3125
457.9609375	n/a	117238	rt	n/a	false_alarm	1320.3125
458.203125	n/a	117300	D	target	hit	1070.3125
459.2734375	n/a	117574	rt	n/a	hit	1070.3125
459.7617188	n/a	117699	D	nontarget	n/a	n/a
461.3203125	n/a	118098	A	nontarget	n/a	n/a
462.8828125	n/a	118498	D	target	hit	1093.75
463.9765625	n/a	118778	rt	n/a	hit	1093.75
464.4414062	n/a	118897	C	nontarget	n/a	n/a
466	n/a	119296	D	nontarget	n/a	n/a
467.5625	n/a	119696	B	nontarget	n/a	n/a
469.1210938	n/a	120095	A	nontarget	n/a	n/a
470.6796875	n/a	120494	B	nontarget	n/a	n/a
472.2421875	n/a	120894	D	nontarget	n/a	n/a
473.8007812	n/a	121293	A	target	hit	1160.1562
474.9609375	n/a	121590	rt	n/a	hit	1160.1562
475.359375	n/a	121692	D	nontarget	n/a	n/a
476.921875	n/a	122092	D	target	miss	n/a
478.4804688	n/a	122491	C	nontarget	false_alarm	335.9375
478.8164062	n/a	122577	rt	n/a	false_alarm	335.9375
