onset	duration	sample	value	response_type	congruence	response_time	response_out_of_range	largeletter	smallletter
23.94921875	n/a	6131	largeHSmallT	correct	incongruent	0.73047	no	H	T
24.6796875	n/a	6318	responseLargeH	correct	n/a	0.73047	no	n/a	n/a
25.74609375	n/a	6591	largeTSmallT	correct	congruent	0.5	no	T	T
26.24609375	n/a	6719	responseLargeT	correct	n/a	0.5	no	n/a	n/a
27.3203125	n/a	6994	largeHSmallH	correct	congruent	0.48438	no	H	H
27.8046875	n/a	7118	responseLargeH	correct	n/a	0.48438	no	n/a	n/a
28.87890625	n/a	7393	largeHSmallH	correct	congruent	0.46484	no	H	H
29.34375	n/a	7512	responseLargeH	correct	n/a	0.46484	no	n/a	n/a
30.4140625	n/a	7786	largeHSmallH	correct	congruent	0.41406	no	H	H
30.828125	n/a	7892	responseLargeH	correct	n/a	0.41406	no	n/a	n/a
31.90625	n/a	8168	largeHSmallT	correct	incongruent	0.41016	no	H	T
32.31640625	n/a	8273	responseLargeH	correct	n/a	0.41016	no	n/a	n/a
33.38671875	n/a	8547	largeHSmallT	correct	incongruent	0.46484	no	H	T
33.8515625	n/a	8666	responseLargeH	correct	n/a	0.46484	no	n/a	n/a
34.91796875	n/a	8939	largeTSmallT	correct	congruent	0.53906	no	T	T
35.45703125	n/a	9077	responseLargeT	correct	n/a	0.53906	no	n/a	n/a
36.51953125	n/a	9349	largeTSmallT	correct	congruent	0.44531	no	T	T
36.96484375	n/a	9463	responseLargeT	correct	n/a	0.44531	no	n/a	n/a
38.0390625	n/a	9738	largeTSmallH	correct	incongruent	0.54688	no	T	H
38.5859375	n/a	9878	responseLargeT	correct	n/a	0.54688	no	n/a	n/a
39.65234375	n/a	10151	largeHSmallH	correct	congruent	0.46875	no	H	H
40.12109375	n/a	10271	responseLargeH	correct	n/a	0.46875	no	n/a	n/a
41.1875	n/a	10544	largeTSmallT	correct	congruent	0.46875	no	T	T
41.65625	n/a	10664	responseLargeT	correct	n/a	0.46875	no	n/a	n/a
42.73046875	n/a	10939	largeHSmallT	correct	incongruent	0.49609	no	H	T
43.2265625	n/a	11066	responseLargeH	correct	n/a	0.49609	no	n/a	n/a
44.29296875	n/a	11339	largeHSmallH	correct	congruent	0.44141	no	H	H
44.734375	n/a	11452	responseLargeH	correct	n/a	0.44141	no	n/a	n/a
45.796875	n/a	11724	largeTSmallT	correct	congruent	0.52344	no	T	T
46.3203125	n/a	11858	responseLargeT	correct	n/a	0.52344	no	n/a	n/a
47.37109375	n/a	12127	largeHSmallH	correct	congruent	0.41016	no	H	H
47.78125	n/a	12232	responseLargeH	correct	n/a	0.41016	no	n/a	n/a
48.8515625	n/a	12506	largeHSmallT	correct	incongruent	0.42969	no	H	T
49.28125	n/a	12616	responseLargeH	correct	n/a	0.42969	no	n/a	n/a
50.34375	n/a	12888	largeHSmallT	correct	incongruent	0.41016	no	H	T
50.75390625	n/a	12993	responseLargeH	correct	n/a	0.41016	no	n/a	n/a
51.82421875	n/a	13267	largeTSmallT	correct	congruent	0.41797	no	T	T
52.2421875	n/a	13374	responseLargeT	correct	n/a	0.41797	no	n/a	n/a
53.3046875	n/a	13646	largeHSmallT	correct	incongruent	0.48047	no	H	T
53.78515625	n/a	13769	responseLargeH	correct	n/a	0.48047	no	n/a	n/a
54.8515625	n/a	14042	largeTSmallH	correct	incongruent	0.49609	no	T	H
55.34765625	n/a	14169	responseLargeT	correct	n/a	0.49609	no	n/a	n/a
56.41015625	n/a	14441	largeHSmallT	correct	incongruent	0.46484	no	H	T
56.875	n/a	14560	responseLargeH	correct	n/a	0.46484	no	n/a	n/a
57.9453125	n/a	14834	largeHSmallT	correct	incongruent	0.47656	no	H	T
58.421875	n/a	14956	responseLargeH	correct	n/a	0.47656	no	n/a	n/a
59.4765625	n/a	15226	largeHSmallH	correct	congruent	0.46875	no	H	H
59.9453125	n/a	15346	responseLargeH	correct	n/a	0.46875	no	n/a	n/a
61.01171875	n/a	15619	largeHSmallT	correct	incongruent	0.36719	no	H	T
61.37890625	n/a	15713	responseLargeH	correct	n/a	0.36719	no	n/a	n/a
62.453125	n/a	15988	largeTSmallT	correct	congruent	0.5	no	T	T
62.953125	n/a	16116	responseLargeT	correct	n/a	0.5	no	n/a	n/a
64.0234375	n/a	16390	largeHSmallH	correct	congruent	0.44141	no	H	H
64.46484375	n/a	16503	responseLargeH	correct	n/a	0.44141	no	n/a	n/a
65.546875	n/a	16780	largeHSmallT	correct	incongruent	0.44141	no	H	T
65.98828125	n/a	16893	responseLargeH	correct	n/a	0.44141	no	n/a	n/a
67.05078125	n/a	17165	largeHSmallH	correct	congruent	0.43359	no	H	H
67.484375	n/a	17276	responseLargeH	correct	n/a	0.43359	no	n/a	n/a
68.546875	n/a	17548	largeTSmallH	correct	incongruent	0.45312	no	T	H
69	n/a	17664	responseLargeT	correct	n/a	0.45312	no	n/a	n/a
70.06640625	n/a	17937	largeHSmallH	correct	congruent	0.43359	no	H	H
70.5	n/a	18048	responseLargeH	correct	n/a	0.43359	no	n/a	n/a
71.5703125	n/a	18322	largeTSmallH	correct	incongruent	0.48438	no	T	H
72.0546875	n/a	18446	responseLargeT	correct	n/a	0.48438	no	n/a	n/a
73.1171875	n/a	18718	largeHSmallH	correct	congruent	0.45703	no	H	H
73.57421875	n/a	18835	responseLargeH	correct	n/a	0.45703	no	n/a	n/a
74.65234375	n/a	19111	largeHSmallT	correct	incongruent	0.5	no	H	T
75.15234375	n/a	19239	responseLargeH	correct	n/a	0.5	no	n/a	n/a
76.2265625	n/a	19514	largeHSmallT	correct	incongruent	0.44531	no	H	T
76.671875	n/a	19628	responseLargeH	correct	n/a	0.44531	no	n/a	n/a
77.74609375	n/a	19903	largeTSmallT	correct	congruent	0.42969	no	T	T
78.17578125	n/a	20013	responseLargeT	correct	n/a	0.42969	no	n/a	n/a
79.25	n/a	20288	largeTSmallH	correct	incongruent	0.49219	no	T	H
79.7421875	n/a	20414	responseLargeT	correct	n/a	0.49219	no	n/a	n/a
80.8125	n/a	20688	largeTSmallH	correct	incongruent	0.44922	no	T	H
81.26171875	n/a	20803	responseLargeT	correct	n/a	0.44922	no	n/a	n/a
82.31640625	n/a	21073	largeTSmallH	correct	incongruent	0.40625	no	T	H
82.72265625	n/a	21177	responseLargeT	correct	n/a	0.40625	no	n/a	n/a
83.78515625	n/a	21449	largeHSmallT	correct	incongruent	0.46094	no	H	T
84.24609375	n/a	21567	responseLargeH	correct	n/a	0.46094	no	n/a	n/a
85.31640625	n/a	21841	largeTSmallH	correct	incongruent	0.50781	no	T	H
85.82421875	n/a	21971	responseLargeT	correct	n/a	0.50781	no	n/a	n/a
86.890625	n/a	22244	largeHSmallT	correct	incongruent	0.42969	no	H	T
87.3203125	n/a	22354	responseLargeH	correct	n/a	0.42969	no	n/a	n/a
88.3828125	n/a	22626	largeTSmallH	correct	incongruent	0.42969	no	T	H
88.8125	n/a	22736	responseLargeT	correct	n/a	0.42969	no	n/a	n/a
89.87890625	n/a	23009	largeHSmallH	correct	congruent	0.41016	no	H	H
90.2890625	n/a	23114	responseLargeH	correct	n/a	0.41016	no	n/a	n/a
91.359375	n/a	23388	largeHSmallT	error	incongruent	0.44531	no	H	T
91.8046875	n/a	23502	responseLargeT	error	n/a	0.44531	no	n/a	n/a
92.86328125	n/a	23773	largeHSmallH	correct	congruent	0.52344	no	H	H
93.38671875	n/a	23907	responseLargeH	correct	n/a	0.52344	no	n/a	n/a
94.46484375	n/a	24183	largeTSmallT	correct	congruent	0.5	no	T	T
94.96484375	n/a	24311	responseLargeT	correct	n/a	0.5	no	n/a	n/a
96.0390625	n/a	24586	largeTSmallT	correct	congruent	0.48438	no	T	T
96.5234375	n/a	24710	responseLargeT	correct	n/a	0.48438	no	n/a	n/a
97.59765625	n/a	24985	largeHSmallT	correct	incongruent	0.57812	no	H	T
98.17578125	n/a	25133	responseLargeH	correct	n/a	0.57812	no	n/a	n/a
99.25	n/a	25408	largeTSmallH	correct	incongruent	0.50781	no	T	H
99.7578125	n/a	25538	responseLargeT	correct	n/a	0.50781	no	n/a	n/a
100.8242188	n/a	25811	largeHSmallH	correct	congruent	0.44922	no	H	H
101.2734375	n/a	25926	responseLargeH	correct	n/a	0.44922	no	n/a	n/a
102.3320312	n/a	26197	largeTSmallT	correct	congruent	0.57812	no	T	T
102.9101562	n/a	26345	responseLargeT	correct	n/a	0.57812	no	n/a	n/a
103.9726562	n/a	26617	largeTSmallT	correct	congruent	0.44531	no	T	T
104.4179688	n/a	26731	responseLargeT	correct	n/a	0.44531	no	n/a	n/a
105.4921875	n/a	27006	largeHSmallH	correct	congruent	0.46094	no	H	H
105.953125	n/a	27124	responseLargeH	correct	n/a	0.46094	no	n/a	n/a
107.0234375	n/a	27398	largeTSmallT	correct	congruent	0.45312	no	T	T
107.4765625	n/a	27514	responseLargeT	correct	n/a	0.45312	no	n/a	n/a
108.5429688	n/a	27787	largeTSmallT	correct	congruent	0.42188	no	T	T
108.9648438	n/a	27895	responseLargeT	correct	n/a	0.42188	no	n/a	n/a
110.0234375	n/a	28166	largeHSmallT	correct	incongruent	0.45312	no	H	T
110.4765625	n/a	28282	responseLargeH	correct	n/a	0.45312	no	n/a	n/a
111.5429688	n/a	28555	largeHSmallT	correct	incongruent	0.45703	no	H	T
112	n/a	28672	responseLargeH	correct	n/a	0.45703	no	n/a	n/a
113.078125	n/a	28948	largeTSmallT	correct	congruent	0.48828	no	T	T
113.5664062	n/a	29073	responseLargeT	correct	n/a	0.48828	no	n/a	n/a
114.6367188	n/a	29347	largeTSmallT	correct	congruent	0.46094	no	T	T
115.0976562	n/a	29465	responseLargeT	correct	n/a	0.46094	no	n/a	n/a
116.15625	n/a	29736	largeHSmallT	correct	incongruent	0.51953	no	H	T
116.6757812	n/a	29869	responseLargeH	correct	n/a	0.51953	no	n/a	n/a
117.7578125	n/a	30146	largeHSmallH	correct	congruent	0.42578	no	H	H
118.1835938	n/a	30255	responseLargeH	correct	n/a	0.42578	no	n/a	n/a
119.25	n/a	30528	largeHSmallT	correct	incongruent	0.48047	no	H	T
119.7304688	n/a	30651	responseLargeH	correct	n/a	0.48047	no	n/a	n/a
120.796875	n/a	30924	largeTSmallT	correct	congruent	0.46484	no	T	T
121.2617188	n/a	31043	responseLargeT	correct	n/a	0.46484	no	n/a	n/a
122.34375	n/a	31320	largeTSmallH	correct	incongruent	0.59766	no	T	H
122.9414062	n/a	31473	responseLargeT	correct	n/a	0.59766	no	n/a	n/a
124.0117188	n/a	31747	largeHSmallH	correct	congruent	0.50391	no	H	H
124.515625	n/a	31876	responseLargeH	correct	n/a	0.50391	no	n/a	n/a
125.5820312	n/a	32149	largeTSmallT	correct	congruent	0.48438	no	T	T
126.0664062	n/a	32273	responseLargeT	correct	n/a	0.48438	no	n/a	n/a
127.1445312	n/a	32549	largeTSmallH	correct	incongruent	0.53516	no	T	H
127.6796875	n/a	32686	responseLargeT	correct	n/a	0.53516	no	n/a	n/a
128.7421875	n/a	32958	largeTSmallT	correct	congruent	0.44531	no	T	T
129.1875	n/a	33072	responseLargeT	correct	n/a	0.44531	no	n/a	n/a
130.265625	n/a	33348	largeTSmallH	correct	incongruent	0.42188	no	T	H
130.6875	n/a	33456	responseLargeT	correct	n/a	0.42188	no	n/a	n/a
131.7578125	n/a	33730	largeHSmallH	correct	congruent	0.46875	no	H	H
132.2265625	n/a	33850	responseLargeH	correct	n/a	0.46875	no	n/a	n/a
133.2890625	n/a	34122	largeHSmallT	correct	incongruent	0.41016	no	H	T
133.6992188	n/a	34227	responseLargeH	correct	n/a	0.41016	no	n/a	n/a
134.7695312	n/a	34501	largeTSmallH	correct	incongruent	0.41016	no	T	H
135.1796875	n/a	34606	responseLargeT	correct	n/a	0.41016	no	n/a	n/a
136.25	n/a	34880	largeHSmallH	correct	congruent	0.39453	no	H	H
136.6445312	n/a	34981	responseLargeH	correct	n/a	0.39453	no	n/a	n/a
137.71875	n/a	35256	largeTSmallH	correct	incongruent	0.40234	no	T	H
138.1210938	n/a	35359	responseLargeT	correct	n/a	0.40234	no	n/a	n/a
139.1835938	n/a	35631	largeTSmallT	correct	congruent	0.51953	no	T	T
139.703125	n/a	35764	responseLargeT	correct	n/a	0.51953	no	n/a	n/a
140.7851562	n/a	36041	largeHSmallH	correct	congruent	0.42188	no	H	H
141.2070312	n/a	36149	responseLargeH	correct	n/a	0.42188	no	n/a	n/a
142.2773438	n/a	36423	largeTSmallH	correct	incongruent	0.46094	no	T	H
142.7382812	n/a	36541	responseLargeT	correct	n/a	0.46094	no	n/a	n/a
143.796875	n/a	36812	largeHSmallT	error	incongruent	0.45703	no	H	T
144.2539062	n/a	36929	responseLargeT	error	n/a	0.45703	no	n/a	n/a
145.3164062	n/a	37201	largeHSmallH	correct	congruent	0.62109	no	H	H
145.9375	n/a	37360	responseLargeH	correct	n/a	0.62109	no	n/a	n/a
146.9960938	n/a	37631	largeHSmallT	correct	incongruent	0.51172	no	H	T
147.5078125	n/a	37762	responseLargeH	correct	n/a	0.51172	no	n/a	n/a
148.5820312	n/a	38037	largeTSmallH	correct	incongruent	0.52344	no	T	H
149.1054688	n/a	38171	responseLargeT	correct	n/a	0.52344	no	n/a	n/a
150.171875	n/a	38444	largeHSmallT	correct	incongruent	0.65234	no	H	T
150.8242188	n/a	38611	responseLargeH	correct	n/a	0.65234	no	n/a	n/a
151.9023438	n/a	38887	largeTSmallT	correct	congruent	0.53516	no	T	T
152.4375	n/a	39024	responseLargeT	correct	n/a	0.53516	no	n/a	n/a
153.5039062	n/a	39297	largeHSmallH	correct	congruent	0.60547	no	H	H
154.109375	n/a	39452	responseLargeH	correct	n/a	0.60547	no	n/a	n/a
155.1679688	n/a	39723	largeHSmallH	correct	congruent	0.48828	no	H	H
155.65625	n/a	39848	responseLargeH	correct	n/a	0.48828	no	n/a	n/a
156.7148438	n/a	40119	largeTSmallT	correct	congruent	0.65625	no	T	T
157.3710938	n/a	40287	responseLargeT	correct	n/a	0.65625	no	n/a	n/a
158.4375	n/a	40560	largeHSmallT	correct	incongruent	0.42578	no	H	T
158.8632812	n/a	40669	responseLargeH	correct	n/a	0.42578	no	n/a	n/a
159.9296875	n/a	40942	largeHSmallT	correct	incongruent	0.53516	no	H	T
160.4648438	n/a	41079	responseLargeH	correct	n/a	0.53516	no	n/a	n/a
161.5429688	n/a	41355	largeHSmallH	correct	congruent	0.44922	no	H	H
161.9921875	n/a	41470	responseLargeH	correct	n/a	0.44922	no	n/a	n/a
163.0507812	n/a	41741	largeHSmallH	correct	congruent	0.51953	no	H	H
163.5703125	n/a	41874	responseLargeH	correct	n/a	0.51953	no	n/a	n/a
164.6484375	n/a	42150	largeTSmallH	correct	incongruent	0.46484	no	T	H
165.1132812	n/a	42269	responseLargeT	correct	n/a	0.46484	no	n/a	n/a
166.1679688	n/a	42539	largeHSmallT	correct	incongruent	0.48438	no	H	T
166.6523438	n/a	42663	responseLargeH	correct	n/a	0.48438	no	n/a	n/a
167.7148438	n/a	42935	largeHSmallT	correct	incongruent	0.52734	no	H	T
168.2421875	n/a	43070	responseLargeH	correct	n/a	0.52734	no	n/a	n/a
169.3007812	n/a	43341	largeHSmallT	correct	incongruent	0.42969	no	H	T
169.7304688	n/a	43451	responseLargeH	correct	n/a	0.42969	no	n/a	n/a
170.796875	n/a	43724	largeHSmallH	correct	congruent	0.40234	no	H	H
171.1992188	n/a	43827	responseLargeH	correct	n/a	0.40234	no	n/a	n/a
172.2773438	n/a	44103	largeHSmallH	correct	congruent	0.41406	no	H	H
172.6914062	n/a	44209	responseLargeH	correct	n/a	0.41406	no	n/a	n/a
173.7578125	n/a	44482	largeTSmallH	correct	incongruent	0.45703	no	T	H
174.2148438	n/a	44599	responseLargeT	correct	n/a	0.45703	no	n/a	n/a
175.2890625	n/a	44874	largeHSmallT	correct	incongruent	0.44531	no	H	T
175.734375	n/a	44988	responseLargeH	correct	n/a	0.44531	no	n/a	n/a
176.796875	n/a	45260	largeTSmallT	correct	congruent	0.57422	no	T	T
177.3710938	n/a	45407	responseLargeT	correct	n/a	0.57422	no	n/a	n/a
178.4375	n/a	45680	largeTSmallT	correct	congruent	0.46875	no	T	T
178.90625	n/a	45800	responseLargeT	correct	n/a	0.46875	no	n/a	n/a
179.984375	n/a	46076	largeTSmallT	correct	congruent	0.42969	no	T	T
180.4140625	n/a	46186	responseLargeT	correct	n/a	0.42969	no	n/a	n/a
181.4765625	n/a	46458	largeTSmallH	correct	incongruent	0.42969	no	T	H
181.90625	n/a	46568	responseLargeT	correct	n/a	0.42969	no	n/a	n/a
182.96875	n/a	46840	largeTSmallT	correct	congruent	0.42188	no	T	T
183.390625	n/a	46948	responseLargeT	correct	n/a	0.42188	no	n/a	n/a
184.4609375	n/a	47222	largeTSmallH	correct	incongruent	0.61719	no	T	H
185.078125	n/a	47380	responseLargeT	correct	n/a	0.61719	no	n/a	n/a
186.140625	n/a	47652	largeTSmallH	correct	incongruent	0.48438	no	T	H
186.625	n/a	47776	responseLargeT	correct	n/a	0.48438	no	n/a	n/a
187.6875	n/a	48048	largeHSmallT	correct	incongruent	0.48828	no	H	T
188.1757812	n/a	48173	responseLargeH	correct	n/a	0.48828	no	n/a	n/a
189.25	n/a	48448	largeHSmallH	correct	congruent	0.48438	no	H	H
189.734375	n/a	48572	responseLargeH	correct	n/a	0.48438	no	n/a	n/a
190.8085938	n/a	48847	largeTSmallH	correct	incongruent	0.5	no	T	H
191.3085938	n/a	48975	responseLargeT	correct	n/a	0.5	no	n/a	n/a
192.3828125	n/a	49250	largeHSmallH	correct	congruent	0.55078	no	H	H
192.9335938	n/a	49391	responseLargeH	correct	n/a	0.55078	no	n/a	n/a
194.0078125	n/a	49666	largeTSmallT	correct	congruent	0.49219	no	T	T
194.5	n/a	49792	responseLargeT	correct	n/a	0.49219	no	n/a	n/a
195.5703125	n/a	50066	largeHSmallT	correct	incongruent	0.54297	no	H	T
196.1132812	n/a	50205	responseLargeH	correct	n/a	0.54297	no	n/a	n/a
197.1835938	n/a	50479	largeHSmallH	correct	congruent	0.50391	no	H	H
197.6875	n/a	50608	responseLargeH	correct	n/a	0.50391	no	n/a	n/a
198.7539062	n/a	50881	largeTSmallH	correct	incongruent	0.46875	no	T	H
199.2226562	n/a	51001	responseLargeT	correct	n/a	0.46875	no	n/a	n/a
200.2890625	n/a	51274	largeTSmallH	correct	incongruent	0.46484	no	T	H
200.7539062	n/a	51393	responseLargeT	correct	n/a	0.46484	no	n/a	n/a
201.8203125	n/a	51666	largeTSmallH	correct	incongruent	0.41797	no	T	H
202.2382812	n/a	51773	responseLargeT	correct	n/a	0.41797	no	n/a	n/a
203.3007812	n/a	52045	largeTSmallT	correct	congruent	0.39453	no	T	T
203.6953125	n/a	52146	responseLargeT	correct	n/a	0.39453	no	n/a	n/a
204.7695312	n/a	52421	largeHSmallT	correct	incongruent	0.51953	no	H	T
205.2890625	n/a	52554	responseLargeH	correct	n/a	0.51953	no	n/a	n/a
206.3554688	n/a	52827	largeHSmallH	correct	congruent	0.48438	no	H	H
206.8398438	n/a	52951	responseLargeH	correct	n/a	0.48438	no	n/a	n/a
207.9023438	n/a	53223	largeTSmallT	correct	congruent	0.48828	no	T	T
208.390625	n/a	53348	responseLargeT	correct	n/a	0.48828	no	n/a	n/a
209.4609375	n/a	53622	largeTSmallH	error	incongruent	0.64453	no	T	H
210.1054688	n/a	53787	responseLargeH	error	n/a	0.64453	no	n/a	n/a
211.1835938	n/a	54063	largeHSmallT	correct	incongruent	0.64062	no	H	T
211.8242188	n/a	54227	responseLargeH	correct	n/a	0.64062	no	n/a	n/a
212.9023438	n/a	54503	largeHSmallH	correct	congruent	0.48438	no	H	H
213.3867188	n/a	54627	responseLargeH	correct	n/a	0.48438	no	n/a	n/a
214.4609375	n/a	54902	largeHSmallT	correct	incongruent	0.44141	no	H	T
214.9023438	n/a	55015	responseLargeH	correct	n/a	0.44141	no	n/a	n/a
215.96875	n/a	55288	largeHSmallH	correct	congruent	0.41406	no	H	H
216.3828125	n/a	55394	responseLargeH	correct	n/a	0.41406	no	n/a	n/a
217.4492188	n/a	55667	largeTSmallH	correct	incongruent	0.72656	no	T	H
218.1757812	n/a	55853	responseLargeT	correct	n/a	0.72656	no	n/a	n/a
219.25	n/a	56128	largeTSmallT	correct	congruent	0.50781	no	T	T
219.7578125	n/a	56258	responseLargeT	correct	n/a	0.50781	no	n/a	n/a
220.8203125	n/a	56530	largeTSmallT	correct	congruent	0.53516	no	T	T
221.3554688	n/a	56667	responseLargeT	correct	n/a	0.53516	no	n/a	n/a
222.421875	n/a	56940	largeTSmallH	correct	incongruent	0.60938	no	T	H
223.03125	n/a	57096	responseLargeT	correct	n/a	0.60938	no	n/a	n/a
224.1015625	n/a	57370	largeTSmallT	correct	congruent	0.46484	no	T	T
224.5664062	n/a	57489	responseLargeT	correct	n/a	0.46484	no	n/a	n/a
225.6484375	n/a	57766	largeHSmallH	correct	congruent	0.50391	no	H	H
226.1523438	n/a	57895	responseLargeH	correct	n/a	0.50391	no	n/a	n/a
227.2226562	n/a	58169	largeTSmallH	correct	incongruent	0.69922	no	T	H
227.921875	n/a	58348	responseLargeT	correct	n/a	0.69922	no	n/a	n/a
228.9960938	n/a	58623	largeTSmallH	correct	incongruent	0.49219	no	T	H
229.4882812	n/a	58749	responseLargeT	correct	n/a	0.49219	no	n/a	n/a
230.5546875	n/a	59022	largeTSmallT	correct	congruent	0.58594	no	T	T
231.140625	n/a	59172	responseLargeT	correct	n/a	0.58594	no	n/a	n/a
232.2070312	n/a	59445	largeTSmallH	correct	incongruent	0.57031	no	T	H
232.7773438	n/a	59591	responseLargeT	correct	n/a	0.57031	no	n/a	n/a
233.8476562	n/a	59865	largeTSmallH	correct	incongruent	0.49609	no	T	H
234.34375	n/a	59992	responseLargeT	correct	n/a	0.49609	no	n/a	n/a
235.40625	n/a	60264	largeTSmallH	correct	incongruent	0.41016	no	T	H
235.8164062	n/a	60369	responseLargeT	correct	n/a	0.41016	no	n/a	n/a
236.8867188	n/a	60643	largeHSmallH	correct	congruent	0.45703	no	H	H
237.34375	n/a	60760	responseLargeH	correct	n/a	0.45703	no	n/a	n/a
238.421875	n/a	61036	largeTSmallH	correct	incongruent	0.50391	no	T	H
238.9257812	n/a	61165	responseLargeT	correct	n/a	0.50391	no	n/a	n/a
239.9960938	n/a	61439	largeTSmallT	correct	congruent	0.48828	no	T	T
240.484375	n/a	61564	responseLargeT	correct	n/a	0.48828	no	n/a	n/a
241.5546875	n/a	61838	largeTSmallH	correct	incongruent	0.48047	no	T	H
242.0351562	n/a	61961	responseLargeT	correct	n/a	0.48047	no	n/a	n/a
243.1015625	n/a	62234	largeTSmallT	correct	congruent	0.39453	no	T	T
243.4960938	n/a	62335	responseLargeT	correct	n/a	0.39453	no	n/a	n/a
244.5664062	n/a	62609	largeTSmallT	correct	congruent	0.44922	no	T	T
245.015625	n/a	62724	responseLargeT	correct	n/a	0.44922	no	n/a	n/a
246.0742188	n/a	62995	largeHSmallH	correct	congruent	0.53516	no	H	H
246.609375	n/a	63132	responseLargeH	correct	n/a	0.53516	no	n/a	n/a
247.6875	n/a	63408	largeHSmallT	correct	incongruent	0.39062	no	H	T
248.078125	n/a	63508	responseLargeH	correct	n/a	0.39062	no	n/a	n/a
249.15625	n/a	63784	largeTSmallT	correct	congruent	0.51562	no	T	T
249.671875	n/a	63916	responseLargeT	correct	n/a	0.51562	no	n/a	n/a
250.7421875	n/a	64190	largeTSmallH	correct	incongruent	0.60938	no	T	H
251.3515625	n/a	64346	responseLargeT	correct	n/a	0.60938	no	n/a	n/a
252.40625	n/a	64616	largeHSmallT	correct	incongruent	0.48438	no	H	T
252.890625	n/a	64740	responseLargeH	correct	n/a	0.48438	no	n/a	n/a
253.953125	n/a	65012	largeHSmallH	correct	congruent	0.45312	no	H	H
254.40625	n/a	65128	responseLargeH	correct	n/a	0.45312	no	n/a	n/a
255.4726562	n/a	65401	largeHSmallH	correct	congruent	0.5	no	H	H
255.9726562	n/a	65529	responseLargeH	correct	n/a	0.5	no	n/a	n/a
257.046875	n/a	65804	largeTSmallH	correct	incongruent	0.48828	no	T	H
257.5351562	n/a	65929	responseLargeT	correct	n/a	0.48828	no	n/a	n/a
258.609375	n/a	66204	largeHSmallT	correct	incongruent	0.51953	no	H	T
259.1289062	n/a	66337	responseLargeH	correct	n/a	0.51953	no	n/a	n/a
260.1953125	n/a	66610	largeHSmallH	correct	congruent	0.48047	no	H	H
260.6757812	n/a	66733	responseLargeH	correct	n/a	0.48047	no	n/a	n/a
261.7421875	n/a	67006	largeTSmallT	correct	congruent	0.5	no	T	T
262.2421875	n/a	67134	responseLargeT	correct	n/a	0.5	no	n/a	n/a
263.3125	n/a	67408	largeHSmallH	correct	congruent	0.63672	no	H	H
263.9492188	n/a	67571	responseLargeH	correct	n/a	0.63672	no	n/a	n/a
265.0195312	n/a	67845	largeHSmallH	correct	congruent	0.49609	no	H	H
265.515625	n/a	67972	responseLargeH	correct	n/a	0.49609	no	n/a	n/a
266.5820312	n/a	68245	largeTSmallH	correct	incongruent	0.52734	no	T	H
267.109375	n/a	68380	responseLargeT	correct	n/a	0.52734	no	n/a	n/a
268.1796875	n/a	68654	largeTSmallT	correct	congruent	0.51172	no	T	T
268.6914062	n/a	68785	responseLargeT	correct	n/a	0.51172	no	n/a	n/a
269.7539062	n/a	69057	largeHSmallH	correct	congruent	0.45703	no	H	H
270.2109375	n/a	69174	responseLargeH	correct	n/a	0.45703	no	n/a	n/a
271.2734375	n/a	69446	largeTSmallT	correct	congruent	0.45312	no	T	T
271.7265625	n/a	69562	responseLargeT	correct	n/a	0.45312	no	n/a	n/a
272.7929688	n/a	69835	largeHSmallH	correct	congruent	0.48828	no	H	H
273.28125	n/a	69960	responseLargeH	correct	n/a	0.48828	no	n/a	n/a
274.3398438	n/a	70231	largeTSmallH	correct	incongruent	0.5	no	T	H
274.8398438	n/a	70359	responseLargeT	correct	n/a	0.5	no	n/a	n/a
275.9023438	n/a	70631	largeTSmallH	correct	incongruent	0.65234	no	T	H
276.5546875	n/a	70798	responseLargeT	correct	n/a	0.65234	no	n/a	n/a
277.6210938	n/a	71071	largeTSmallH	correct	incongruent	0.50781	no	T	H
278.1289062	n/a	71201	responseLargeT	correct	n/a	0.50781	no	n/a	n/a
279.1953125	n/a	71474	largeHSmallT	error	incongruent	0.52734	no	H	T
279.7226562	n/a	71609	responseLargeT	error	n/a	0.52734	no	n/a	n/a
280.7929688	n/a	71883	largeHSmallH	correct	congruent	0.57031	no	H	H
281.3632812	n/a	72029	responseLargeH	correct	n/a	0.57031	no	n/a	n/a
282.421875	n/a	72300	largeTSmallT	correct	congruent	0.63672	no	T	T
283.0585938	n/a	72463	responseLargeT	correct	n/a	0.63672	no	n/a	n/a
284.1289062	n/a	72737	largeTSmallH	correct	incongruent	0.53906	no	T	H
284.6679688	n/a	72875	responseLargeT	correct	n/a	0.53906	no	n/a	n/a
285.7265625	n/a	73146	largeTSmallT	correct	congruent	0.44922	no	T	T
286.1757812	n/a	73261	responseLargeT	correct	n/a	0.44922	no	n/a	n/a
287.2460938	n/a	73535	largeTSmallT	correct	congruent	0.48047	no	T	T
287.7265625	n/a	73658	responseLargeT	correct	n/a	0.48047	no	n/a	n/a
288.7929688	n/a	73931	largeHSmallT	correct	incongruent	0.47266	no	H	T
289.265625	n/a	74052	responseLargeH	correct	n/a	0.47266	no	n/a	n/a
290.3398438	n/a	74327	largeHSmallT	correct	incongruent	0.44922	no	H	T
290.7890625	n/a	74442	responseLargeH	correct	n/a	0.44922	no	n/a	n/a
291.859375	n/a	74716	largeHSmallT	correct	incongruent	0.54297	no	H	T
292.4023438	n/a	74855	responseLargeH	correct	n/a	0.54297	no	n/a	n/a
293.4726562	n/a	75129	largeTSmallT	correct	congruent	0.52344	no	T	T
293.9960938	n/a	75263	responseLargeT	correct	n/a	0.52344	no	n/a	n/a
295.0585938	n/a	75535	largeTSmallT	correct	congruent	0.49219	no	T	T
295.5507812	n/a	75661	responseLargeT	correct	n/a	0.49219	no	n/a	n/a
296.6210938	n/a	75935	largeTSmallH	correct	incongruent	0.61719	no	T	H
297.2382812	n/a	76093	responseLargeT	correct	n/a	0.61719	no	n/a	n/a
298.3007812	n/a	76365	largeHSmallH	correct	congruent	0.51172	no	H	H
298.8125	n/a	76496	responseLargeH	correct	n/a	0.51172	no	n/a	n/a
299.8867188	n/a	76771	largeTSmallH	correct	incongruent	0.47266	no	T	H
300.359375	n/a	76892	responseLargeT	correct	n/a	0.47266	no	n/a	n/a
301.421875	n/a	77164	largeHSmallH	correct	congruent	0.47656	no	H	H
301.8984375	n/a	77286	responseLargeH	correct	n/a	0.47656	no	n/a	n/a
302.9648438	n/a	77559	largeHSmallT	error	incongruent	0.60156	no	H	T
303.5664062	n/a	77713	responseLargeT	error	n/a	0.60156	no	n/a	n/a
304.6484375	n/a	77990	largeHSmallT	correct	incongruent	0.44531	no	H	T
305.09375	n/a	78104	responseLargeH	correct	n/a	0.44531	no	n/a	n/a
306.1679688	n/a	78379	largeTSmallT	correct	congruent	0.44141	no	T	T
306.609375	n/a	78492	responseLargeT	correct	n/a	0.44141	no	n/a	n/a
307.6875	n/a	78768	largeHSmallT	correct	incongruent	0.45703	no	H	T
308.1445312	n/a	78885	responseLargeH	correct	n/a	0.45703	no	n/a	n/a
309.2070312	n/a	79157	largeTSmallH	correct	incongruent	0.51953	no	T	H
309.7265625	n/a	79290	responseLargeT	correct	n/a	0.51953	no	n/a	n/a
310.78125	n/a	79560	largeHSmallT	correct	incongruent	0.48438	no	H	T
311.265625	n/a	79684	responseLargeH	correct	n/a	0.48438	no	n/a	n/a
312.328125	n/a	79956	largeHSmallH	correct	congruent	0.42578	no	H	H
312.7539062	n/a	80065	responseLargeH	correct	n/a	0.42578	no	n/a	n/a
313.8320312	n/a	80341	largeTSmallH	correct	incongruent	0.52734	no	T	H
314.359375	n/a	80476	responseLargeT	correct	n/a	0.52734	no	n/a	n/a
315.4335938	n/a	80751	largeTSmallT	correct	congruent	0.47656	no	T	T
315.9101562	n/a	80873	responseLargeT	correct	n/a	0.47656	no	n/a	n/a
316.9804688	n/a	81147	largeHSmallT	correct	incongruent	0.59375	no	H	T
317.5742188	n/a	81299	responseLargeH	correct	n/a	0.59375	no	n/a	n/a
318.6445312	n/a	81573	largeHSmallT	correct	incongruent	0.60156	no	H	T
319.2460938	n/a	81727	responseLargeH	correct	n/a	0.60156	no	n/a	n/a
320.3125	n/a	82000	largeTSmallT	correct	congruent	0.51562	no	T	T
320.828125	n/a	82132	responseLargeT	correct	n/a	0.51562	no	n/a	n/a
321.8867188	n/a	82403	largeHSmallH	correct	congruent	0.50781	no	H	H
322.3945312	n/a	82533	responseLargeH	correct	n/a	0.50781	no	n/a	n/a
323.4609375	n/a	82806	largeHSmallH	correct	congruent	0.42188	no	H	H
323.8828125	n/a	82914	responseLargeH	correct	n/a	0.42188	no	n/a	n/a
324.953125	n/a	83188	largeHSmallT	correct	incongruent	0.49219	no	H	T
325.4453125	n/a	83314	responseLargeH	correct	n/a	0.49219	no	n/a	n/a
326.5117188	n/a	83587	largeHSmallH	correct	congruent	0.57422	no	H	H
327.0859375	n/a	83734	responseLargeH	correct	n/a	0.57422	no	n/a	n/a
328.1523438	n/a	84007	largeTSmallH	correct	incongruent	0.56641	no	T	H
328.71875	n/a	84152	responseLargeT	correct	n/a	0.56641	no	n/a	n/a
329.7929688	n/a	84427	largeTSmallH	correct	incongruent	0.53125	no	T	H
330.3242188	n/a	84563	responseLargeT	correct	n/a	0.53125	no	n/a	n/a
331.3945312	n/a	84837	largeTSmallT	correct	congruent	0.52734	no	T	T
331.921875	n/a	84972	responseLargeT	correct	n/a	0.52734	no	n/a	n/a
332.9921875	n/a	85246	largeTSmallH	correct	incongruent	0.55859	no	T	H
333.5507812	n/a	85389	responseLargeT	correct	n/a	0.55859	no	n/a	n/a
334.6210938	n/a	85663	largeTSmallT	correct	congruent	0.57031	no	T	T
335.1914062	n/a	85809	responseLargeT	correct	n/a	0.57031	no	n/a	n/a
346.9648438	n/a	88823	largeHSmallT	correct	incongruent	0.71484	no	H	T
347.6796875	n/a	89006	responseSmallT	correct	n/a	0.71484	no	n/a	n/a
348.7382812	n/a	89277	largeTSmallH	correct	incongruent	0.47656	no	T	H
349.2148438	n/a	89399	responseSmallH	correct	n/a	0.47656	no	n/a	n/a
350.2851562	n/a	89673	largeHSmallH	correct	congruent	0.50391	no	H	H
350.7890625	n/a	89802	responseSmallH	correct	n/a	0.50391	no	n/a	n/a
351.859375	n/a	90076	largeHSmallH	correct	congruent	0.46875	no	H	H
352.328125	n/a	90196	responseSmallH	correct	n/a	0.46875	no	n/a	n/a
353.390625	n/a	90468	largeHSmallH	correct	congruent	0.42188	no	H	H
353.8125	n/a	90576	responseSmallH	correct	n/a	0.42188	no	n/a	n/a
354.8710938	n/a	90847	largeHSmallT	correct	incongruent	0.45703	no	H	T
355.328125	n/a	90964	responseSmallT	correct	n/a	0.45703	no	n/a	n/a
356.40625	n/a	91240	largeHSmallT	correct	incongruent	0.61719	no	H	T
357.0234375	n/a	91398	responseSmallT	correct	n/a	0.61719	no	n/a	n/a
358.0859375	n/a	91670	largeHSmallH	correct	congruent	0.47656	no	H	H
358.5625	n/a	91792	responseSmallH	correct	n/a	0.47656	no	n/a	n/a
359.6328125	n/a	92066	largeTSmallH	correct	incongruent	0.57031	no	T	H
360.203125	n/a	92212	responseSmallH	correct	n/a	0.57031	no	n/a	n/a
361.2734375	n/a	92486	largeTSmallT	correct	congruent	0.54297	no	T	T
361.8164062	n/a	92625	responseSmallT	correct	n/a	0.54297	no	n/a	n/a
362.8867188	n/a	92899	largeTSmallT	correct	congruent	0.42969	no	T	T
363.3164062	n/a	93009	responseSmallT	correct	n/a	0.42969	no	n/a	n/a
364.390625	n/a	93284	largeHSmallH	correct	congruent	0.50781	no	H	H
364.8984375	n/a	93414	responseSmallH	correct	n/a	0.50781	no	n/a	n/a
365.9648438	n/a	93687	largeHSmallH	correct	congruent	0.84766	no	H	H
366.8125	n/a	93904	responseSmallH	correct	n/a	0.84766	no	n/a	n/a
367.8867188	n/a	94179	largeTSmallH	correct	incongruent	0.54688	no	T	H
368.4335938	n/a	94319	responseSmallH	correct	n/a	0.54688	no	n/a	n/a
369.5	n/a	94592	largeTSmallH	correct	incongruent	0.37109	no	T	H
369.8710938	n/a	94687	responseSmallH	correct	n/a	0.37109	no	n/a	n/a
370.9375	n/a	94960	largeHSmallH	correct	congruent	0.44141	no	H	H
371.3789062	n/a	95073	responseSmallH	correct	n/a	0.44141	no	n/a	n/a
372.4570312	n/a	95349	largeHSmallH	correct	congruent	0.41797	no	H	H
372.875	n/a	95456	responseSmallH	correct	n/a	0.41797	no	n/a	n/a
373.9375	n/a	95728	largeHSmallH	correct	congruent	0.39453	no	H	H
374.3320312	n/a	95829	responseSmallH	correct	n/a	0.39453	no	n/a	n/a
375.40625	n/a	96104	largeTSmallT	correct	congruent	0.46484	no	T	T
375.8710938	n/a	96223	responseSmallT	correct	n/a	0.46484	no	n/a	n/a
376.953125	n/a	96500	largeTSmallH	correct	incongruent	0.42969	no	T	H
377.3828125	n/a	96610	responseSmallH	correct	n/a	0.42969	no	n/a	n/a
378.4453125	n/a	96882	largeTSmallT	correct	congruent	0.5	no	T	T
378.9453125	n/a	97010	responseSmallT	correct	n/a	0.5	no	n/a	n/a
380.0195312	n/a	97285	largeHSmallT	correct	incongruent	0.53516	no	H	T
380.5546875	n/a	97422	responseSmallT	correct	n/a	0.53516	no	n/a	n/a
381.6328125	n/a	97698	largeTSmallT	correct	congruent	0.44141	no	T	T
382.0742188	n/a	97811	responseSmallT	correct	n/a	0.44141	no	n/a	n/a
383.1367188	n/a	98083	largeTSmallT	correct	congruent	0.4375	no	T	T
383.5742188	n/a	98195	responseSmallT	correct	n/a	0.4375	no	n/a	n/a
384.6328125	n/a	98466	largeHSmallT	correct	incongruent	0.46484	no	H	T
385.0976562	n/a	98585	responseSmallT	correct	n/a	0.46484	no	n/a	n/a
386.1640625	n/a	98858	largeHSmallH	correct	congruent	0.47266	no	H	H
386.6367188	n/a	98979	responseSmallH	correct	n/a	0.47266	no	n/a	n/a
387.7109375	n/a	99254	largeHSmallH	correct	congruent	0.4375	no	H	H
388.1484375	n/a	99366	responseSmallH	correct	n/a	0.4375	no	n/a	n/a
389.21875	n/a	99640	largeHSmallT	correct	incongruent	0.45312	no	H	T
389.671875	n/a	99756	responseSmallT	correct	n/a	0.45312	no	n/a	n/a
390.7382812	n/a	100029	largeTSmallH	correct	incongruent	0.44922	no	T	H
391.1875	n/a	100144	responseSmallH	correct	n/a	0.44922	no	n/a	n/a
392.2460938	n/a	100415	largeHSmallT	correct	incongruent	0.40625	no	H	T
392.6523438	n/a	100519	responseSmallT	correct	n/a	0.40625	no	n/a	n/a
393.7109375	n/a	100790	largeHSmallT	correct	incongruent	0.41406	no	H	T
394.125	n/a	100896	responseSmallT	correct	n/a	0.41406	no	n/a	n/a
395.1914062	n/a	101169	largeHSmallT	correct	incongruent	0.42188	no	H	T
395.6132812	n/a	101277	responseSmallT	correct	n/a	0.42188	no	n/a	n/a
396.6835938	n/a	101551	largeHSmallT	correct	incongruent	0.48047	no	H	T
397.1640625	n/a	101674	responseSmallT	correct	n/a	0.48047	no	n/a	n/a
398.21875	n/a	101944	largeHSmallH	correct	congruent	0.43359	no	H	H
398.6523438	n/a	102055	responseSmallH	correct	n/a	0.43359	no	n/a	n/a
399.7226562	n/a	102329	largeHSmallH	correct	congruent	0.45312	no	H	H
400.1757812	n/a	102445	responseSmallH	correct	n/a	0.45312	no	n/a	n/a
401.2460938	n/a	102719	largeTSmallH	correct	incongruent	0.46484	no	T	H
401.7109375	n/a	102838	responseSmallH	correct	n/a	0.46484	no	n/a	n/a
402.7929688	n/a	103115	largeTSmallH	correct	incongruent	0.44531	no	T	H
403.2382812	n/a	103229	responseSmallH	correct	n/a	0.44531	no	n/a	n/a
404.3125	n/a	103504	largeHSmallT	correct	incongruent	0.45312	no	H	T
404.765625	n/a	103620	responseSmallT	correct	n/a	0.45312	no	n/a	n/a
405.8320312	n/a	103893	largeTSmallT	correct	congruent	0.46875	no	T	T
406.3007812	n/a	104013	responseSmallT	correct	n/a	0.46875	no	n/a	n/a
407.3632812	n/a	104285	largeTSmallT	correct	congruent	0.44531	no	T	T
407.8085938	n/a	104399	responseSmallT	correct	n/a	0.44531	no	n/a	n/a
408.8828125	n/a	104674	largeHSmallT	correct	incongruent	0.46484	no	H	T
409.3476562	n/a	104793	responseSmallT	correct	n/a	0.46484	no	n/a	n/a
410.4179688	n/a	105067	largeTSmallH	correct	incongruent	0.42578	no	T	H
410.84375	n/a	105176	responseSmallH	correct	n/a	0.42578	no	n/a	n/a
411.9101562	n/a	105449	largeTSmallH	correct	incongruent	0.45703	no	T	H
412.3671875	n/a	105566	responseSmallH	correct	n/a	0.45703	no	n/a	n/a
413.4296875	n/a	105838	largeTSmallT	correct	congruent	0.46094	no	T	T
413.890625	n/a	105956	responseSmallT	correct	n/a	0.46094	no	n/a	n/a
414.9648438	n/a	106231	largeHSmallT	correct	incongruent	0.46484	no	H	T
415.4296875	n/a	106350	responseSmallT	correct	n/a	0.46484	no	n/a	n/a
416.4960938	n/a	106623	largeHSmallH	correct	congruent	0.48047	no	H	H
416.9765625	n/a	106746	responseSmallH	correct	n/a	0.48047	no	n/a	n/a
418.03125	n/a	107016	largeTSmallT	correct	congruent	0.53125	no	T	T
418.5625	n/a	107152	responseSmallT	correct	n/a	0.53125	no	n/a	n/a
419.6328125	n/a	107426	largeTSmallT	correct	congruent	0.53906	no	T	T
420.171875	n/a	107564	responseSmallT	correct	n/a	0.53906	no	n/a	n/a
421.2304688	n/a	107835	largeTSmallH	correct	incongruent	0.48828	no	T	H
421.71875	n/a	107960	responseSmallH	correct	n/a	0.48828	no	n/a	n/a
422.7890625	n/a	108234	largeHSmallH	correct	congruent	0.46484	no	H	H
423.2539062	n/a	108353	responseSmallH	correct	n/a	0.46484	no	n/a	n/a
424.3242188	n/a	108627	largeTSmallT	correct	congruent	0.57812	no	T	T
424.9023438	n/a	108775	responseSmallT	correct	n/a	0.57812	no	n/a	n/a
425.9765625	n/a	109050	largeTSmallH	correct	incongruent	0.40234	no	T	H
426.3789062	n/a	109153	responseSmallH	correct	n/a	0.40234	no	n/a	n/a
427.4453125	n/a	109426	largeHSmallT	correct	incongruent	0.5	no	H	T
427.9453125	n/a	109554	responseSmallT	correct	n/a	0.5	no	n/a	n/a
429.015625	n/a	109828	largeHSmallT	correct	incongruent	0.47266	no	H	T
429.4882812	n/a	109949	responseSmallT	correct	n/a	0.47266	no	n/a	n/a
430.5625	n/a	110224	largeHSmallH	correct	congruent	0.44922	no	H	H
431.0117188	n/a	110339	responseSmallH	correct	n/a	0.44922	no	n/a	n/a
432.0703125	n/a	110610	largeHSmallH	correct	congruent	0.42188	no	H	H
432.4921875	n/a	110718	responseSmallH	correct	n/a	0.42188	no	n/a	n/a
433.5625	n/a	110992	largeHSmallT	correct	incongruent	0.42969	no	H	T
433.9921875	n/a	111102	responseSmallT	correct	n/a	0.42969	no	n/a	n/a
435.0585938	n/a	111375	largeHSmallH	correct	congruent	0.51953	no	H	H
435.578125	n/a	111508	responseSmallH	correct	n/a	0.51953	no	n/a	n/a
436.6445312	n/a	111781	largeHSmallT	correct	incongruent	0.43359	no	H	T
437.078125	n/a	111892	responseSmallT	correct	n/a	0.43359	no	n/a	n/a
438.1484375	n/a	112166	largeTSmallH	correct	incongruent	0.47656	no	T	H
438.625	n/a	112288	responseSmallH	correct	n/a	0.47656	no	n/a	n/a
439.6835938	n/a	112559	largeHSmallH	correct	congruent	0.41406	no	H	H
440.0976562	n/a	112665	responseSmallH	correct	n/a	0.41406	no	n/a	n/a
441.1757812	n/a	112941	largeTSmallH	correct	incongruent	0.47656	no	T	H
441.6523438	n/a	113063	responseSmallH	correct	n/a	0.47656	no	n/a	n/a
442.7109375	n/a	113334	largeTSmallT	correct	congruent	0.46094	no	T	T
443.171875	n/a	113452	responseSmallT	correct	n/a	0.46094	no	n/a	n/a
444.2421875	n/a	113726	largeHSmallT	error	incongruent	0.45312	no	H	T
444.6953125	n/a	113842	responseSmallH	error	n/a	0.45312	no	n/a	n/a
445.75	n/a	114112	largeTSmallT	correct	congruent	0.48828	no	T	T
446.2382812	n/a	114237	responseSmallT	correct	n/a	0.48828	no	n/a	n/a
447.296875	n/a	114508	largeHSmallH	correct	congruent	0.43359	no	H	H
447.7304688	n/a	114619	responseSmallH	correct	n/a	0.43359	no	n/a	n/a
448.8046875	n/a	114894	largeHSmallT	correct	incongruent	0.51172	no	H	T
449.3164062	n/a	115025	responseSmallT	correct	n/a	0.51172	no	n/a	n/a
450.375	n/a	115296	largeTSmallT	correct	congruent	0.46484	no	T	T
450.8398438	n/a	115415	responseSmallT	correct	n/a	0.46484	no	n/a	n/a
451.9101562	n/a	115689	largeHSmallT	correct	incongruent	0.48438	no	H	T
452.3945312	n/a	115813	responseSmallT	correct	n/a	0.48438	no	n/a	n/a
453.4570312	n/a	116085	largeTSmallH	correct	incongruent	0.52344	no	T	H
453.9804688	n/a	116219	responseSmallH	correct	n/a	0.52344	no	n/a	n/a
455.0429688	n/a	116491	largeTSmallH	correct	incongruent	0.48828	no	T	H
455.53125	n/a	116616	responseSmallH	correct	n/a	0.48828	no	n/a	n/a
456.6015625	n/a	116890	largeTSmallH	correct	incongruent	0.44141	no	T	H
457.0429688	n/a	117003	responseSmallH	correct	n/a	0.44141	no	n/a	n/a
458.109375	n/a	117276	largeHSmallT	correct	incongruent	0.46484	no	H	T
458.5742188	n/a	117395	responseSmallT	correct	n/a	0.46484	no	n/a	n/a
459.6445312	n/a	117669	largeTSmallT	correct	congruent	0.46875	no	T	T
460.1132812	n/a	117789	responseSmallT	correct	n/a	0.46875	no	n/a	n/a
461.1914062	n/a	118065	largeHSmallH	correct	congruent	0.87891	no	H	H
462.0703125	n/a	118290	responseSmallH	correct	n/a	0.87891	no	n/a	n/a
463.1367188	n/a	118563	largeHSmallT	correct	incongruent	0.46875	no	H	T
463.6054688	n/a	118683	responseSmallT	correct	n/a	0.46875	no	n/a	n/a
464.671875	n/a	118956	largeHSmallH	correct	congruent	0.44531	no	H	H
465.1171875	n/a	119070	responseSmallH	correct	n/a	0.44531	no	n/a	n/a
466.1757812	n/a	119341	largeTSmallH	correct	incongruent	0.47656	no	T	H
466.6523438	n/a	119463	responseSmallH	correct	n/a	0.47656	no	n/a	n/a
467.7226562	n/a	119737	largeTSmallT	correct	congruent	0.50391	no	T	T
468.2265625	n/a	119866	responseSmallT	correct	n/a	0.50391	no	n/a	n/a
469.296875	n/a	120140	largeHSmallT	correct	incongruent	0.48047	no	H	T
469.7773438	n/a	120263	responseSmallT	correct	n/a	0.48047	no	n/a	n/a
470.84375	n/a	120536	largeHSmallH	correct	congruent	0.42969	no	H	H
471.2734375	n/a	120646	responseSmallH	correct	n/a	0.42969	no	n/a	n/a
472.3359375	n/a	120918	largeTSmallT	correct	congruent	0.51562	no	T	T
472.8515625	n/a	121050	responseSmallT	correct	n/a	0.51562	no	n/a	n/a
473.9101562	n/a	121321	largeTSmallT	correct	congruent	0.48047	no	T	T
474.390625	n/a	121444	responseSmallT	correct	n/a	0.48047	no	n/a	n/a
475.4570312	n/a	121717	largeHSmallH	correct	congruent	0.48828	no	H	H
475.9453125	n/a	121842	responseSmallH	correct	n/a	0.48828	no	n/a	n/a
477.0039062	n/a	122113	largeTSmallT	correct	congruent	0.48438	no	T	T
477.4882812	n/a	122237	responseSmallT	correct	n/a	0.48438	no	n/a	n/a
478.5625	n/a	122512	largeHSmallH	correct	congruent	0.48047	no	H	H
479.0429688	n/a	122635	responseSmallH	correct	n/a	0.48047	no	n/a	n/a
480.109375	n/a	122908	largeHSmallT	correct	incongruent	0.47266	no	H	T
480.5820312	n/a	123029	responseSmallT	correct	n/a	0.47266	no	n/a	n/a
481.65625	n/a	123304	largeHSmallT	correct	incongruent	0.43359	no	H	T
482.0898438	n/a	123415	responseSmallT	correct	n/a	0.43359	no	n/a	n/a
483.1484375	n/a	123686	largeHSmallT	correct	incongruent	0.48438	no	H	T
483.6328125	n/a	123810	responseSmallT	correct	n/a	0.48438	no	n/a	n/a
484.6953125	n/a	124082	largeHSmallH	correct	congruent	0.43359	no	H	H
485.1289062	n/a	124193	responseSmallH	correct	n/a	0.43359	no	n/a	n/a
486.1875	n/a	124464	largeHSmallT	correct	incongruent	0.64844	no	H	T
486.8359375	n/a	124630	responseSmallT	correct	n/a	0.64844	no	n/a	n/a
487.9101562	n/a	124905	largeTSmallH	correct	incongruent	0.5	no	T	H
488.4101562	n/a	125033	responseSmallH	correct	n/a	0.5	no	n/a	n/a
489.46875	n/a	125304	largeHSmallH	correct	congruent	0.64453	no	H	H
490.1132812	n/a	125469	responseSmallH	correct	n/a	0.64453	no	n/a	n/a
491.1875	n/a	125744	largeTSmallH	correct	incongruent	0.5	no	T	H
491.6875	n/a	125872	responseSmallH	correct	n/a	0.5	no	n/a	n/a
492.7617188	n/a	126147	largeTSmallH	correct	incongruent	0.41797	no	T	H
493.1796875	n/a	126254	responseSmallH	correct	n/a	0.41797	no	n/a	n/a
494.2421875	n/a	126526	largeTSmallT	correct	congruent	0.41797	no	T	T
494.6601562	n/a	126633	responseSmallT	correct	n/a	0.41797	no	n/a	n/a
495.7226562	n/a	126905	largeTSmallH	correct	incongruent	0.41797	no	T	H
496.140625	n/a	127012	responseSmallH	correct	n/a	0.41797	no	n/a	n/a
497.203125	n/a	127284	largeTSmallT	correct	congruent	0.58203	no	T	T
497.7851562	n/a	127433	responseSmallT	correct	n/a	0.58203	no	n/a	n/a
498.84375	n/a	127704	largeTSmallH	correct	incongruent	0.41797	no	T	H
499.2617188	n/a	127811	responseSmallH	correct	n/a	0.41797	no	n/a	n/a
500.3242188	n/a	128083	largeHSmallT	correct	incongruent	0.40625	no	H	T
500.7304688	n/a	128187	responseSmallT	correct	n/a	0.40625	no	n/a	n/a
501.7890625	n/a	128458	largeTSmallH	correct	incongruent	0.41406	no	T	H
502.203125	n/a	128564	responseSmallH	correct	n/a	0.41406	no	n/a	n/a
503.28125	n/a	128840	largeHSmallT	correct	incongruent	0.42578	no	H	T
503.7070312	n/a	128949	responseSmallT	correct	n/a	0.42578	no	n/a	n/a
504.7773438	n/a	129223	largeTSmallH	correct	incongruent	0.4375	no	T	H
505.2148438	n/a	129335	responseSmallH	correct	n/a	0.4375	no	n/a	n/a
506.28125	n/a	129608	largeTSmallH	correct	incongruent	0.50781	no	T	H
506.7890625	n/a	129738	responseSmallH	correct	n/a	0.50781	no	n/a	n/a
507.8671875	n/a	130014	largeHSmallH	correct	congruent	0.46484	no	H	H
508.3320312	n/a	130133	responseSmallH	correct	n/a	0.46484	no	n/a	n/a
509.390625	n/a	130404	largeHSmallT	correct	incongruent	0.45312	no	H	T
509.84375	n/a	130520	responseSmallT	correct	n/a	0.45312	no	n/a	n/a
510.9101562	n/a	130793	largeTSmallH	correct	incongruent	0.51562	no	T	H
511.4257812	n/a	130925	responseSmallH	correct	n/a	0.51562	no	n/a	n/a
512.4960938	n/a	131199	largeTSmallT	correct	congruent	0.43359	no	T	T
512.9296875	n/a	131310	responseSmallT	correct	n/a	0.43359	no	n/a	n/a
513.9882812	n/a	131581	largeTSmallH	correct	incongruent	0.48438	no	T	H
514.4726562	n/a	131705	responseSmallH	correct	n/a	0.48438	no	n/a	n/a
515.5351562	n/a	131977	largeHSmallH	correct	congruent	0.47266	no	H	H
516.0078125	n/a	132098	responseSmallH	correct	n/a	0.47266	no	n/a	n/a
517.0820312	n/a	132373	largeTSmallT	correct	congruent	0.49219	no	T	T
517.5742188	n/a	132499	responseSmallT	correct	n/a	0.49219	no	n/a	n/a
518.640625	n/a	132772	largeTSmallH	correct	incongruent	0.41797	no	T	H
519.0585938	n/a	132879	responseSmallH	correct	n/a	0.41797	no	n/a	n/a
520.1210938	n/a	133151	largeHSmallT	correct	incongruent	0.44531	no	H	T
520.5664062	n/a	133265	responseSmallT	correct	n/a	0.44531	no	n/a	n/a
521.640625	n/a	133540	largeHSmallH	correct	congruent	0.49219	no	H	H
522.1328125	n/a	133666	responseSmallH	correct	n/a	0.49219	no	n/a	n/a
523.203125	n/a	133940	largeHSmallT	correct	incongruent	0.48438	no	H	T
523.6875	n/a	134064	responseSmallT	correct	n/a	0.48438	no	n/a	n/a
524.7617188	n/a	134339	largeHSmallT	correct	incongruent	0.59375	no	H	T
525.3554688	n/a	134491	responseSmallT	correct	n/a	0.59375	no	n/a	n/a
526.4296875	n/a	134766	largeHSmallH	correct	congruent	0.47656	no	H	H
526.90625	n/a	134888	responseSmallH	correct	n/a	0.47656	no	n/a	n/a
527.9765625	n/a	135162	largeHSmallH	correct	congruent	0.42969	no	H	H
528.40625	n/a	135272	responseSmallH	correct	n/a	0.42969	no	n/a	n/a
529.46875	n/a	135544	largeTSmallT	correct	congruent	0.53516	no	T	T
530.0039062	n/a	135681	responseSmallT	correct	n/a	0.53516	no	n/a	n/a
531.0820312	n/a	135957	largeTSmallH	correct	incongruent	0.4375	no	T	H
531.5195312	n/a	136069	responseSmallH	correct	n/a	0.4375	no	n/a	n/a
532.5898438	n/a	136343	largeTSmallH	correct	incongruent	0.45312	no	T	H
533.0429688	n/a	136459	responseSmallH	correct	n/a	0.45312	no	n/a	n/a
534.1210938	n/a	136735	largeHSmallH	correct	congruent	0.48438	no	H	H
534.6054688	n/a	136859	responseSmallH	correct	n/a	0.48438	no	n/a	n/a
535.6796875	n/a	137134	largeTSmallT	correct	congruent	0.43359	no	T	T
536.1132812	n/a	137245	responseSmallT	correct	n/a	0.43359	no	n/a	n/a
537.1757812	n/a	137517	largeTSmallT	correct	congruent	0.52734	no	T	T
537.703125	n/a	137652	responseSmallT	correct	n/a	0.52734	no	n/a	n/a
538.7617188	n/a	137923	largeTSmallT	correct	congruent	0.40625	no	T	T
539.1679688	n/a	138027	responseSmallT	correct	n/a	0.40625	no	n/a	n/a
540.2265625	n/a	138298	largeTSmallT	correct	congruent	0.41797	no	T	T
540.6445312	n/a	138405	responseSmallT	correct	n/a	0.41797	no	n/a	n/a
541.7070312	n/a	138677	largeTSmallH	correct	incongruent	0.44922	no	T	H
542.15625	n/a	138792	responseSmallH	correct	n/a	0.44922	no	n/a	n/a
543.2265625	n/a	139066	largeHSmallH	correct	congruent	0.42578	no	H	H
543.6523438	n/a	139175	responseSmallH	correct	n/a	0.42578	no	n/a	n/a
544.7226562	n/a	139449	largeTSmallH	correct	incongruent	0.50391	no	T	H
545.2265625	n/a	139578	responseSmallH	correct	n/a	0.50391	no	n/a	n/a
546.2929688	n/a	139851	largeHSmallT	correct	incongruent	0.44922	no	H	T
546.7421875	n/a	139966	responseSmallT	correct	n/a	0.44922	no	n/a	n/a
547.8164062	n/a	140241	largeHSmallH	correct	congruent	0.42188	no	H	H
548.2382812	n/a	140349	responseSmallH	correct	n/a	0.42188	no	n/a	n/a
549.3085938	n/a	140623	largeTSmallH	correct	incongruent	0.47656	no	T	H
549.7851562	n/a	140745	responseSmallH	correct	n/a	0.47656	no	n/a	n/a
550.8554688	n/a	141019	largeHSmallH	correct	congruent	0.43359	no	H	H
551.2890625	n/a	141130	responseSmallH	correct	n/a	0.43359	no	n/a	n/a
552.3476562	n/a	141401	largeTSmallH	correct	incongruent	0.52344	no	T	H
552.8710938	n/a	141535	responseSmallH	correct	n/a	0.52344	no	n/a	n/a
553.9492188	n/a	141811	largeTSmallT	correct	congruent	0.47656	no	T	T
554.4257812	n/a	141933	responseSmallT	correct	n/a	0.47656	no	n/a	n/a
555.4804688	n/a	142203	largeHSmallT	correct	incongruent	0.41406	no	H	T
555.8945312	n/a	142309	responseSmallT	correct	n/a	0.41406	no	n/a	n/a
556.9609375	n/a	142582	largeTSmallH	correct	incongruent	0.44531	no	T	H
557.40625	n/a	142696	responseSmallH	correct	n/a	0.44531	no	n/a	n/a
558.46875	n/a	142968	largeTSmallT	correct	congruent	0.60156	no	T	T
559.0703125	n/a	143122	responseSmallT	correct	n/a	0.60156	no	n/a	n/a
560.1328125	n/a	143394	largeHSmallH	correct	congruent	0.4375	no	H	H
560.5703125	n/a	143506	responseSmallH	correct	n/a	0.4375	no	n/a	n/a
561.640625	n/a	143780	largeHSmallT	correct	incongruent	0.58203	no	H	T
562.2226562	n/a	143929	responseSmallT	correct	n/a	0.58203	no	n/a	n/a
563.2929688	n/a	144203	largeHSmallH	correct	congruent	0.51953	no	H	H
563.8125	n/a	144336	responseSmallH	correct	n/a	0.51953	no	n/a	n/a
564.8828125	n/a	144610	largeHSmallT	correct	incongruent	0.53125	no	H	T
565.4140625	n/a	144746	responseSmallT	correct	n/a	0.53125	no	n/a	n/a
566.4804688	n/a	145019	largeTSmallT	correct	congruent	0.46875	no	T	T
566.9492188	n/a	145139	responseSmallT	correct	n/a	0.46875	no	n/a	n/a
568.015625	n/a	145412	largeTSmallH	correct	incongruent	0.52344	no	T	H
568.5390625	n/a	145546	responseSmallH	correct	n/a	0.52344	no	n/a	n/a
569.6015625	n/a	145818	largeTSmallT	correct	congruent	0.48828	no	T	T
570.0898438	n/a	145943	responseSmallT	correct	n/a	0.48828	no	n/a	n/a
571.1484375	n/a	146214	largeTSmallH	correct	incongruent	0.62891	no	T	H
571.7773438	n/a	146375	responseSmallH	correct	n/a	0.62891	no	n/a	n/a
572.8554688	n/a	146651	largeHSmallH	correct	congruent	0.51172	no	H	H
573.3671875	n/a	146782	responseSmallH	correct	n/a	0.51172	no	n/a	n/a
574.4257812	n/a	147053	largeTSmallT	correct	congruent	0.46484	no	T	T
574.890625	n/a	147172	responseSmallT	correct	n/a	0.46484	no	n/a	n/a
575.9609375	n/a	147446	largeHSmallH	correct	congruent	0.50781	no	H	H
576.46875	n/a	147576	responseSmallH	correct	n/a	0.50781	no	n/a	n/a
577.5351562	n/a	147849	largeTSmallT	correct	congruent	0.50391	no	T	T
578.0390625	n/a	147978	responseSmallT	correct	n/a	0.50391	no	n/a	n/a
579.1054688	n/a	148251	largeHSmallH	correct	congruent	0.42969	no	H	H
579.5351562	n/a	148361	responseSmallH	correct	n/a	0.42969	no	n/a	n/a
580.6015625	n/a	148634	largeTSmallT	correct	congruent	0.55078	no	T	T
581.1523438	n/a	148775	responseSmallT	correct	n/a	0.55078	no	n/a	n/a
582.2148438	n/a	149047	largeHSmallT	correct	incongruent	0.51562	no	H	T
582.7304688	n/a	149179	responseSmallT	correct	n/a	0.51562	no	n/a	n/a
583.8007812	n/a	149453	largeHSmallT	correct	incongruent	0.53516	no	H	T
584.3359375	n/a	149590	responseSmallT	correct	n/a	0.53516	no	n/a	n/a
585.4140625	n/a	149866	largeTSmallH	correct	incongruent	0.51562	no	T	H
585.9296875	n/a	149998	responseSmallH	correct	n/a	0.51562	no	n/a	n/a
587	n/a	150272	largeTSmallT	correct	congruent	0.57812	no	T	T
587.578125	n/a	150420	responseSmallT	correct	n/a	0.57812	no	n/a	n/a
588.640625	n/a	150692	largeTSmallH	correct	incongruent	0.48828	no	T	H
589.1289062	n/a	150817	responseSmallH	correct	n/a	0.48828	no	n/a	n/a
590.1992188	n/a	151091	largeTSmallH	correct	incongruent	0.41406	no	T	H
590.6132812	n/a	151197	responseSmallH	correct	n/a	0.41406	no	n/a	n/a
591.6796875	n/a	151470	largeTSmallT	correct	congruent	0.44531	no	T	T
592.125	n/a	151584	responseSmallT	correct	n/a	0.44531	no	n/a	n/a
593.1875	n/a	151856	largeTSmallT	correct	congruent	0.5	no	T	T
593.6875	n/a	151984	responseSmallT	correct	n/a	0.5	no	n/a	n/a
594.7617188	n/a	152259	largeTSmallH	correct	incongruent	0.45312	no	T	H
595.2148438	n/a	152375	responseSmallH	correct	n/a	0.45312	no	n/a	n/a
596.28125	n/a	152648	largeHSmallT	correct	incongruent	0.51953	no	H	T
596.8007812	n/a	152781	responseSmallT	correct	n/a	0.51953	no	n/a	n/a
597.8671875	n/a	153054	largeTSmallT	correct	congruent	0.48438	no	T	T
598.3515625	n/a	153178	responseSmallT	correct	n/a	0.48438	no	n/a	n/a
599.4140625	n/a	153450	largeHSmallH	correct	congruent	0.41797	no	H	H
599.8320312	n/a	153557	responseSmallH	correct	n/a	0.41797	no	n/a	n/a
600.90625	n/a	153832	largeHSmallT	correct	incongruent	0.48047	no	H	T
601.3867188	n/a	153955	responseSmallT	correct	n/a	0.48047	no	n/a	n/a
602.453125	n/a	154228	largeTSmallT	correct	congruent	0.47266	no	T	T
602.9257812	n/a	154349	responseSmallT	correct	n/a	0.47266	no	n/a	n/a
603.9882812	n/a	154621	largeHSmallT	correct	incongruent	0.44531	no	H	T
604.4335938	n/a	154735	responseSmallT	correct	n/a	0.44531	no	n/a	n/a
605.5078125	n/a	155010	largeTSmallH	correct	incongruent	0.58594	no	T	H
606.09375	n/a	155160	responseSmallH	correct	n/a	0.58594	no	n/a	n/a
607.1601562	n/a	155433	largeHSmallT	correct	incongruent	0.49219	no	H	T
607.6523438	n/a	155559	responseSmallT	correct	n/a	0.49219	no	n/a	n/a
608.71875	n/a	155832	largeTSmallH	correct	incongruent	0.46094	no	T	H
609.1796875	n/a	155950	responseSmallH	correct	n/a	0.46094	no	n/a	n/a
610.2382812	n/a	156221	largeTSmallT	correct	congruent	0.5625	no	T	T
610.8007812	n/a	156365	responseSmallT	correct	n/a	0.5625	no	n/a	n/a
611.8671875	n/a	156638	largeHSmallH	correct	congruent	0.50391	no	H	H
612.3710938	n/a	156767	responseSmallH	correct	n/a	0.50391	no	n/a	n/a
613.4414062	n/a	157041	largeTSmallT	correct	congruent	0.44531	no	T	T
613.8867188	n/a	157155	responseSmallT	correct	n/a	0.44531	no	n/a	n/a
614.9609375	n/a	157430	largeHSmallH	correct	congruent	0.49219	no	H	H
615.453125	n/a	157556	responseSmallH	correct	n/a	0.49219	no	n/a	n/a
616.5195312	n/a	157829	largeTSmallT	correct	congruent	0.50781	no	T	T
617.0273438	n/a	157959	responseSmallT	correct	n/a	0.50781	no	n/a	n/a
618.09375	n/a	158232	largeTSmallT	correct	congruent	0.49219	no	T	T
618.5859375	n/a	158358	responseSmallT	correct	n/a	0.49219	no	n/a	n/a
619.6523438	n/a	158631	largeTSmallH	correct	incongruent	0.46484	no	T	H
620.1171875	n/a	158750	responseSmallH	correct	n/a	0.46484	no	n/a	n/a
621.1875	n/a	159024	largeHSmallH	correct	congruent	0.48047	no	H	H
621.6679688	n/a	159147	responseSmallH	correct	n/a	0.48047	no	n/a	n/a
622.7460938	n/a	159423	largeHSmallH	correct	congruent	0.44531	no	H	H
623.1914062	n/a	159537	responseSmallH	correct	n/a	0.44531	no	n/a	n/a
624.2539062	n/a	159809	largeTSmallH	correct	incongruent	0.44141	no	T	H
624.6953125	n/a	159922	responseSmallH	correct	n/a	0.44141	no	n/a	n/a
625.7734375	n/a	160198	largeTSmallT	correct	congruent	0.47266	no	T	T
626.2460938	n/a	160319	responseSmallT	correct	n/a	0.47266	no	n/a	n/a
627.3046875	n/a	160590	largeHSmallT	correct	incongruent	0.46875	no	H	T
627.7734375	n/a	160710	responseSmallT	correct	n/a	0.46875	no	n/a	n/a
628.8398438	n/a	160983	largeTSmallH	correct	incongruent	0.46094	no	T	H
629.3007812	n/a	161101	responseSmallH	correct	n/a	0.46094	no	n/a	n/a
630.3710938	n/a	161375	largeTSmallT	correct	congruent	0.51172	no	T	T
630.8828125	n/a	161506	responseSmallT	correct	n/a	0.51172	no	n/a	n/a
631.9453125	n/a	161778	largeHSmallH	correct	congruent	0.41406	no	H	H
632.359375	n/a	161884	responseSmallH	correct	n/a	0.41406	no	n/a	n/a
633.4257812	n/a	162157	largeTSmallT	correct	congruent	0.49219	no	T	T
633.9179688	n/a	162283	responseSmallT	correct	n/a	0.49219	no	n/a	n/a
634.9882812	n/a	162557	largeTSmallT	correct	congruent	0.48438	no	T	T
635.4726562	n/a	162681	responseSmallT	correct	n/a	0.48438	no	n/a	n/a
636.546875	n/a	162956	largeHSmallH	correct	congruent	0.44141	no	H	H
636.9882812	n/a	163069	responseSmallH	correct	n/a	0.44141	no	n/a	n/a
638.0664062	n/a	163345	largeHSmallT	correct	incongruent	0.46484	no	H	T
638.53125	n/a	163464	responseSmallT	correct	n/a	0.46484	no	n/a	n/a
639.5976562	n/a	163737	largeHSmallT	correct	incongruent	0.44922	no	H	T
640.046875	n/a	163852	responseSmallT	correct	n/a	0.44922	no	n/a	n/a
641.1210938	n/a	164127	largeHSmallH	correct	congruent	0.4375	no	H	H
641.5585938	n/a	164239	responseSmallH	correct	n/a	0.4375	no	n/a	n/a
642.625	n/a	164512	largeHSmallT	correct	incongruent	0.57812	no	H	T
643.203125	n/a	164660	responseSmallT	correct	n/a	0.57812	no	n/a	n/a
644.265625	n/a	164932	largeHSmallH	correct	congruent	0.43359	no	H	H
644.6992188	n/a	165043	responseSmallH	correct	n/a	0.43359	no	n/a	n/a
645.7734375	n/a	165318	largeHSmallT	correct	incongruent	0.43359	no	H	T
646.2070312	n/a	165429	responseSmallT	correct	n/a	0.43359	no	n/a	n/a
647.2773438	n/a	165703	largeTSmallT	correct	congruent	0.45703	no	T	T
647.734375	n/a	165820	responseSmallT	correct	n/a	0.45703	no	n/a	n/a
648.8125	n/a	166096	largeTSmallH	correct	incongruent	1.0586	no	T	H
649.8710938	n/a	166367	responseSmallH	correct	n/a	1.0586	no	n/a	n/a
650.9453125	n/a	166642	largeTSmallH	correct	incongruent	0.46875	no	T	H
651.4140625	n/a	166762	responseSmallH	correct	n/a	0.46875	no	n/a	n/a
652.4921875	n/a	167038	largeHSmallT	correct	incongruent	0.43359	no	H	T
652.9257812	n/a	167149	responseSmallT	correct	n/a	0.43359	no	n/a	n/a
653.984375	n/a	167420	largeTSmallH	correct	incongruent	0.42578	no	T	H
654.4101562	n/a	167529	responseSmallH	correct	n/a	0.42578	no	n/a	n/a
655.4648438	n/a	167799	largeHSmallT	correct	incongruent	0.5	no	H	T
655.9648438	n/a	167927	responseSmallT	correct	n/a	0.5	no	n/a	n/a
667.4921875	n/a	170878	largeTSmallH	correct	incongruent	0.74609	no	T	H
668.2382812	n/a	171069	responseLargeT	correct	n/a	0.74609	no	n/a	n/a
669.3046875	n/a	171342	largeHSmallH	correct	congruent	0.46875	no	H	H
669.7734375	n/a	171462	responseLargeH	correct	n/a	0.46875	no	n/a	n/a
670.8398438	n/a	171735	largeTSmallH	correct	incongruent	0.4375	no	T	H
671.2773438	n/a	171847	responseLargeT	correct	n/a	0.4375	no	n/a	n/a
672.34375	n/a	172120	largeHSmallT	correct	incongruent	0.38672	no	H	T
672.7304688	n/a	172219	responseLargeH	correct	n/a	0.38672	no	n/a	n/a
673.796875	n/a	172492	largeHSmallT	correct	incongruent	0.38672	no	H	T
674.1835938	n/a	172591	responseLargeH	correct	n/a	0.38672	no	n/a	n/a
675.25	n/a	172864	largeTSmallT	correct	congruent	0.44141	no	T	T
675.6914062	n/a	172977	responseLargeT	correct	n/a	0.44141	no	n/a	n/a
676.7734375	n/a	173254	largeTSmallT	correct	congruent	0.45703	no	T	T
677.2304688	n/a	173371	responseLargeT	correct	n/a	0.45703	no	n/a	n/a
678.2929688	n/a	173643	largeHSmallT	correct	incongruent	0.42578	no	H	T
678.71875	n/a	173752	responseLargeH	correct	n/a	0.42578	no	n/a	n/a
679.7851562	n/a	174025	largeTSmallH	correct	incongruent	0.48438	no	T	H
680.2695312	n/a	174149	responseLargeT	correct	n/a	0.48438	no	n/a	n/a
681.3320312	n/a	174421	largeHSmallH	correct	congruent	0.4375	no	H	H
681.7695312	n/a	174533	responseLargeH	correct	n/a	0.4375	no	n/a	n/a
682.8242188	n/a	174803	largeHSmallT	correct	incongruent	0.42969	no	H	T
683.2539062	n/a	174913	responseLargeH	correct	n/a	0.42969	no	n/a	n/a
684.3203125	n/a	175186	largeHSmallH	correct	congruent	0.39062	no	H	H
684.7109375	n/a	175286	responseLargeH	correct	n/a	0.39062	no	n/a	n/a
685.7851562	n/a	175561	largeTSmallT	correct	congruent	0.4375	no	T	T
686.2226562	n/a	175673	responseLargeT	correct	n/a	0.4375	no	n/a	n/a
687.2929688	n/a	175947	largeTSmallH	correct	incongruent	0.53516	no	T	H
687.828125	n/a	176084	responseLargeT	correct	n/a	0.53516	no	n/a	n/a
688.90625	n/a	176360	largeTSmallH	correct	incongruent	0.48438	no	T	H
689.390625	n/a	176484	responseLargeT	correct	n/a	0.48438	no	n/a	n/a
690.4648438	n/a	176759	largeTSmallH	correct	incongruent	0.38281	no	T	H
690.8476562	n/a	176857	responseLargeT	correct	n/a	0.38281	no	n/a	n/a
691.90625	n/a	177128	largeTSmallH	correct	incongruent	0.38281	no	T	H
692.2890625	n/a	177226	responseLargeT	correct	n/a	0.38281	no	n/a	n/a
693.359375	n/a	177500	largeTSmallT	correct	congruent	0.48047	no	T	T
693.8398438	n/a	177623	responseLargeT	correct	n/a	0.48047	no	n/a	n/a
694.90625	n/a	177896	largeHSmallT	correct	incongruent	0.5	no	H	T
695.40625	n/a	178024	responseLargeH	correct	n/a	0.5	no	n/a	n/a
696.4648438	n/a	178295	largeTSmallH	correct	incongruent	0.44531	no	T	H
696.9101562	n/a	178409	responseLargeT	correct	n/a	0.44531	no	n/a	n/a
697.984375	n/a	178684	largeHSmallH	correct	congruent	0.46094	no	H	H
698.4453125	n/a	178802	responseLargeH	correct	n/a	0.46094	no	n/a	n/a
699.5039062	n/a	179073	largeTSmallH	correct	incongruent	0.4375	no	T	H
699.9414062	n/a	179185	responseLargeT	correct	n/a	0.4375	no	n/a	n/a
701.0117188	n/a	179459	largeHSmallH	correct	congruent	0.49219	no	H	H
701.5039062	n/a	179585	responseLargeH	correct	n/a	0.49219	no	n/a	n/a
702.5703125	n/a	179858	largeTSmallH	correct	incongruent	0.41797	no	T	H
702.9882812	n/a	179965	responseLargeT	correct	n/a	0.41797	no	n/a	n/a
704.0507812	n/a	180237	largeTSmallT	correct	congruent	0.44141	no	T	T
704.4921875	n/a	180350	responseLargeT	correct	n/a	0.44141	no	n/a	n/a
705.5585938	n/a	180623	largeHSmallT	correct	incongruent	0.48438	no	H	T
706.0429688	n/a	180747	responseLargeH	correct	n/a	0.48438	no	n/a	n/a
707.1171875	n/a	181022	largeTSmallT	correct	congruent	0.46094	no	T	T
707.578125	n/a	181140	responseLargeT	correct	n/a	0.46094	no	n/a	n/a
708.6523438	n/a	181415	largeHSmallT	correct	incongruent	0.49609	no	H	T
709.1484375	n/a	181542	responseLargeH	correct	n/a	0.49609	no	n/a	n/a
710.2109375	n/a	181814	largeHSmallT	correct	incongruent	0.45312	no	H	T
710.6640625	n/a	181930	responseLargeH	correct	n/a	0.45312	no	n/a	n/a
711.7460938	n/a	182207	largeHSmallH	correct	congruent	0.60156	no	H	H
712.3476562	n/a	182361	responseLargeH	correct	n/a	0.60156	no	n/a	n/a
713.4101562	n/a	182633	largeTSmallT	correct	congruent	0.44141	no	T	T
713.8515625	n/a	182746	responseLargeT	correct	n/a	0.44141	no	n/a	n/a
714.9179688	n/a	183019	largeTSmallH	correct	incongruent	0.38672	no	T	H
715.3046875	n/a	183118	responseLargeT	correct	n/a	0.38672	no	n/a	n/a
716.3710938	n/a	183391	largeTSmallT	correct	congruent	0.42188	no	T	T
716.7929688	n/a	183499	responseLargeT	correct	n/a	0.42188	no	n/a	n/a
717.8515625	n/a	183770	largeTSmallT	correct	congruent	0.53125	no	T	T
718.3828125	n/a	183906	responseLargeT	correct	n/a	0.53125	no	n/a	n/a
719.4492188	n/a	184179	largeHSmallH	correct	congruent	0.43359	no	H	H
719.8828125	n/a	184290	responseLargeH	correct	n/a	0.43359	no	n/a	n/a
720.9570312	n/a	184565	largeTSmallT	correct	congruent	0.44531	no	T	T
721.4023438	n/a	184679	responseLargeT	correct	n/a	0.44531	no	n/a	n/a
722.4765625	n/a	184954	largeTSmallT	correct	congruent	0.42578	no	T	T
722.9023438	n/a	185063	responseLargeT	correct	n/a	0.42578	no	n/a	n/a
723.9726562	n/a	185337	largeTSmallT	correct	congruent	0.41797	no	T	T
724.390625	n/a	185444	responseLargeT	correct	n/a	0.41797	no	n/a	n/a
725.4492188	n/a	185715	largeHSmallT	correct	incongruent	0.46484	no	H	T
725.9140625	n/a	185834	responseLargeH	correct	n/a	0.46484	no	n/a	n/a
726.984375	n/a	186108	largeHSmallT	correct	incongruent	0.47656	no	H	T
727.4609375	n/a	186230	responseLargeH	correct	n/a	0.47656	no	n/a	n/a
728.53125	n/a	186504	largeTSmallH	correct	incongruent	0.67578	no	T	H
729.2070312	n/a	186677	responseLargeT	correct	n/a	0.67578	no	n/a	n/a
730.2773438	n/a	186951	largeHSmallH	correct	congruent	0.42969	no	H	H
730.7070312	n/a	187061	responseLargeH	correct	n/a	0.42969	no	n/a	n/a
731.7695312	n/a	187333	largeTSmallT	correct	congruent	0.48047	no	T	T
732.25	n/a	187456	responseLargeT	correct	n/a	0.48047	no	n/a	n/a
733.3164062	n/a	187729	largeHSmallT	correct	incongruent	0.44141	no	H	T
733.7578125	n/a	187842	responseLargeH	correct	n/a	0.44141	no	n/a	n/a
734.8359375	n/a	188118	largeTSmallT	correct	congruent	0.4375	no	T	T
735.2734375	n/a	188230	responseLargeT	correct	n/a	0.4375	no	n/a	n/a
736.34375	n/a	188504	largeHSmallT	correct	incongruent	0.89844	no	H	T
737.2421875	n/a	188734	responseLargeH	correct	n/a	0.89844	no	n/a	n/a
738.3046875	n/a	189006	largeTSmallH	correct	incongruent	0.4375	no	T	H
738.7421875	n/a	189118	responseLargeT	correct	n/a	0.4375	no	n/a	n/a
739.8125	n/a	189392	largeTSmallH	correct	incongruent	0.52344	no	T	H
740.3359375	n/a	189526	responseLargeT	correct	n/a	0.52344	no	n/a	n/a
741.4101562	n/a	189801	largeHSmallH	correct	congruent	0.60547	no	H	H
742.015625	n/a	189956	responseLargeH	correct	n/a	0.60547	no	n/a	n/a
743.078125	n/a	190228	largeHSmallT	correct	incongruent	0.44922	no	H	T
743.5273438	n/a	190343	responseLargeH	correct	n/a	0.44922	no	n/a	n/a
744.5976562	n/a	190617	largeHSmallT	correct	incongruent	0.49609	no	H	T
745.09375	n/a	190744	responseLargeH	correct	n/a	0.49609	no	n/a	n/a
746.15625	n/a	191016	largeHSmallH	correct	congruent	0.37891	no	H	H
746.5351562	n/a	191113	responseLargeH	correct	n/a	0.37891	no	n/a	n/a
747.609375	n/a	191388	largeHSmallH	correct	congruent	0.44141	no	H	H
748.0507812	n/a	191501	responseLargeH	correct	n/a	0.44141	no	n/a	n/a
749.1171875	n/a	191774	largeHSmallT	correct	incongruent	0.39844	no	H	T
749.515625	n/a	191876	responseLargeH	correct	n/a	0.39844	no	n/a	n/a
750.5859375	n/a	192150	largeHSmallH	correct	congruent	0.33203	no	H	H
750.9179688	n/a	192235	responseLargeH	correct	n/a	0.33203	no	n/a	n/a
751.984375	n/a	192508	largeTSmallH	correct	incongruent	0.52734	no	T	H
752.5117188	n/a	192643	responseLargeT	correct	n/a	0.52734	no	n/a	n/a
753.5820312	n/a	192917	largeHSmallH	correct	congruent	0.46484	no	H	H
754.046875	n/a	193036	responseLargeH	correct	n/a	0.46484	no	n/a	n/a
755.1054688	n/a	193307	largeTSmallH	correct	incongruent	0.48047	no	T	H
755.5859375	n/a	193430	responseLargeT	correct	n/a	0.48047	no	n/a	n/a
756.6523438	n/a	193703	largeTSmallT	correct	congruent	0.47656	no	T	T
757.1289062	n/a	193825	responseLargeT	correct	n/a	0.47656	no	n/a	n/a
758.1953125	n/a	194098	largeHSmallT	correct	incongruent	0.5625	no	H	T
758.7578125	n/a	194242	responseLargeH	correct	n/a	0.5625	no	n/a	n/a
759.8242188	n/a	194515	largeHSmallT	correct	incongruent	0.44531	no	H	T
760.2695312	n/a	194629	responseLargeH	correct	n/a	0.44531	no	n/a	n/a
761.3320312	n/a	194901	largeHSmallT	correct	incongruent	0.43359	no	H	T
761.765625	n/a	195012	responseLargeH	correct	n/a	0.43359	no	n/a	n/a
762.8242188	n/a	195283	largeTSmallH	correct	incongruent	0.51172	no	T	H
763.3359375	n/a	195414	responseLargeT	correct	n/a	0.51172	no	n/a	n/a
764.4101562	n/a	195689	largeHSmallT	correct	incongruent	0.44531	no	H	T
764.8554688	n/a	195803	responseLargeH	correct	n/a	0.44531	no	n/a	n/a
765.9179688	n/a	196075	largeHSmallT	correct	incongruent	0.42969	no	H	T
766.3476562	n/a	196185	responseLargeH	correct	n/a	0.42969	no	n/a	n/a
767.4101562	n/a	196457	largeHSmallH	correct	congruent	0.35156	no	H	H
767.7617188	n/a	196547	responseLargeH	correct	n/a	0.35156	no	n/a	n/a
768.8242188	n/a	196819	largeTSmallH	correct	incongruent	0.49219	no	T	H
769.3164062	n/a	196945	responseLargeT	correct	n/a	0.49219	no	n/a	n/a
770.3828125	n/a	197218	largeTSmallT	correct	congruent	0.37109	no	T	T
770.7539062	n/a	197313	responseLargeT	correct	n/a	0.37109	no	n/a	n/a
771.8085938	n/a	197583	largeTSmallH	correct	incongruent	0.57422	no	T	H
772.3828125	n/a	197730	responseLargeT	correct	n/a	0.57422	no	n/a	n/a
773.4492188	n/a	198003	largeHSmallT	correct	incongruent	0.51562	no	H	T
773.9648438	n/a	198135	responseLargeH	correct	n/a	0.51562	no	n/a	n/a
775.0234375	n/a	198406	largeTSmallH	correct	incongruent	0.40234	no	T	H
775.4257812	n/a	198509	responseLargeT	correct	n/a	0.40234	no	n/a	n/a
776.4882812	n/a	198781	largeHSmallH	correct	congruent	0.45312	no	H	H
776.9414062	n/a	198897	responseLargeH	correct	n/a	0.45312	no	n/a	n/a
778.0117188	n/a	199171	largeTSmallT	correct	congruent	0.42969	no	T	T
778.4414062	n/a	199281	responseLargeT	correct	n/a	0.42969	no	n/a	n/a
779.5039062	n/a	199553	largeTSmallH	correct	incongruent	0.57422	no	T	H
780.078125	n/a	199700	responseLargeT	correct	n/a	0.57422	no	n/a	n/a
781.1445312	n/a	199973	largeTSmallT	correct	congruent	0.40234	no	T	T
781.546875	n/a	200076	responseLargeT	correct	n/a	0.40234	no	n/a	n/a
782.609375	n/a	200348	largeTSmallT	correct	congruent	0.39062	no	T	T
783	n/a	200448	responseLargeT	correct	n/a	0.39062	no	n/a	n/a
784.0625	n/a	200720	largeTSmallT	correct	congruent	0.4375	no	T	T
784.5	n/a	200832	responseLargeT	correct	n/a	0.4375	no	n/a	n/a
785.5546875	n/a	201102	largeHSmallT	correct	incongruent	0.46875	no	H	T
786.0234375	n/a	201222	responseLargeH	correct	n/a	0.46875	no	n/a	n/a
787.0898438	n/a	201495	largeTSmallH	correct	incongruent	0.5	no	T	H
787.5898438	n/a	201623	responseLargeT	correct	n/a	0.5	no	n/a	n/a
788.6640625	n/a	201898	largeHSmallH	correct	congruent	0.44141	no	H	H
789.1054688	n/a	202011	responseLargeH	correct	n/a	0.44141	no	n/a	n/a
790.1679688	n/a	202283	largeHSmallH	correct	congruent	0.42188	no	H	H
790.5898438	n/a	202391	responseLargeH	correct	n/a	0.42188	no	n/a	n/a
791.6640625	n/a	202666	largeTSmallT	correct	congruent	0.67578	no	T	T
792.3398438	n/a	202839	responseLargeT	correct	n/a	0.67578	no	n/a	n/a
793.4101562	n/a	203113	largeTSmallT	correct	congruent	0.375	no	T	T
793.7851562	n/a	203209	responseLargeT	correct	n/a	0.375	no	n/a	n/a
794.8632812	n/a	203485	largeTSmallT	correct	congruent	0.47266	no	T	T
795.3359375	n/a	203606	responseLargeT	correct	n/a	0.47266	no	n/a	n/a
796.3945312	n/a	203877	largeTSmallH	correct	incongruent	0.40234	no	T	H
796.796875	n/a	203980	responseLargeT	correct	n/a	0.40234	no	n/a	n/a
797.8632812	n/a	204253	largeTSmallT	correct	congruent	0.50391	no	T	T
798.3671875	n/a	204382	responseLargeT	correct	n/a	0.50391	no	n/a	n/a
799.421875	n/a	204652	largeTSmallH	correct	incongruent	0.37109	no	T	H
799.7929688	n/a	204747	responseLargeT	correct	n/a	0.37109	no	n/a	n/a
800.8632812	n/a	205021	largeTSmallT	correct	congruent	0.42188	no	T	T
801.2851562	n/a	205129	responseLargeT	correct	n/a	0.42188	no	n/a	n/a
802.34375	n/a	205400	largeHSmallH	correct	congruent	0.46875	no	H	H
802.8125	n/a	205520	responseLargeH	correct	n/a	0.46875	no	n/a	n/a
803.890625	n/a	205796	largeHSmallH	correct	congruent	0.48438	no	H	H
804.375	n/a	205920	responseLargeH	correct	n/a	0.48438	no	n/a	n/a
805.4375	n/a	206192	largeHSmallT	correct	incongruent	0.46484	no	H	T
805.9023438	n/a	206311	responseLargeH	correct	n/a	0.46484	no	n/a	n/a
806.9570312	n/a	206581	largeTSmallH	correct	incongruent	0.64453	no	T	H
807.6015625	n/a	206746	responseLargeT	correct	n/a	0.64453	no	n/a	n/a
808.6640625	n/a	207018	largeHSmallT	correct	incongruent	0.37891	no	H	T
809.0429688	n/a	207115	responseLargeH	correct	n/a	0.37891	no	n/a	n/a
810.1171875	n/a	207390	largeHSmallT	correct	incongruent	0.48828	no	H	T
810.6054688	n/a	207515	responseLargeH	correct	n/a	0.48828	no	n/a	n/a
811.6757812	n/a	207789	largeTSmallH	correct	incongruent	0.45312	no	T	H
812.1289062	n/a	207905	responseLargeT	correct	n/a	0.45312	no	n/a	n/a
813.1953125	n/a	208178	largeTSmallT	correct	congruent	0.46094	no	T	T
813.65625	n/a	208296	responseLargeT	correct	n/a	0.46094	no	n/a	n/a
814.7148438	n/a	208567	largeHSmallH	correct	congruent	0.46875	no	H	H
815.1835938	n/a	208687	responseLargeH	correct	n/a	0.46875	no	n/a	n/a
816.2617188	n/a	208963	largeHSmallH	correct	congruent	0.45312	no	H	H
816.7148438	n/a	209079	responseLargeH	correct	n/a	0.45312	no	n/a	n/a
817.78125	n/a	209352	largeTSmallH	correct	incongruent	0.55859	no	T	H
818.3398438	n/a	209495	responseLargeT	correct	n/a	0.55859	no	n/a	n/a
819.4101562	n/a	209769	largeHSmallT	correct	incongruent	0.51953	no	H	T
819.9296875	n/a	209902	responseLargeH	correct	n/a	0.51953	no	n/a	n/a
821.0078125	n/a	210178	largeTSmallT	correct	congruent	0.57812	no	T	T
821.5859375	n/a	210326	responseLargeT	correct	n/a	0.57812	no	n/a	n/a
822.6484375	n/a	210598	largeTSmallT	correct	congruent	0.46484	no	T	T
823.1132812	n/a	210717	responseLargeT	correct	n/a	0.46484	no	n/a	n/a
824.1835938	n/a	210991	largeHSmallH	correct	congruent	0.54688	no	H	H
824.7304688	n/a	211131	responseLargeH	correct	n/a	0.54688	no	n/a	n/a
825.796875	n/a	211404	largeHSmallT	error	incongruent	0.42188	no	H	T
826.21875	n/a	211512	responseLargeT	error	n/a	0.42188	no	n/a	n/a
827.2890625	n/a	211786	largeTSmallH	correct	incongruent	0.64844	no	T	H
827.9375	n/a	211952	responseLargeT	correct	n/a	0.64844	no	n/a	n/a
829.0078125	n/a	212226	largeTSmallT	correct	congruent	0.52344	no	T	T
829.53125	n/a	212360	responseLargeT	correct	n/a	0.52344	no	n/a	n/a
830.59375	n/a	212632	largeTSmallT	correct	congruent	0.43359	no	T	T
831.0273438	n/a	212743	responseLargeT	correct	n/a	0.43359	no	n/a	n/a
832.0898438	n/a	213015	largeTSmallH	correct	incongruent	0.41016	no	T	H
832.5	n/a	213120	responseLargeT	correct	n/a	0.41016	no	n/a	n/a
833.5820312	n/a	213397	largeTSmallT	correct	congruent	0.51953	no	T	T
834.1015625	n/a	213530	responseLargeT	correct	n/a	0.51953	no	n/a	n/a
835.1679688	n/a	213803	largeTSmallH	correct	incongruent	1.6875	yes	T	H
836.8554688	n/a	214235	responseLargeT	correct	n/a	1.6875	yes	n/a	n/a
837.9296875	n/a	214510	largeTSmallT	correct	congruent	0.41797	no	T	T
838.3476562	n/a	214617	responseLargeT	correct	n/a	0.41797	no	n/a	n/a
839.4101562	n/a	214889	largeHSmallH	correct	congruent	0.48047	no	H	H
839.890625	n/a	215012	responseLargeH	correct	n/a	0.48047	no	n/a	n/a
840.953125	n/a	215284	largeTSmallT	correct	congruent	0.46094	no	T	T
841.4140625	n/a	215402	responseLargeT	correct	n/a	0.46094	no	n/a	n/a
842.4882812	n/a	215677	largeHSmallT	correct	incongruent	0.45703	no	H	T
842.9453125	n/a	215794	responseLargeH	correct	n/a	0.45703	no	n/a	n/a
844.0078125	n/a	216066	largeHSmallH	correct	congruent	0.44531	no	H	H
844.453125	n/a	216180	responseLargeH	correct	n/a	0.44531	no	n/a	n/a
845.5273438	n/a	216455	largeTSmallH	correct	incongruent	0.49609	no	T	H
846.0234375	n/a	216582	responseLargeT	correct	n/a	0.49609	no	n/a	n/a
847.0898438	n/a	216855	largeHSmallT	correct	incongruent	0.61328	no	H	T
847.703125	n/a	217012	responseLargeH	correct	n/a	0.61328	no	n/a	n/a
848.7695312	n/a	217285	largeTSmallT	correct	congruent	0.57031	no	T	T
849.3398438	n/a	217431	responseLargeT	correct	n/a	0.57031	no	n/a	n/a
850.4101562	n/a	217705	largeHSmallT	correct	incongruent	0.55859	no	H	T
850.96875	n/a	217848	responseLargeH	correct	n/a	0.55859	no	n/a	n/a
852.0351562	n/a	218121	largeHSmallH	correct	congruent	0.67188	no	H	H
852.7070312	n/a	218293	responseLargeH	correct	n/a	0.67188	no	n/a	n/a
853.78125	n/a	218568	largeTSmallT	correct	congruent	0.44141	no	T	T
854.2226562	n/a	218681	responseLargeT	correct	n/a	0.44141	no	n/a	n/a
855.2890625	n/a	218954	largeHSmallT	correct	incongruent	0.51562	no	H	T
855.8046875	n/a	219086	responseLargeH	correct	n/a	0.51562	no	n/a	n/a
856.8632812	n/a	219357	largeTSmallH	correct	incongruent	0.45703	no	T	H
857.3203125	n/a	219474	responseLargeT	correct	n/a	0.45703	no	n/a	n/a
858.3945312	n/a	219749	largeHSmallT	correct	incongruent	0.53906	no	H	T
858.9335938	n/a	219887	responseLargeH	correct	n/a	0.53906	no	n/a	n/a
860.0078125	n/a	220162	largeHSmallH	correct	congruent	0.50781	no	H	H
860.515625	n/a	220292	responseLargeH	correct	n/a	0.50781	no	n/a	n/a
861.5820312	n/a	220565	largeHSmallT	correct	incongruent	0.44141	no	H	T
862.0234375	n/a	220678	responseLargeH	correct	n/a	0.44141	no	n/a	n/a
863.0898438	n/a	220951	largeHSmallH	correct	congruent	0.39844	no	H	H
863.4882812	n/a	221053	responseLargeH	correct	n/a	0.39844	no	n/a	n/a
864.5546875	n/a	221326	largeHSmallH	correct	congruent	0.40234	no	H	H
864.9570312	n/a	221429	responseLargeH	correct	n/a	0.40234	no	n/a	n/a
866.0195312	n/a	221701	largeHSmallH	correct	congruent	0.375	no	H	H
866.3945312	n/a	221797	responseLargeH	correct	n/a	0.375	no	n/a	n/a
867.4609375	n/a	222070	largeTSmallH	correct	incongruent	0.53516	no	T	H
867.9960938	n/a	222207	responseLargeT	correct	n/a	0.53516	no	n/a	n/a
869.0625	n/a	222480	largeHSmallH	correct	congruent	0.5	no	H	H
869.5625	n/a	222608	responseLargeH	correct	n/a	0.5	no	n/a	n/a
870.6210938	n/a	222879	largeHSmallH	correct	congruent	0.46484	no	H	H
871.0859375	n/a	222998	responseLargeH	correct	n/a	0.46484	no	n/a	n/a
872.15625	n/a	223272	largeHSmallT	correct	incongruent	0.4375	no	H	T
872.59375	n/a	223384	responseLargeH	correct	n/a	0.4375	no	n/a	n/a
873.6601562	n/a	223657	largeTSmallT	correct	congruent	0.48047	no	T	T
874.140625	n/a	223780	responseLargeT	correct	n/a	0.48047	no	n/a	n/a
875.2070312	n/a	224053	largeTSmallT	correct	congruent	0.64844	no	T	T
875.8554688	n/a	224219	responseLargeT	correct	n/a	0.64844	no	n/a	n/a
876.9296875	n/a	224494	largeTSmallH	correct	incongruent	0.41797	no	T	H
877.3476562	n/a	224601	responseLargeT	correct	n/a	0.41797	no	n/a	n/a
878.40625	n/a	224872	largeHSmallH	correct	congruent	0.48047	no	H	H
878.8867188	n/a	224995	responseLargeH	correct	n/a	0.48047	no	n/a	n/a
879.953125	n/a	225268	largeTSmallH	correct	incongruent	0.47266	no	T	H
880.4257812	n/a	225389	responseLargeT	correct	n/a	0.47266	no	n/a	n/a
881.5	n/a	225664	largeHSmallH	correct	congruent	0.54688	no	H	H
882.046875	n/a	225804	responseLargeH	correct	n/a	0.54688	no	n/a	n/a
883.1289062	n/a	226081	largeHSmallH	correct	congruent	0.48828	no	H	H
883.6171875	n/a	226206	responseLargeH	correct	n/a	0.48828	no	n/a	n/a
884.6875	n/a	226480	largeTSmallH	correct	incongruent	0.50781	no	T	H
885.1953125	n/a	226610	responseLargeT	correct	n/a	0.50781	no	n/a	n/a
886.2617188	n/a	226883	largeHSmallT	correct	incongruent	0.41016	no	H	T
886.671875	n/a	226988	responseLargeH	correct	n/a	0.41016	no	n/a	n/a
887.7421875	n/a	227262	largeHSmallH	correct	congruent	0.46875	no	H	H
888.2109375	n/a	227382	responseLargeH	correct	n/a	0.46875	no	n/a	n/a
889.2890625	n/a	227658	largeTSmallT	correct	congruent	0.47656	no	T	T
889.765625	n/a	227780	responseLargeT	correct	n/a	0.47656	no	n/a	n/a
890.8359375	n/a	228054	largeTSmallH	correct	incongruent	0.53906	no	T	H
891.375	n/a	228192	responseLargeT	correct	n/a	0.53906	no	n/a	n/a
892.4492188	n/a	228467	largeHSmallH	correct	congruent	0.39844	no	H	H
892.8476562	n/a	228569	responseLargeH	correct	n/a	0.39844	no	n/a	n/a
893.9140625	n/a	228842	largeHSmallT	correct	incongruent	0.5625	no	H	T
894.4765625	n/a	228986	responseLargeH	correct	n/a	0.5625	no	n/a	n/a
895.5390625	n/a	229258	largeHSmallH	correct	congruent	0.41406	no	H	H
895.953125	n/a	229364	responseLargeH	correct	n/a	0.41406	no	n/a	n/a
897.0195312	n/a	229637	largeTSmallH	correct	incongruent	0.49219	no	T	H
897.5117188	n/a	229763	responseLargeT	correct	n/a	0.49219	no	n/a	n/a
898.5820312	n/a	230037	largeTSmallH	correct	incongruent	0.45312	no	T	H
899.0351562	n/a	230153	responseLargeT	correct	n/a	0.45312	no	n/a	n/a
900.1015625	n/a	230426	largeTSmallH	correct	incongruent	0.45703	no	T	H
900.5585938	n/a	230543	responseLargeT	correct	n/a	0.45703	no	n/a	n/a
901.6210938	n/a	230815	largeTSmallH	correct	incongruent	0.38281	no	T	H
902.0039062	n/a	230913	responseLargeT	correct	n/a	0.38281	no	n/a	n/a
903.0742188	n/a	231187	largeTSmallT	correct	congruent	0.42188	no	T	T
903.4960938	n/a	231295	responseLargeT	correct	n/a	0.42188	no	n/a	n/a
904.5546875	n/a	231566	largeHSmallH	correct	congruent	0.46484	no	H	H
905.0195312	n/a	231685	responseLargeH	correct	n/a	0.46484	no	n/a	n/a
906.0859375	n/a	231958	largeHSmallT	correct	incongruent	0.38672	no	H	T
906.4726562	n/a	232057	responseLargeH	correct	n/a	0.38672	no	n/a	n/a
907.5390625	n/a	232330	largeHSmallH	correct	congruent	0.57031	no	H	H
908.109375	n/a	232476	responseLargeH	correct	n/a	0.57031	no	n/a	n/a
909.1679688	n/a	232747	largeHSmallH	correct	congruent	0.40234	no	H	H
909.5703125	n/a	232850	responseLargeH	correct	n/a	0.40234	no	n/a	n/a
910.6328125	n/a	233122	largeHSmallH	correct	congruent	0.42969	no	H	H
911.0625	n/a	233232	responseLargeH	correct	n/a	0.42969	no	n/a	n/a
912.140625	n/a	233508	largeTSmallH	correct	incongruent	0.61328	no	T	H
912.7539062	n/a	233665	responseLargeT	correct	n/a	0.61328	no	n/a	n/a
913.8203125	n/a	233938	largeTSmallT	correct	congruent	0.43359	no	T	T
914.2539062	n/a	234049	responseLargeT	correct	n/a	0.43359	no	n/a	n/a
915.328125	n/a	234324	largeTSmallH	correct	incongruent	0.41797	no	T	H
915.7460938	n/a	234431	responseLargeT	correct	n/a	0.41797	no	n/a	n/a
916.8203125	n/a	234706	largeTSmallT	correct	congruent	0.36719	no	T	T
917.1875	n/a	234800	responseLargeT	correct	n/a	0.36719	no	n/a	n/a
918.2460938	n/a	235071	largeHSmallT	correct	incongruent	0.5625	no	H	T
918.8085938	n/a	235215	responseLargeH	correct	n/a	0.5625	no	n/a	n/a
919.875	n/a	235488	largeHSmallH	correct	congruent	0.37891	no	H	H
920.2539062	n/a	235585	responseLargeH	correct	n/a	0.37891	no	n/a	n/a
921.328125	n/a	235860	largeTSmallT	correct	congruent	0.46484	no	T	T
921.7929688	n/a	235979	responseLargeT	correct	n/a	0.46484	no	n/a	n/a
922.859375	n/a	236252	largeTSmallH	correct	incongruent	0.38672	no	T	H
923.2460938	n/a	236351	responseLargeT	correct	n/a	0.38672	no	n/a	n/a
924.3007812	n/a	236621	largeHSmallT	correct	incongruent	0.60547	no	H	T
924.90625	n/a	236776	responseLargeH	correct	n/a	0.60547	no	n/a	n/a
925.9804688	n/a	237051	largeHSmallT	correct	incongruent	0.42578	no	H	T
926.40625	n/a	237160	responseLargeH	correct	n/a	0.42578	no	n/a	n/a
927.4726562	n/a	237433	largeHSmallH	correct	congruent	0.74609	no	H	H
928.21875	n/a	237624	responseLargeH	correct	n/a	0.74609	no	n/a	n/a
929.2851562	n/a	237897	largeHSmallT	correct	incongruent	0.51953	no	H	T
929.8046875	n/a	238030	responseLargeH	correct	n/a	0.51953	no	n/a	n/a
930.875	n/a	238304	largeTSmallT	correct	congruent	0.44922	no	T	T
931.3242188	n/a	238419	responseLargeT	correct	n/a	0.44922	no	n/a	n/a
932.3945312	n/a	238693	largeHSmallT	correct	incongruent	0.44531	no	H	T
932.8398438	n/a	238807	responseLargeH	correct	n/a	0.44531	no	n/a	n/a
933.8984375	n/a	239078	largeTSmallT	correct	congruent	0.42969	no	T	T
934.328125	n/a	239188	responseLargeT	correct	n/a	0.42969	no	n/a	n/a
935.3945312	n/a	239461	largeHSmallH	correct	congruent	0.41797	no	H	H
935.8125	n/a	239568	responseLargeH	correct	n/a	0.41797	no	n/a	n/a
936.875	n/a	239840	largeTSmallH	correct	incongruent	0.48438	no	T	H
937.359375	n/a	239964	responseLargeT	correct	n/a	0.48438	no	n/a	n/a
938.4179688	n/a	240235	largeTSmallH	correct	incongruent	0.47656	no	T	H
938.8945312	n/a	240357	responseLargeT	correct	n/a	0.47656	no	n/a	n/a
939.9648438	n/a	240631	largeTSmallT	correct	congruent	0.46875	no	T	T
940.4335938	n/a	240751	responseLargeT	correct	n/a	0.46875	no	n/a	n/a
941.5	n/a	241024	largeHSmallH	correct	congruent	0.63281	no	H	H
942.1328125	n/a	241186	responseLargeH	correct	n/a	0.63281	no	n/a	n/a
943.1914062	n/a	241457	largeTSmallH	correct	incongruent	0.48047	no	T	H
943.671875	n/a	241580	responseLargeT	correct	n/a	0.48047	no	n/a	n/a
944.7382812	n/a	241853	largeHSmallT	correct	incongruent	0.39844	no	H	T
945.1367188	n/a	241955	responseLargeH	correct	n/a	0.39844	no	n/a	n/a
946.2070312	n/a	242229	largeTSmallT	correct	congruent	0.46484	no	T	T
946.671875	n/a	242348	responseLargeT	correct	n/a	0.46484	no	n/a	n/a
947.7382812	n/a	242621	largeHSmallT	correct	incongruent	0.42969	no	H	T
948.1679688	n/a	242731	responseLargeH	correct	n/a	0.42969	no	n/a	n/a
949.234375	n/a	243004	largeHSmallT	correct	incongruent	0.46094	no	H	T
949.6953125	n/a	243122	responseLargeH	correct	n/a	0.46094	no	n/a	n/a
950.765625	n/a	243396	largeHSmallH	error	congruent	0.55078	no	H	H
951.3164062	n/a	243537	responseLargeT	error	n/a	0.55078	no	n/a	n/a
952.3945312	n/a	243813	largeHSmallT	correct	incongruent	0.54297	no	H	T
952.9375	n/a	243952	responseLargeH	correct	n/a	0.54297	no	n/a	n/a
954.0078125	n/a	244226	largeTSmallH	correct	incongruent	0.5625	no	T	H
954.5703125	n/a	244370	responseLargeT	correct	n/a	0.5625	no	n/a	n/a
955.6445312	n/a	244645	largeHSmallH	correct	congruent	0.47656	no	H	H
956.1210938	n/a	244767	responseLargeH	correct	n/a	0.47656	no	n/a	n/a
957.1914062	n/a	245041	largeTSmallT	correct	congruent	0.4375	no	T	T
957.6289062	n/a	245153	responseLargeT	correct	n/a	0.4375	no	n/a	n/a
958.6875	n/a	245424	largeTSmallT	correct	congruent	0.48438	no	T	T
959.171875	n/a	245548	responseLargeT	correct	n/a	0.48438	no	n/a	n/a
960.234375	n/a	245820	largeTSmallH	correct	incongruent	0.375	no	T	H
960.609375	n/a	245916	responseLargeT	correct	n/a	0.375	no	n/a	n/a
961.6875	n/a	246192	largeTSmallH	correct	incongruent	0.46875	no	T	H
962.15625	n/a	246312	responseLargeT	correct	n/a	0.46875	no	n/a	n/a
963.234375	n/a	246588	largeHSmallT	correct	incongruent	0.47266	no	H	T
963.7070312	n/a	246709	responseLargeH	correct	n/a	0.47266	no	n/a	n/a
964.765625	n/a	246980	largeTSmallT	correct	congruent	0.44141	no	T	T
965.2070312	n/a	247093	responseLargeT	correct	n/a	0.44141	no	n/a	n/a
966.2734375	n/a	247366	largeTSmallT	correct	congruent	0.48438	no	T	T
966.7578125	n/a	247490	responseLargeT	correct	n/a	0.48438	no	n/a	n/a
967.8320312	n/a	247765	largeHSmallT	correct	incongruent	0.55859	no	H	T
968.390625	n/a	247908	responseLargeH	correct	n/a	0.55859	no	n/a	n/a
969.4609375	n/a	248182	largeHSmallH	correct	congruent	0.45703	no	H	H
969.9179688	n/a	248299	responseLargeH	correct	n/a	0.45703	no	n/a	n/a
970.9804688	n/a	248571	largeHSmallH	correct	congruent	0.35547	no	H	H
971.3359375	n/a	248662	responseLargeH	correct	n/a	0.35547	no	n/a	n/a
972.40625	n/a	248936	largeHSmallT	correct	incongruent	0.42578	no	H	T
972.8320312	n/a	249045	responseLargeH	correct	n/a	0.42578	no	n/a	n/a
973.8984375	n/a	249318	largeHSmallH	correct	congruent	0.38281	no	H	H
974.28125	n/a	249416	responseLargeH	correct	n/a	0.38281	no	n/a	n/a
975.3515625	n/a	249690	largeHSmallT	correct	incongruent	0.33594	no	H	T
975.6875	n/a	249776	responseLargeH	correct	n/a	0.33594	no	n/a	n/a
993.5234375	n/a	254342	largeTSmallH	correct	incongruent	0.64453	no	T	H
994.1679688	n/a	254507	responseSmallH	correct	n/a	0.64453	no	n/a	n/a
995.2304688	n/a	254779	largeHSmallH	correct	congruent	0.4375	no	H	H
995.6679688	n/a	254891	responseSmallH	correct	n/a	0.4375	no	n/a	n/a
996.7382812	n/a	255165	largeHSmallT	correct	incongruent	0.47266	no	H	T
997.2109375	n/a	255286	responseSmallT	correct	n/a	0.47266	no	n/a	n/a
998.2851562	n/a	255561	largeHSmallT	correct	incongruent	0.55469	no	H	T
998.8398438	n/a	255703	responseSmallT	correct	n/a	0.55469	no	n/a	n/a
999.8984375	n/a	255974	largeTSmallT	correct	congruent	0.45312	no	T	T
1000.351562	n/a	256090	responseSmallT	correct	n/a	0.45312	no	n/a	n/a
1001.417969	n/a	256363	largeTSmallT	correct	congruent	0.44922	no	T	T
1001.867188	n/a	256478	responseSmallT	correct	n/a	0.44922	no	n/a	n/a
1002.925781	n/a	256749	largeHSmallT	correct	incongruent	0.51172	no	H	T
1003.4375	n/a	256880	responseSmallT	correct	n/a	0.51172	no	n/a	n/a
1004.511719	n/a	257155	largeHSmallH	correct	congruent	0.54297	no	H	H
1005.054688	n/a	257294	responseSmallH	correct	n/a	0.54297	no	n/a	n/a
1006.125	n/a	257568	largeTSmallT	correct	congruent	0.58594	no	T	T
1006.710938	n/a	257718	responseSmallT	correct	n/a	0.58594	no	n/a	n/a
1007.777344	n/a	257991	largeHSmallT	correct	incongruent	0.57422	no	H	T
1008.351562	n/a	258138	responseSmallT	correct	n/a	0.57422	no	n/a	n/a
1009.417969	n/a	258411	largeTSmallT	correct	congruent	0.45703	no	T	T
1009.875	n/a	258528	responseSmallT	correct	n/a	0.45703	no	n/a	n/a
1010.953125	n/a	258804	largeHSmallH	correct	congruent	0.47656	no	H	H
1011.429688	n/a	258926	responseSmallH	correct	n/a	0.47656	no	n/a	n/a
1012.5	n/a	259200	largeHSmallT	correct	incongruent	0.44531	no	H	T
1012.945312	n/a	259314	responseSmallT	correct	n/a	0.44531	no	n/a	n/a
1014.019531	n/a	259589	largeTSmallH	correct	incongruent	0.50391	no	T	H
1014.523438	n/a	259718	responseSmallH	correct	n/a	0.50391	no	n/a	n/a
1015.578125	n/a	259988	largeTSmallH	correct	incongruent	0.44531	no	T	H
1016.023438	n/a	260102	responseSmallH	correct	n/a	0.44531	no	n/a	n/a
1017.097656	n/a	260377	largeHSmallH	correct	congruent	0.61328	no	H	H
1017.710938	n/a	260534	responseSmallH	correct	n/a	0.61328	no	n/a	n/a
1018.777344	n/a	260807	largeHSmallT	correct	incongruent	0.42578	no	H	T
1019.203125	n/a	260916	responseSmallT	correct	n/a	0.42578	no	n/a	n/a
1020.269531	n/a	261189	largeTSmallT	correct	congruent	0.38281	no	T	T
1020.652344	n/a	261287	responseSmallT	correct	n/a	0.38281	no	n/a	n/a
1021.710938	n/a	261558	largeHSmallT	correct	incongruent	0.42969	no	H	T
1022.140625	n/a	261668	responseSmallT	correct	n/a	0.42969	no	n/a	n/a
1023.21875	n/a	261944	largeHSmallH	correct	congruent	0.41016	no	H	H
1023.628906	n/a	262049	responseSmallH	correct	n/a	0.41016	no	n/a	n/a
1024.699219	n/a	262323	largeTSmallH	correct	incongruent	0.43359	no	T	H
1025.132812	n/a	262434	responseSmallH	correct	n/a	0.43359	no	n/a	n/a
1026.203125	n/a	262708	largeTSmallT	correct	congruent	0.55469	no	T	T
1026.757812	n/a	262850	responseSmallT	correct	n/a	0.55469	no	n/a	n/a
1027.832031	n/a	263125	largeHSmallT	correct	incongruent	0.48047	no	H	T
1028.3125	n/a	263248	responseSmallT	correct	n/a	0.48047	no	n/a	n/a
1029.378906	n/a	263521	largeHSmallT	correct	incongruent	0.42188	no	H	T
1029.800781	n/a	263629	responseSmallT	correct	n/a	0.42188	no	n/a	n/a
1030.871094	n/a	263903	largeTSmallT	correct	congruent	0.41016	no	T	T
1031.28125	n/a	264008	responseSmallT	correct	n/a	0.41016	no	n/a	n/a
1032.351562	n/a	264282	largeTSmallT	correct	congruent	0.47656	no	T	T
1032.828125	n/a	264404	responseSmallT	correct	n/a	0.47656	no	n/a	n/a
1033.898438	n/a	264678	largeTSmallH	correct	incongruent	0.46484	no	T	H
1034.363281	n/a	264797	responseSmallH	correct	n/a	0.46484	no	n/a	n/a
1035.417969	n/a	265067	largeTSmallT	correct	congruent	0.49219	no	T	T
1035.910156	n/a	265193	responseSmallT	correct	n/a	0.49219	no	n/a	n/a
1036.976562	n/a	265466	largeTSmallT	correct	congruent	0.49609	no	T	T
1037.472656	n/a	265593	responseSmallT	correct	n/a	0.49609	no	n/a	n/a
1038.550781	n/a	265869	largeHSmallT	correct	incongruent	0.44531	no	H	T
1038.996094	n/a	265983	responseSmallT	correct	n/a	0.44531	no	n/a	n/a
1040.058594	n/a	266255	largeTSmallH	correct	incongruent	0.45312	no	T	H
1040.511719	n/a	266371	responseSmallH	correct	n/a	0.45312	no	n/a	n/a
1041.589844	n/a	266647	largeTSmallT	correct	congruent	0.51172	no	T	T
1042.101562	n/a	266778	responseSmallT	correct	n/a	0.51172	no	n/a	n/a
1043.164062	n/a	267050	largeTSmallT	correct	congruent	0.52344	no	T	T
1043.6875	n/a	267184	responseSmallT	correct	n/a	0.52344	no	n/a	n/a
1044.75	n/a	267456	largeTSmallT	correct	congruent	0.50391	no	T	T
1045.253906	n/a	267585	responseSmallT	correct	n/a	0.50391	no	n/a	n/a
1046.3125	n/a	267856	largeHSmallT	correct	incongruent	0.49609	no	H	T
1046.808594	n/a	267983	responseSmallT	correct	n/a	0.49609	no	n/a	n/a
1047.871094	n/a	268255	largeHSmallT	correct	incongruent	0.46484	no	H	T
1048.335938	n/a	268374	responseSmallT	correct	n/a	0.46484	no	n/a	n/a
1049.402344	n/a	268647	largeHSmallH	correct	congruent	0.51172	no	H	H
1049.914062	n/a	268778	responseSmallH	correct	n/a	0.51172	no	n/a	n/a
1050.976562	n/a	269050	largeTSmallT	correct	congruent	0.51172	no	T	T
1051.488281	n/a	269181	responseSmallT	correct	n/a	0.51172	no	n/a	n/a
1052.550781	n/a	269453	largeTSmallT	correct	congruent	0.48828	no	T	T
1053.039062	n/a	269578	responseSmallT	correct	n/a	0.48828	no	n/a	n/a
1054.109375	n/a	269852	largeTSmallH	correct	incongruent	0.48438	no	T	H
1054.59375	n/a	269976	responseSmallH	correct	n/a	0.48438	no	n/a	n/a
1055.65625	n/a	270248	largeHSmallT	correct	incongruent	0.71094	no	H	T
1056.367188	n/a	270430	responseSmallT	correct	n/a	0.71094	no	n/a	n/a
1057.445312	n/a	270706	largeTSmallH	correct	incongruent	0.53906	no	T	H
1057.984375	n/a	270844	responseSmallH	correct	n/a	0.53906	no	n/a	n/a
1059.058594	n/a	271119	largeHSmallT	correct	incongruent	0.51953	no	H	T
1059.578125	n/a	271252	responseSmallT	correct	n/a	0.51953	no	n/a	n/a
1060.65625	n/a	271528	largeHSmallT	correct	incongruent	0.48047	no	H	T
1061.136719	n/a	271651	responseSmallT	correct	n/a	0.48047	no	n/a	n/a
1062.21875	n/a	271928	largeTSmallT	correct	congruent	0.46484	no	T	T
1062.683594	n/a	272047	responseSmallT	correct	n/a	0.46484	no	n/a	n/a
1063.75	n/a	272320	largeHSmallT	correct	incongruent	0.46875	no	H	T
1064.21875	n/a	272440	responseSmallT	correct	n/a	0.46875	no	n/a	n/a
1065.285156	n/a	272713	largeHSmallH	correct	congruent	0.42188	no	H	H
1065.707031	n/a	272821	responseSmallH	correct	n/a	0.42188	no	n/a	n/a
1066.777344	n/a	273095	largeHSmallH	correct	congruent	0.40625	no	H	H
1067.183594	n/a	273199	responseSmallH	correct	n/a	0.40625	no	n/a	n/a
1068.242188	n/a	273470	largeHSmallH	correct	congruent	0.48438	no	H	H
1068.726562	n/a	273594	responseSmallH	correct	n/a	0.48438	no	n/a	n/a
1069.789062	n/a	273866	largeHSmallH	correct	congruent	0.41406	no	H	H
1070.203125	n/a	273972	responseSmallH	correct	n/a	0.41406	no	n/a	n/a
1071.269531	n/a	274245	largeTSmallT	correct	congruent	0.57812	no	T	T
1071.847656	n/a	274393	responseSmallT	correct	n/a	0.57812	no	n/a	n/a
1072.910156	n/a	274665	largeTSmallH	correct	incongruent	0.64844	no	T	H
1073.558594	n/a	274831	responseSmallH	correct	n/a	0.64844	no	n/a	n/a
1074.628906	n/a	275105	largeTSmallT	correct	congruent	0.59375	no	T	T
1075.222656	n/a	275257	responseSmallT	correct	n/a	0.59375	no	n/a	n/a
1076.296875	n/a	275532	largeHSmallH	correct	congruent	0.44141	no	H	H
1076.738281	n/a	275645	responseSmallH	correct	n/a	0.44141	no	n/a	n/a
1077.804688	n/a	275918	largeTSmallH	correct	incongruent	0.42578	no	T	H
1078.230469	n/a	276027	responseSmallH	correct	n/a	0.42578	no	n/a	n/a
1079.296875	n/a	276300	largeHSmallT	correct	incongruent	0.50391	no	H	T
1079.800781	n/a	276429	responseSmallT	correct	n/a	0.50391	no	n/a	n/a
1080.871094	n/a	276703	largeTSmallT	correct	congruent	0.47656	no	T	T
1081.347656	n/a	276825	responseSmallT	correct	n/a	0.47656	no	n/a	n/a
1082.417969	n/a	277099	largeTSmallH	correct	incongruent	0.58984	no	T	H
1083.007812	n/a	277250	responseSmallH	correct	n/a	0.58984	no	n/a	n/a
1084.082031	n/a	277525	largeTSmallH	correct	incongruent	0.39062	no	T	H
1084.472656	n/a	277625	responseSmallH	correct	n/a	0.39062	no	n/a	n/a
1085.550781	n/a	277901	largeHSmallH	correct	congruent	0.39062	no	H	H
1085.941406	n/a	278001	responseSmallH	correct	n/a	0.39062	no	n/a	n/a
1087.015625	n/a	278276	largeHSmallT	correct	incongruent	0.47266	no	H	T
1087.488281	n/a	278397	responseSmallT	correct	n/a	0.47266	no	n/a	n/a
1088.5625	n/a	278672	largeHSmallH	correct	congruent	0.42578	no	H	H
1088.988281	n/a	278781	responseSmallH	correct	n/a	0.42578	no	n/a	n/a
1090.054688	n/a	279054	largeTSmallH	correct	incongruent	0.50781	no	T	H
1090.5625	n/a	279184	responseSmallH	correct	n/a	0.50781	no	n/a	n/a
1091.628906	n/a	279457	largeHSmallH	correct	congruent	0.54688	no	H	H
1092.175781	n/a	279597	responseSmallH	correct	n/a	0.54688	no	n/a	n/a
1093.242188	n/a	279870	largeTSmallT	correct	congruent	0.5	no	T	T
1093.742188	n/a	279998	responseSmallT	correct	n/a	0.5	no	n/a	n/a
1094.816406	n/a	280273	largeHSmallT	correct	incongruent	0.49219	no	H	T
1095.308594	n/a	280399	responseSmallT	correct	n/a	0.49219	no	n/a	n/a
1096.375	n/a	280672	largeHSmallH	correct	congruent	0.44922	no	H	H
1096.824219	n/a	280787	responseSmallH	correct	n/a	0.44922	no	n/a	n/a
1097.882812	n/a	281058	largeTSmallH	correct	incongruent	0.42578	no	T	H
1098.308594	n/a	281167	responseSmallH	correct	n/a	0.42578	no	n/a	n/a
1099.363281	n/a	281437	largeHSmallT	correct	incongruent	0.47656	no	H	T
1099.839844	n/a	281559	responseSmallT	correct	n/a	0.47656	no	n/a	n/a
1100.894531	n/a	281829	largeTSmallH	correct	incongruent	0.42578	no	T	H
1101.320312	n/a	281938	responseSmallH	correct	n/a	0.42578	no	n/a	n/a
1102.375	n/a	282208	largeHSmallT	correct	incongruent	0.48438	no	H	T
1102.859375	n/a	282332	responseSmallT	correct	n/a	0.48438	no	n/a	n/a
1103.921875	n/a	282604	largeTSmallT	correct	congruent	0.52344	no	T	T
1104.445312	n/a	282738	responseSmallT	correct	n/a	0.52344	no	n/a	n/a
1105.523438	n/a	283014	largeHSmallT	correct	incongruent	0.48828	no	H	T
1106.011719	n/a	283139	responseSmallT	correct	n/a	0.48828	no	n/a	n/a
1107.082031	n/a	283413	largeHSmallH	correct	congruent	0.47656	no	H	H
1107.558594	n/a	283535	responseSmallH	correct	n/a	0.47656	no	n/a	n/a
1108.617188	n/a	283806	largeHSmallT	correct	incongruent	0.44922	no	H	T
1109.066406	n/a	283921	responseSmallT	correct	n/a	0.44922	no	n/a	n/a
1110.136719	n/a	284195	largeHSmallT	correct	incongruent	0.38672	no	H	T
1110.523438	n/a	284294	responseSmallT	correct	n/a	0.38672	no	n/a	n/a
1111.589844	n/a	284567	largeHSmallT	correct	incongruent	0.375	no	H	T
1111.964844	n/a	284663	responseSmallT	correct	n/a	0.375	no	n/a	n/a
1113.027344	n/a	284935	largeTSmallH	correct	incongruent	0.62891	no	T	H
1113.65625	n/a	285096	responseSmallH	correct	n/a	0.62891	no	n/a	n/a
1114.722656	n/a	285369	largeTSmallT	correct	congruent	0.44531	no	T	T
1115.167969	n/a	285483	responseSmallT	correct	n/a	0.44531	no	n/a	n/a
1116.230469	n/a	285755	largeTSmallH	correct	incongruent	0.44141	no	T	H
1116.671875	n/a	285868	responseSmallH	correct	n/a	0.44141	no	n/a	n/a
1117.75	n/a	286144	largeTSmallH	correct	incongruent	0.48047	no	T	H
1118.230469	n/a	286267	responseSmallH	correct	n/a	0.48047	no	n/a	n/a
1119.308594	n/a	286543	largeTSmallT	correct	congruent	0.48047	no	T	T
1119.789062	n/a	286666	responseSmallT	correct	n/a	0.48047	no	n/a	n/a
1120.855469	n/a	286939	largeTSmallH	correct	incongruent	0.45703	no	T	H
1121.3125	n/a	287056	responseSmallH	correct	n/a	0.45703	no	n/a	n/a
1122.375	n/a	287328	largeHSmallT	correct	incongruent	0.48438	no	H	T
1122.859375	n/a	287452	responseSmallT	correct	n/a	0.48438	no	n/a	n/a
1123.921875	n/a	287724	largeTSmallT	error	congruent	0.47656	no	T	T
1124.398438	n/a	287846	responseSmallH	error	n/a	0.47656	no	n/a	n/a
1125.46875	n/a	288120	largeHSmallH	correct	congruent	0.52344	no	H	H
1125.992188	n/a	288254	responseSmallH	correct	n/a	0.52344	no	n/a	n/a
1127.054688	n/a	288526	largeHSmallT	correct	incongruent	0.42188	no	H	T
1127.476562	n/a	288634	responseSmallT	correct	n/a	0.42188	no	n/a	n/a
1128.550781	n/a	288909	largeTSmallH	correct	incongruent	0.42969	no	T	H
1128.980469	n/a	289019	responseSmallH	correct	n/a	0.42969	no	n/a	n/a
1130.054688	n/a	289294	largeTSmallH	correct	incongruent	0.63672	no	T	H
1130.691406	n/a	289457	responseSmallH	correct	n/a	0.63672	no	n/a	n/a
1131.761719	n/a	289731	largeTSmallT	correct	congruent	0.46875	no	T	T
1132.230469	n/a	289851	responseSmallT	correct	n/a	0.46875	no	n/a	n/a
1133.296875	n/a	290124	largeHSmallH	correct	congruent	0.44922	no	H	H
1133.746094	n/a	290239	responseSmallH	correct	n/a	0.44922	no	n/a	n/a
1134.816406	n/a	290513	largeTSmallT	correct	congruent	0.58594	no	T	T
1135.402344	n/a	290663	responseSmallT	correct	n/a	0.58594	no	n/a	n/a
1136.46875	n/a	290936	largeTSmallH	correct	incongruent	0.51953	no	T	H
1136.988281	n/a	291069	responseSmallH	correct	n/a	0.51953	no	n/a	n/a
1138.054688	n/a	291342	largeTSmallT	correct	congruent	0.69922	no	T	T
1138.753906	n/a	291521	responseSmallT	correct	n/a	0.69922	no	n/a	n/a
1139.816406	n/a	291793	largeHSmallH	correct	congruent	0.50781	no	H	H
1140.324219	n/a	291923	responseSmallH	correct	n/a	0.50781	no	n/a	n/a
1141.402344	n/a	292199	largeHSmallH	correct	congruent	0.68359	no	H	H
1142.085938	n/a	292374	responseSmallH	correct	n/a	0.68359	no	n/a	n/a
1143.160156	n/a	292649	largeHSmallH	correct	congruent	0.44531	no	H	H
1143.605469	n/a	292763	responseSmallH	correct	n/a	0.44531	no	n/a	n/a
1144.667969	n/a	293035	largeHSmallH	correct	congruent	0.38281	no	H	H
1145.050781	n/a	293133	responseSmallH	correct	n/a	0.38281	no	n/a	n/a
1146.121094	n/a	293407	largeHSmallH	correct	congruent	0.36719	no	H	H
1146.488281	n/a	293501	responseSmallH	correct	n/a	0.36719	no	n/a	n/a
1147.5625	n/a	293776	largeTSmallT	correct	congruent	0.48047	no	T	T
1148.042969	n/a	293899	responseSmallT	correct	n/a	0.48047	no	n/a	n/a
1149.09375	n/a	294168	largeHSmallT	correct	incongruent	0.41406	no	H	T
1149.507812	n/a	294274	responseSmallT	correct	n/a	0.41406	no	n/a	n/a
1150.574219	n/a	294547	largeTSmallH	correct	incongruent	0.4375	no	T	H
1151.011719	n/a	294659	responseSmallH	correct	n/a	0.4375	no	n/a	n/a
1152.082031	n/a	294933	largeTSmallH	correct	incongruent	0.39844	no	T	H
1152.480469	n/a	295035	responseSmallH	correct	n/a	0.39844	no	n/a	n/a
1153.546875	n/a	295308	largeHSmallT	correct	incongruent	0.53516	no	H	T
1154.082031	n/a	295445	responseSmallT	correct	n/a	0.53516	no	n/a	n/a
1155.148438	n/a	295718	largeTSmallH	correct	incongruent	0.39062	no	T	H
1155.539062	n/a	295818	responseSmallH	correct	n/a	0.39062	no	n/a	n/a
1156.601562	n/a	296090	largeHSmallH	correct	congruent	0.41016	no	H	H
1157.011719	n/a	296195	responseSmallH	correct	n/a	0.41016	no	n/a	n/a
1158.066406	n/a	296465	largeHSmallH	correct	congruent	0.41797	no	H	H
1158.484375	n/a	296572	responseSmallH	correct	n/a	0.41797	no	n/a	n/a
1159.550781	n/a	296845	largeHSmallH	correct	congruent	0.42188	no	H	H
1159.972656	n/a	296953	responseSmallH	correct	n/a	0.42188	no	n/a	n/a
1161.042969	n/a	297227	largeTSmallT	correct	congruent	0.90625	no	T	T
1161.949219	n/a	297459	responseSmallT	correct	n/a	0.90625	no	n/a	n/a
1163.015625	n/a	297732	largeTSmallT	correct	congruent	0.44141	no	T	T
1163.457031	n/a	297845	responseSmallT	correct	n/a	0.44141	no	n/a	n/a
1164.535156	n/a	298121	largeHSmallT	correct	incongruent	0.40625	no	H	T
1164.941406	n/a	298225	responseSmallT	correct	n/a	0.40625	no	n/a	n/a
1166.015625	n/a	298500	largeHSmallT	correct	incongruent	0.55469	no	H	T
1166.570312	n/a	298642	responseSmallT	correct	n/a	0.55469	no	n/a	n/a
1167.640625	n/a	298916	largeHSmallT	correct	incongruent	0.39062	no	H	T
1168.03125	n/a	299016	responseSmallT	correct	n/a	0.39062	no	n/a	n/a
1169.09375	n/a	299288	largeHSmallT	correct	incongruent	0.4375	no	H	T
1169.53125	n/a	299400	responseSmallT	correct	n/a	0.4375	no	n/a	n/a
1170.601562	n/a	299674	largeHSmallH	correct	congruent	0.42578	no	H	H
1171.027344	n/a	299783	responseSmallH	correct	n/a	0.42578	no	n/a	n/a
1172.09375	n/a	300056	largeTSmallT	correct	congruent	0.42578	no	T	T
1172.519531	n/a	300165	responseSmallT	correct	n/a	0.42578	no	n/a	n/a
1173.601562	n/a	300442	largeHSmallT	correct	incongruent	0.45312	no	H	T
1174.054688	n/a	300558	responseSmallT	correct	n/a	0.45312	no	n/a	n/a
1175.121094	n/a	300831	largeTSmallT	correct	congruent	0.50391	no	T	T
1175.625	n/a	300960	responseSmallT	correct	n/a	0.50391	no	n/a	n/a
1176.695312	n/a	301234	largeHSmallH	correct	congruent	0.4375	no	H	H
1177.132812	n/a	301346	responseSmallH	correct	n/a	0.4375	no	n/a	n/a
1178.203125	n/a	301620	largeHSmallH	correct	congruent	0.39062	no	H	H
1178.59375	n/a	301720	responseSmallH	correct	n/a	0.39062	no	n/a	n/a
1179.667969	n/a	301995	largeHSmallH	correct	congruent	0.35547	no	H	H
1180.023438	n/a	302086	responseSmallH	correct	n/a	0.35547	no	n/a	n/a
1181.082031	n/a	302357	largeHSmallH	correct	congruent	0.375	no	H	H
1181.457031	n/a	302453	responseSmallH	correct	n/a	0.375	no	n/a	n/a
1182.519531	n/a	302725	largeTSmallH	correct	incongruent	0.57422	no	T	H
1183.09375	n/a	302872	responseSmallH	correct	n/a	0.57422	no	n/a	n/a
1184.160156	n/a	303145	largeTSmallH	correct	incongruent	0.46094	no	T	H
1184.621094	n/a	303263	responseSmallH	correct	n/a	0.46094	no	n/a	n/a
1185.679688	n/a	303534	largeHSmallH	correct	congruent	0.45312	no	H	H
1186.132812	n/a	303650	responseSmallH	correct	n/a	0.45312	no	n/a	n/a
1187.199219	n/a	303923	largeHSmallH	correct	congruent	0.41016	no	H	H
1187.609375	n/a	304028	responseSmallH	correct	n/a	0.41016	no	n/a	n/a
1188.679688	n/a	304302	largeTSmallH	correct	incongruent	0.35938	no	T	H
1189.039062	n/a	304394	responseSmallH	correct	n/a	0.35938	no	n/a	n/a
1190.09375	n/a	304664	largeHSmallH	correct	congruent	0.35156	no	H	H
1190.445312	n/a	304754	responseSmallH	correct	n/a	0.35156	no	n/a	n/a
1191.519531	n/a	305029	largeTSmallT	error	congruent	0.31641	no	T	T
1191.835938	n/a	305110	responseSmallH	error	n/a	0.31641	no	n/a	n/a
