onset	duration	sample	value	response_type	congruence	response_time	response_out_of_range	largeletter	smallletter
19.3828125	n/a	4962	largeHSmallH	correct	congruent	0.63672	no	H	H
20.01953125	n/a	5125	responseLargeH	correct	n/a	0.63672	no	n/a	n/a
21.0859375	n/a	5398	largeTSmallH	correct	incongruent	0.67969	no	T	H
21.765625	n/a	5572	responseLargeT	correct	n/a	0.67969	no	n/a	n/a
22.83203125	n/a	5845	largeHSmallH	correct	congruent	0.44141	no	H	H
23.2734375	n/a	5958	responseLargeH	correct	n/a	0.44141	no	n/a	n/a
24.33984375	n/a	6231	largeTSmallH	correct	incongruent	0.46484	no	T	H
24.8046875	n/a	6350	responseLargeT	correct	n/a	0.46484	no	n/a	n/a
25.87109375	n/a	6623	largeHSmallT	error	incongruent	0.51172	no	H	T
26.3828125	n/a	6754	responseLargeT	error	n/a	0.51172	no	n/a	n/a
27.4453125	n/a	7026	largeTSmallT	correct	congruent	0.60547	no	T	T
28.05078125	n/a	7181	responseLargeT	correct	n/a	0.60547	no	n/a	n/a
29.11328125	n/a	7453	largeTSmallH	correct	incongruent	0.62891	no	T	H
29.7421875	n/a	7614	responseLargeT	correct	n/a	0.62891	no	n/a	n/a
30.8046875	n/a	7886	largeTSmallT	correct	congruent	0.48047	no	T	T
31.28515625	n/a	8009	responseLargeT	correct	n/a	0.48047	no	n/a	n/a
32.3515625	n/a	8282	largeHSmallH	correct	congruent	0.34375	no	H	H
32.6953125	n/a	8370	responseLargeH	correct	n/a	0.34375	no	n/a	n/a
33.765625	n/a	8644	largeTSmallT	correct	congruent	0.50781	no	T	T
34.2734375	n/a	8774	responseLargeT	correct	n/a	0.50781	no	n/a	n/a
35.33984375	n/a	9047	largeHSmallH	correct	congruent	0.46484	no	H	H
35.8046875	n/a	9166	responseLargeH	correct	n/a	0.46484	no	n/a	n/a
36.87109375	n/a	9439	largeTSmallT	correct	congruent	0.43359	no	T	T
37.3046875	n/a	9550	responseLargeT	correct	n/a	0.43359	no	n/a	n/a
38.3671875	n/a	9822	largeHSmallH	correct	congruent	0.37891	no	H	H
38.74609375	n/a	9919	responseLargeH	correct	n/a	0.37891	no	n/a	n/a
39.8203125	n/a	10194	largeHSmallH	correct	congruent	0.5625	no	H	H
40.3828125	n/a	10338	responseLargeH	correct	n/a	0.5625	no	n/a	n/a
41.4453125	n/a	10610	largeHSmallH	correct	congruent	0.42188	no	H	H
41.8671875	n/a	10718	responseLargeH	correct	n/a	0.42188	no	n/a	n/a
42.92578125	n/a	10989	largeHSmallH	correct	congruent	0.35938	no	H	H
43.28515625	n/a	11081	responseLargeH	correct	n/a	0.35938	no	n/a	n/a
44.3671875	n/a	11358	largeTSmallT	correct	congruent	0.44531	no	T	T
44.8125	n/a	11472	responseLargeT	correct	n/a	0.44531	no	n/a	n/a
45.88671875	n/a	11747	largeHSmallT	correct	incongruent	0.8125	no	H	T
46.69921875	n/a	11955	responseLargeH	correct	n/a	0.8125	no	n/a	n/a
47.765625	n/a	12228	largeTSmallH	correct	incongruent	0.61328	no	T	H
48.37890625	n/a	12385	responseLargeT	correct	n/a	0.61328	no	n/a	n/a
49.4453125	n/a	12658	largeTSmallT	correct	congruent	0.38672	no	T	T
49.83203125	n/a	12757	responseLargeT	correct	n/a	0.38672	no	n/a	n/a
50.8984375	n/a	13030	largeTSmallH	correct	incongruent	0.38672	no	T	H
51.28515625	n/a	13129	responseLargeT	correct	n/a	0.38672	no	n/a	n/a
52.3515625	n/a	13402	largeTSmallH	correct	incongruent	0.38672	no	T	H
52.73828125	n/a	13501	responseLargeT	correct	n/a	0.38672	no	n/a	n/a
53.79296875	n/a	13771	largeTSmallT	correct	congruent	0.42969	no	T	T
54.22265625	n/a	13881	responseLargeT	correct	n/a	0.42969	no	n/a	n/a
55.296875	n/a	14156	largeHSmallH	correct	congruent	0.38281	no	H	H
55.6796875	n/a	14254	responseLargeH	correct	n/a	0.38281	no	n/a	n/a
56.75390625	n/a	14529	largeHSmallT	correct	incongruent	0.49219	no	H	T
57.24609375	n/a	14655	responseLargeH	correct	n/a	0.49219	no	n/a	n/a
58.3125	n/a	14928	largeTSmallH	correct	incongruent	0.51172	no	T	H
58.82421875	n/a	15059	responseLargeT	correct	n/a	0.51172	no	n/a	n/a
59.8984375	n/a	15334	largeTSmallT	correct	congruent	0.45703	no	T	T
60.35546875	n/a	15451	responseLargeT	correct	n/a	0.45703	no	n/a	n/a
61.43359375	n/a	15727	largeTSmallH	correct	incongruent	0.52734	no	T	H
61.9609375	n/a	15862	responseLargeT	correct	n/a	0.52734	no	n/a	n/a
63.03125	n/a	16136	largeHSmallH	correct	congruent	0.35938	no	H	H
63.390625	n/a	16228	responseLargeH	correct	n/a	0.35938	no	n/a	n/a
64.45703125	n/a	16501	largeHSmallH	correct	congruent	0.42969	no	H	H
64.88671875	n/a	16611	responseLargeH	correct	n/a	0.42969	no	n/a	n/a
65.953125	n/a	16884	largeHSmallH	correct	congruent	0.35547	no	H	H
66.30859375	n/a	16975	responseLargeH	correct	n/a	0.35547	no	n/a	n/a
67.37890625	n/a	17249	largeTSmallT	correct	congruent	0.44141	no	T	T
67.8203125	n/a	17362	responseLargeT	correct	n/a	0.44141	no	n/a	n/a
68.88671875	n/a	17635	largeTSmallH	correct	incongruent	0.39062	no	T	H
69.27734375	n/a	17735	responseLargeT	correct	n/a	0.39062	no	n/a	n/a
70.3515625	n/a	18010	largeTSmallH	correct	incongruent	0.39844	no	T	H
70.75	n/a	18112	responseLargeT	correct	n/a	0.39844	no	n/a	n/a
71.81640625	n/a	18385	largeTSmallT	correct	congruent	0.40625	no	T	T
72.22265625	n/a	18489	responseLargeT	correct	n/a	0.40625	no	n/a	n/a
73.296875	n/a	18764	largeHSmallT	correct	incongruent	0.40234	no	H	T
73.69921875	n/a	18867	responseLargeH	correct	n/a	0.40234	no	n/a	n/a
74.765625	n/a	19140	largeHSmallH	correct	congruent	0.33594	no	H	H
75.1015625	n/a	19226	responseLargeH	correct	n/a	0.33594	no	n/a	n/a
76.1640625	n/a	19498	largeTSmallT	correct	congruent	0.51562	no	T	T
76.6796875	n/a	19630	responseLargeT	correct	n/a	0.51562	no	n/a	n/a
77.75	n/a	19904	largeTSmallT	correct	congruent	0.45312	no	T	T
78.203125	n/a	20020	responseLargeT	correct	n/a	0.45312	no	n/a	n/a
79.2734375	n/a	20294	largeTSmallT	correct	congruent	0.37891	no	T	T
79.65234375	n/a	20391	responseLargeT	correct	n/a	0.37891	no	n/a	n/a
80.7265625	n/a	20666	largeTSmallT	correct	congruent	0.44141	no	T	T
81.16796875	n/a	20779	responseLargeT	correct	n/a	0.44141	no	n/a	n/a
82.23046875	n/a	21051	largeHSmallT	correct	incongruent	0.50781	no	H	T
82.73828125	n/a	21181	responseLargeH	correct	n/a	0.50781	no	n/a	n/a
83.81640625	n/a	21457	largeTSmallH	correct	incongruent	0.40234	no	T	H
84.21875	n/a	21560	responseLargeT	correct	n/a	0.40234	no	n/a	n/a
85.28515625	n/a	21833	largeTSmallH	correct	incongruent	0.37891	no	T	H
85.6640625	n/a	21930	responseLargeT	correct	n/a	0.37891	no	n/a	n/a
86.72265625	n/a	22201	largeHSmallH	correct	congruent	0.51172	no	H	H
87.234375	n/a	22332	responseLargeH	correct	n/a	0.51172	no	n/a	n/a
88.3125	n/a	22608	largeHSmallH	correct	congruent	0.43359	no	H	H
88.74609375	n/a	22719	responseLargeH	correct	n/a	0.43359	no	n/a	n/a
89.81640625	n/a	22993	largeTSmallH	correct	incongruent	0.46875	no	T	H
90.28515625	n/a	23113	responseLargeT	correct	n/a	0.46875	no	n/a	n/a
91.3515625	n/a	23386	largeTSmallH	correct	incongruent	0.40234	no	T	H
91.75390625	n/a	23489	responseLargeT	correct	n/a	0.40234	no	n/a	n/a
92.83203125	n/a	23765	largeHSmallH	correct	congruent	0.47656	no	H	H
93.30859375	n/a	23887	responseLargeH	correct	n/a	0.47656	no	n/a	n/a
94.37890625	n/a	24161	largeHSmallH	correct	congruent	0.37891	no	H	H
94.7578125	n/a	24258	responseLargeH	correct	n/a	0.37891	no	n/a	n/a
95.81640625	n/a	24529	largeTSmallH	correct	incongruent	0.45312	no	T	H
96.26953125	n/a	24645	responseLargeT	correct	n/a	0.45312	no	n/a	n/a
97.3359375	n/a	24918	largeTSmallT	correct	congruent	0.42969	no	T	T
97.765625	n/a	25028	responseLargeT	correct	n/a	0.42969	no	n/a	n/a
98.83203125	n/a	25301	largeTSmallH	correct	incongruent	0.5	no	T	H
99.33203125	n/a	25429	responseLargeT	correct	n/a	0.5	no	n/a	n/a
100.390625	n/a	25700	largeHSmallH	correct	congruent	0.38672	no	H	H
100.7773438	n/a	25799	responseLargeH	correct	n/a	0.38672	no	n/a	n/a
101.84375	n/a	26072	largeTSmallH	correct	incongruent	0.43359	no	T	H
102.2773438	n/a	26183	responseLargeT	correct	n/a	0.43359	no	n/a	n/a
103.3359375	n/a	26454	largeHSmallT	correct	incongruent	0.42969	no	H	T
103.765625	n/a	26564	responseLargeH	correct	n/a	0.42969	no	n/a	n/a
104.8164062	n/a	26833	largeTSmallT	correct	congruent	0.41797	no	T	T
105.234375	n/a	26940	responseLargeT	correct	n/a	0.41797	no	n/a	n/a
106.296875	n/a	27212	largeHSmallT	correct	incongruent	0.40234	no	H	T
106.6992188	n/a	27315	responseLargeH	correct	n/a	0.40234	no	n/a	n/a
107.765625	n/a	27588	largeTSmallT	correct	congruent	0.49609	no	T	T
108.2617188	n/a	27715	responseLargeT	correct	n/a	0.49609	no	n/a	n/a
109.3359375	n/a	27990	largeHSmallH	correct	congruent	0.39453	no	H	H
109.7304688	n/a	28091	responseLargeH	correct	n/a	0.39453	no	n/a	n/a
110.8046875	n/a	28366	largeHSmallT	error	incongruent	0.38672	no	H	T
111.1914062	n/a	28465	responseLargeT	error	n/a	0.38672	no	n/a	n/a
112.2695312	n/a	28741	largeHSmallH	correct	congruent	0.44531	no	H	H
112.7148438	n/a	28855	responseLargeH	correct	n/a	0.44531	no	n/a	n/a
113.7773438	n/a	29127	largeTSmallT	correct	congruent	0.45312	no	T	T
114.2304688	n/a	29243	responseLargeT	correct	n/a	0.45312	no	n/a	n/a
115.296875	n/a	29516	largeTSmallH	correct	incongruent	0.73438	no	T	H
116.03125	n/a	29704	responseLargeT	correct	n/a	0.73438	no	n/a	n/a
117.0976562	n/a	29977	largeHSmallH	correct	congruent	0.46875	no	H	H
117.5664062	n/a	30097	responseLargeH	correct	n/a	0.46875	no	n/a	n/a
118.6289062	n/a	30369	largeTSmallH	correct	incongruent	0.46875	no	T	H
119.0976562	n/a	30489	responseLargeT	correct	n/a	0.46875	no	n/a	n/a
120.1640625	n/a	30762	largeTSmallH	correct	incongruent	0.49219	no	T	H
120.65625	n/a	30888	responseLargeT	correct	n/a	0.49219	no	n/a	n/a
121.7226562	n/a	31161	largeTSmallH	correct	incongruent	0.4375	no	T	H
122.1601562	n/a	31273	responseLargeT	correct	n/a	0.4375	no	n/a	n/a
123.2304688	n/a	31547	largeTSmallH	correct	incongruent	0.49219	no	T	H
123.7226562	n/a	31673	responseLargeT	correct	n/a	0.49219	no	n/a	n/a
124.7890625	n/a	31946	largeTSmallT	correct	congruent	0.4375	no	T	T
125.2265625	n/a	32058	responseLargeT	correct	n/a	0.4375	no	n/a	n/a
126.296875	n/a	32332	largeTSmallH	correct	incongruent	0.48047	no	T	H
126.7773438	n/a	32455	responseLargeT	correct	n/a	0.48047	no	n/a	n/a
127.8554688	n/a	32731	largeHSmallT	correct	incongruent	0.4375	no	H	T
128.2929688	n/a	32843	responseLargeH	correct	n/a	0.4375	no	n/a	n/a
129.3632812	n/a	33117	largeTSmallT	correct	congruent	0.46094	no	T	T
129.8242188	n/a	33235	responseLargeT	correct	n/a	0.46094	no	n/a	n/a
130.8984375	n/a	33510	largeTSmallT	correct	congruent	0.46875	no	T	T
131.3671875	n/a	33630	responseLargeT	correct	n/a	0.46875	no	n/a	n/a
132.4414062	n/a	33905	largeHSmallH	correct	congruent	0.58203	no	H	H
133.0234375	n/a	34054	responseLargeH	correct	n/a	0.58203	no	n/a	n/a
134.0976562	n/a	34329	largeHSmallT	correct	incongruent	0.46094	no	H	T
134.5585938	n/a	34447	responseLargeH	correct	n/a	0.46094	no	n/a	n/a
135.6171875	n/a	34718	largeTSmallH	correct	incongruent	0.66406	no	T	H
136.28125	n/a	34888	responseLargeT	correct	n/a	0.66406	no	n/a	n/a
137.3515625	n/a	35162	largeTSmallT	correct	congruent	0.54297	no	T	T
137.8945312	n/a	35301	responseLargeT	correct	n/a	0.54297	no	n/a	n/a
138.9648438	n/a	35575	largeHSmallT	correct	incongruent	0.46484	no	H	T
139.4296875	n/a	35694	responseLargeH	correct	n/a	0.46484	no	n/a	n/a
140.4960938	n/a	35967	largeTSmallT	correct	congruent	0.40234	no	T	T
140.8984375	n/a	36070	responseLargeT	correct	n/a	0.40234	no	n/a	n/a
141.9648438	n/a	36343	largeTSmallT	correct	congruent	0.38281	no	T	T
142.3476562	n/a	36441	responseLargeT	correct	n/a	0.38281	no	n/a	n/a
143.4179688	n/a	36715	largeHSmallH	correct	congruent	0.40625	no	H	H
143.8242188	n/a	36819	responseLargeH	correct	n/a	0.40625	no	n/a	n/a
144.8828125	n/a	37090	largeTSmallT	correct	congruent	0.42969	no	T	T
145.3125	n/a	37200	responseLargeT	correct	n/a	0.42969	no	n/a	n/a
146.390625	n/a	37476	largeTSmallH	correct	incongruent	0.43359	no	T	H
146.8242188	n/a	37587	responseLargeT	correct	n/a	0.43359	no	n/a	n/a
147.8945312	n/a	37861	largeTSmallH	correct	incongruent	0.41797	no	T	H
148.3125	n/a	37968	responseLargeT	correct	n/a	0.41797	no	n/a	n/a
149.375	n/a	38240	largeHSmallT	correct	incongruent	0.37891	no	H	T
149.7539062	n/a	38337	responseLargeH	correct	n/a	0.37891	no	n/a	n/a
150.8164062	n/a	38609	largeTSmallT	correct	congruent	0.45703	no	T	T
151.2734375	n/a	38726	responseLargeT	correct	n/a	0.45703	no	n/a	n/a
152.3515625	n/a	39002	largeTSmallT	correct	congruent	0.44531	no	T	T
152.796875	n/a	39116	responseLargeT	correct	n/a	0.44531	no	n/a	n/a
153.8554688	n/a	39387	largeTSmallH	correct	incongruent	0.64844	no	T	H
154.5039062	n/a	39553	responseLargeT	correct	n/a	0.64844	no	n/a	n/a
155.5742188	n/a	39827	largeHSmallH	correct	congruent	0.44531	no	H	H
156.0195312	n/a	39941	responseLargeH	correct	n/a	0.44531	no	n/a	n/a
157.0820312	n/a	40213	largeHSmallT	correct	incongruent	0.51953	no	H	T
157.6015625	n/a	40346	responseLargeH	correct	n/a	0.51953	no	n/a	n/a
158.6835938	n/a	40623	largeHSmallT	correct	incongruent	0.40625	no	H	T
159.0898438	n/a	40727	responseLargeH	correct	n/a	0.40625	no	n/a	n/a
160.1640625	n/a	41002	largeHSmallT	correct	incongruent	0.41016	no	H	T
160.5742188	n/a	41107	responseLargeH	correct	n/a	0.41016	no	n/a	n/a
161.6445312	n/a	41381	largeHSmallH	correct	congruent	0.49219	no	H	H
162.1367188	n/a	41507	responseLargeH	correct	n/a	0.49219	no	n/a	n/a
163.203125	n/a	41780	largeHSmallT	correct	incongruent	0.40234	no	H	T
163.6054688	n/a	41883	responseLargeH	correct	n/a	0.40234	no	n/a	n/a
164.6679688	n/a	42155	largeTSmallH	correct	incongruent	0.45703	no	T	H
165.125	n/a	42272	responseLargeT	correct	n/a	0.45703	no	n/a	n/a
166.203125	n/a	42548	largeHSmallH	correct	congruent	0.4375	no	H	H
166.640625	n/a	42660	responseLargeH	correct	n/a	0.4375	no	n/a	n/a
167.7109375	n/a	42934	largeTSmallT	correct	congruent	0.43359	no	T	T
168.1445312	n/a	43045	responseLargeT	correct	n/a	0.43359	no	n/a	n/a
169.203125	n/a	43316	largeHSmallT	error	incongruent	0.49609	no	H	T
169.6992188	n/a	43443	responseLargeT	error	n/a	0.49609	no	n/a	n/a
170.7617188	n/a	43715	largeHSmallT	correct	incongruent	0.57812	no	H	T
171.3398438	n/a	43863	responseLargeH	correct	n/a	0.57812	no	n/a	n/a
172.4023438	n/a	44135	largeTSmallT	correct	congruent	0.52734	no	T	T
172.9296875	n/a	44270	responseLargeT	correct	n/a	0.52734	no	n/a	n/a
174.0039062	n/a	44545	largeHSmallH	correct	congruent	0.46094	no	H	H
174.4648438	n/a	44663	responseLargeH	correct	n/a	0.46094	no	n/a	n/a
175.5507812	n/a	44941	largeHSmallT	correct	incongruent	0.39844	no	H	T
175.9492188	n/a	45043	responseLargeH	correct	n/a	0.39844	no	n/a	n/a
177.015625	n/a	45316	largeTSmallT	correct	congruent	0.51953	no	T	T
177.5351562	n/a	45449	responseLargeT	correct	n/a	0.51953	no	n/a	n/a
178.6015625	n/a	45722	largeTSmallT	correct	congruent	0.51172	no	T	T
179.1132812	n/a	45853	responseLargeT	correct	n/a	0.51172	no	n/a	n/a
180.1757812	n/a	46125	largeHSmallT	correct	incongruent	0.42578	no	H	T
180.6015625	n/a	46234	responseLargeH	correct	n/a	0.42578	no	n/a	n/a
181.6679688	n/a	46507	largeTSmallT	correct	congruent	0.40625	no	T	T
182.0742188	n/a	46611	responseLargeT	correct	n/a	0.40625	no	n/a	n/a
183.1367188	n/a	46883	largeHSmallT	correct	incongruent	0.37891	no	H	T
183.515625	n/a	46980	responseLargeH	correct	n/a	0.37891	no	n/a	n/a
184.5898438	n/a	47255	largeTSmallH	correct	incongruent	0.41016	no	T	H
185	n/a	47360	responseLargeT	correct	n/a	0.41016	no	n/a	n/a
186.0703125	n/a	47634	largeTSmallH	correct	incongruent	0.50781	no	T	H
186.578125	n/a	47764	responseLargeT	correct	n/a	0.50781	no	n/a	n/a
187.640625	n/a	48036	largeHSmallT	correct	incongruent	0.47266	no	H	T
188.1132812	n/a	48157	responseLargeH	correct	n/a	0.47266	no	n/a	n/a
189.1757812	n/a	48429	largeTSmallH	correct	incongruent	0.85547	no	T	H
190.03125	n/a	48648	responseLargeT	correct	n/a	0.85547	no	n/a	n/a
191.09375	n/a	48920	largeHSmallH	correct	congruent	0.44922	no	H	H
191.5429688	n/a	49035	responseLargeH	correct	n/a	0.44922	no	n/a	n/a
192.6015625	n/a	49306	largeTSmallT	correct	congruent	0.43359	no	T	T
193.0351562	n/a	49417	responseLargeT	correct	n/a	0.43359	no	n/a	n/a
194.109375	n/a	49692	largeHSmallT	correct	incongruent	0.47656	no	H	T
194.5859375	n/a	49814	responseLargeH	correct	n/a	0.47656	no	n/a	n/a
195.65625	n/a	50088	largeHSmallH	correct	congruent	0.49609	no	H	H
196.1523438	n/a	50215	responseLargeH	correct	n/a	0.49609	no	n/a	n/a
197.2304688	n/a	50491	largeHSmallT	correct	incongruent	0.43359	no	H	T
197.6640625	n/a	50602	responseLargeH	correct	n/a	0.43359	no	n/a	n/a
198.7226562	n/a	50873	largeHSmallH	correct	congruent	0.40234	no	H	H
199.125	n/a	50976	responseLargeH	correct	n/a	0.40234	no	n/a	n/a
200.1875	n/a	51248	largeTSmallH	correct	incongruent	0.44531	no	T	H
200.6328125	n/a	51362	responseLargeT	correct	n/a	0.44531	no	n/a	n/a
201.6953125	n/a	51634	largeHSmallT	correct	incongruent	0.44922	no	H	T
202.1445312	n/a	51749	responseLargeH	correct	n/a	0.44922	no	n/a	n/a
203.2148438	n/a	52023	largeHSmallH	correct	congruent	0.50781	no	H	H
203.7226562	n/a	52153	responseLargeH	correct	n/a	0.50781	no	n/a	n/a
204.7890625	n/a	52426	largeHSmallH	correct	congruent	0.49219	no	H	H
205.28125	n/a	52552	responseLargeH	correct	n/a	0.49219	no	n/a	n/a
206.3476562	n/a	52825	largeHSmallH	correct	congruent	0.39844	no	H	H
206.7460938	n/a	52927	responseLargeH	correct	n/a	0.39844	no	n/a	n/a
207.8164062	n/a	53201	largeTSmallH	correct	incongruent	0.50781	no	T	H
208.3242188	n/a	53331	responseLargeT	correct	n/a	0.50781	no	n/a	n/a
209.3867188	n/a	53603	largeTSmallH	correct	incongruent	0.64844	no	T	H
210.0351562	n/a	53769	responseLargeT	correct	n/a	0.64844	no	n/a	n/a
211.109375	n/a	54044	largeHSmallT	correct	incongruent	0.58984	no	H	T
211.6992188	n/a	54195	responseLargeH	correct	n/a	0.58984	no	n/a	n/a
212.7617188	n/a	54467	largeTSmallT	correct	congruent	0.5625	no	T	T
213.3242188	n/a	54611	responseLargeT	correct	n/a	0.5625	no	n/a	n/a
214.3867188	n/a	54883	largeHSmallT	correct	incongruent	0.46484	no	H	T
214.8515625	n/a	55002	responseLargeH	correct	n/a	0.46484	no	n/a	n/a
215.9101562	n/a	55273	largeHSmallT	error	incongruent	0.39453	no	H	T
216.3046875	n/a	55374	responseLargeT	error	n/a	0.39453	no	n/a	n/a
217.3632812	n/a	55645	largeHSmallT	correct	incongruent	0.5625	no	H	T
217.9257812	n/a	55789	responseLargeH	correct	n/a	0.5625	no	n/a	n/a
218.9882812	n/a	56061	largeTSmallT	correct	congruent	0.51172	no	T	T
219.5	n/a	56192	responseLargeT	correct	n/a	0.51172	no	n/a	n/a
220.5625	n/a	56464	largeHSmallH	correct	congruent	0.41406	no	H	H
220.9765625	n/a	56570	responseLargeH	correct	n/a	0.41406	no	n/a	n/a
222.0429688	n/a	56843	largeHSmallH	correct	congruent	0.4375	no	H	H
222.4804688	n/a	56955	responseLargeH	correct	n/a	0.4375	no	n/a	n/a
223.546875	n/a	57228	largeHSmallT	correct	incongruent	0.50781	no	H	T
224.0546875	n/a	57358	responseLargeH	correct	n/a	0.50781	no	n/a	n/a
225.1210938	n/a	57631	largeTSmallH	correct	incongruent	0.81641	no	T	H
225.9375	n/a	57840	responseLargeT	correct	n/a	0.81641	no	n/a	n/a
227	n/a	58112	largeHSmallT	correct	incongruent	0.41406	no	H	T
227.4140625	n/a	58218	responseLargeH	correct	n/a	0.41406	no	n/a	n/a
228.4804688	n/a	58491	largeHSmallT	correct	incongruent	0.45703	no	H	T
228.9375	n/a	58608	responseLargeH	correct	n/a	0.45703	no	n/a	n/a
230	n/a	58880	largeHSmallT	correct	incongruent	0.41016	no	H	T
230.4101562	n/a	58985	responseLargeH	correct	n/a	0.41016	no	n/a	n/a
231.4804688	n/a	59259	largeTSmallT	correct	congruent	0.46094	no	T	T
231.9414062	n/a	59377	responseLargeT	correct	n/a	0.46094	no	n/a	n/a
233.015625	n/a	59652	largeTSmallH	correct	incongruent	0.45703	no	T	H
233.4726562	n/a	59769	responseLargeT	correct	n/a	0.45703	no	n/a	n/a
234.546875	n/a	60044	largeTSmallT	correct	congruent	0.45312	no	T	T
235	n/a	60160	responseLargeT	correct	n/a	0.45312	no	n/a	n/a
236.0664062	n/a	60433	largeHSmallT	correct	incongruent	0.61719	no	H	T
236.6835938	n/a	60591	responseLargeH	correct	n/a	0.61719	no	n/a	n/a
237.7617188	n/a	60867	largeTSmallH	error	incongruent	0.48438	no	T	H
238.2460938	n/a	60991	responseLargeH	error	n/a	0.48438	no	n/a	n/a
239.3085938	n/a	61263	largeTSmallH	correct	incongruent	1.2656	no	T	H
240.5742188	n/a	61587	responseLargeT	correct	n/a	1.2656	no	n/a	n/a
241.640625	n/a	61860	largeHSmallT	correct	incongruent	0.41406	no	H	T
242.0546875	n/a	61966	responseLargeH	correct	n/a	0.41406	no	n/a	n/a
243.1210938	n/a	62239	largeHSmallH	correct	congruent	0.46094	no	H	H
243.5820312	n/a	62357	responseLargeH	correct	n/a	0.46094	no	n/a	n/a
244.65625	n/a	62632	largeTSmallH	correct	incongruent	0.47266	no	T	H
245.1289062	n/a	62753	responseLargeT	correct	n/a	0.47266	no	n/a	n/a
246.1875	n/a	63024	largeHSmallH	correct	congruent	0.46875	no	H	H
246.65625	n/a	63144	responseLargeH	correct	n/a	0.46875	no	n/a	n/a
247.7226562	n/a	63417	largeHSmallH	correct	congruent	0.41797	no	H	H
248.140625	n/a	63524	responseLargeH	correct	n/a	0.41797	no	n/a	n/a
249.1992188	n/a	63795	largeHSmallH	correct	congruent	0.40234	no	H	H
249.6015625	n/a	63898	responseLargeH	correct	n/a	0.40234	no	n/a	n/a
250.6679688	n/a	64171	largeTSmallT	correct	congruent	0.73047	no	T	T
251.3984375	n/a	64358	responseLargeT	correct	n/a	0.73047	no	n/a	n/a
252.46875	n/a	64632	largeHSmallT	correct	incongruent	0.52344	no	H	T
252.9921875	n/a	64766	responseLargeH	correct	n/a	0.52344	no	n/a	n/a
254.0546875	n/a	65038	largeTSmallT	correct	congruent	0.53906	no	T	T
254.59375	n/a	65176	responseLargeT	correct	n/a	0.53906	no	n/a	n/a
255.6679688	n/a	65451	largeHSmallT	correct	incongruent	0.45312	no	H	T
256.1210938	n/a	65567	responseLargeH	correct	n/a	0.45312	no	n/a	n/a
257.1875	n/a	65840	largeTSmallH	correct	incongruent	0.5	no	T	H
257.6875	n/a	65968	responseLargeT	correct	n/a	0.5	no	n/a	n/a
258.7460938	n/a	66239	largeHSmallH	correct	congruent	0.44922	no	H	H
259.1953125	n/a	66354	responseLargeH	correct	n/a	0.44922	no	n/a	n/a
260.265625	n/a	66628	largeHSmallH	correct	congruent	0.44922	no	H	H
260.7148438	n/a	66743	responseLargeH	correct	n/a	0.44922	no	n/a	n/a
261.7734375	n/a	67014	largeHSmallT	correct	incongruent	0.41797	no	H	T
262.1914062	n/a	67121	responseLargeH	correct	n/a	0.41797	no	n/a	n/a
263.265625	n/a	67396	largeTSmallH	correct	incongruent	0.48047	no	T	H
263.7460938	n/a	67519	responseLargeT	correct	n/a	0.48047	no	n/a	n/a
264.828125	n/a	67796	largeTSmallT	correct	congruent	0.51953	no	T	T
265.3476562	n/a	67929	responseLargeT	correct	n/a	0.51953	no	n/a	n/a
266.4140625	n/a	68202	largeHSmallT	correct	incongruent	0.62891	no	H	T
267.0429688	n/a	68363	responseLargeH	correct	n/a	0.62891	no	n/a	n/a
268.1054688	n/a	68635	largeTSmallT	correct	congruent	0.42578	no	T	T
268.53125	n/a	68744	responseLargeT	correct	n/a	0.42578	no	n/a	n/a
269.6015625	n/a	69018	largeTSmallH	correct	incongruent	0.73828	no	T	H
270.3398438	n/a	69207	responseLargeT	correct	n/a	0.73828	no	n/a	n/a
271.3984375	n/a	69478	largeHSmallH	correct	congruent	0.46484	no	H	H
271.8632812	n/a	69597	responseLargeH	correct	n/a	0.46484	no	n/a	n/a
272.9335938	n/a	69871	largeTSmallH	correct	incongruent	0.47266	no	T	H
273.40625	n/a	69992	responseLargeT	correct	n/a	0.47266	no	n/a	n/a
274.4804688	n/a	70267	largeTSmallT	correct	congruent	0.46094	no	T	T
274.9414062	n/a	70385	responseLargeT	correct	n/a	0.46094	no	n/a	n/a
276	n/a	70656	largeHSmallT	correct	incongruent	0.46094	no	H	T
276.4609375	n/a	70774	responseLargeH	correct	n/a	0.46094	no	n/a	n/a
277.5351562	n/a	71049	largeTSmallH	correct	incongruent	0.54297	no	T	H
278.078125	n/a	71188	responseLargeT	correct	n/a	0.54297	no	n/a	n/a
279.1484375	n/a	71462	largeTSmallH	correct	incongruent	0.50391	no	T	H
279.6523438	n/a	71591	responseLargeT	correct	n/a	0.50391	no	n/a	n/a
280.71875	n/a	71864	largeTSmallT	correct	congruent	0.51562	no	T	T
281.234375	n/a	71996	responseLargeT	correct	n/a	0.51562	no	n/a	n/a
282.3085938	n/a	72271	largeTSmallT	correct	congruent	0.45312	no	T	T
282.7617188	n/a	72387	responseLargeT	correct	n/a	0.45312	no	n/a	n/a
283.828125	n/a	72660	largeHSmallH	correct	congruent	0.42969	no	H	H
284.2578125	n/a	72770	responseLargeH	correct	n/a	0.42969	no	n/a	n/a
285.3203125	n/a	73042	largeHSmallT	correct	incongruent	0.58984	no	H	T
285.9101562	n/a	73193	responseLargeH	correct	n/a	0.58984	no	n/a	n/a
286.9726562	n/a	73465	largeHSmallT	correct	incongruent	0.57031	no	H	T
287.5429688	n/a	73611	responseLargeH	correct	n/a	0.57031	no	n/a	n/a
288.6132812	n/a	73885	largeHSmallT	correct	incongruent	0.75	no	H	T
289.3632812	n/a	74077	responseLargeH	correct	n/a	0.75	no	n/a	n/a
290.4414062	n/a	74353	largeHSmallT	correct	incongruent	0.55469	no	H	T
290.9960938	n/a	74495	responseLargeH	correct	n/a	0.55469	no	n/a	n/a
292.0546875	n/a	74766	largeTSmallT	correct	congruent	0.51172	no	T	T
292.5664062	n/a	74897	responseLargeT	correct	n/a	0.51172	no	n/a	n/a
293.640625	n/a	75172	largeTSmallT	correct	congruent	0.46875	no	T	T
294.109375	n/a	75292	responseLargeT	correct	n/a	0.46875	no	n/a	n/a
295.171875	n/a	75564	largeHSmallT	correct	incongruent	0.54297	no	H	T
295.7148438	n/a	75703	responseLargeH	correct	n/a	0.54297	no	n/a	n/a
296.7851562	n/a	75977	largeHSmallT	correct	incongruent	0.42578	no	H	T
297.2109375	n/a	76086	responseLargeH	correct	n/a	0.42578	no	n/a	n/a
298.28125	n/a	76360	largeHSmallH	correct	congruent	0.42188	no	H	H
298.703125	n/a	76468	responseLargeH	correct	n/a	0.42188	no	n/a	n/a
299.7617188	n/a	76739	largeTSmallH	correct	incongruent	0.52344	no	T	H
300.2851562	n/a	76873	responseLargeT	correct	n/a	0.52344	no	n/a	n/a
301.359375	n/a	77148	largeTSmallT	correct	congruent	0.45312	no	T	T
301.8125	n/a	77264	responseLargeT	correct	n/a	0.45312	no	n/a	n/a
302.8789062	n/a	77537	largeHSmallT	correct	incongruent	0.41797	no	H	T
303.296875	n/a	77644	responseLargeH	correct	n/a	0.41797	no	n/a	n/a
304.3710938	n/a	77919	largeTSmallT	correct	congruent	0.43359	no	T	T
304.8046875	n/a	78030	responseLargeT	correct	n/a	0.43359	no	n/a	n/a
305.8671875	n/a	78302	largeHSmallH	correct	congruent	0.39062	no	H	H
306.2578125	n/a	78402	responseLargeH	correct	n/a	0.39062	no	n/a	n/a
307.3320312	n/a	78677	largeHSmallT	correct	incongruent	0.54297	no	H	T
307.875	n/a	78816	responseLargeH	correct	n/a	0.54297	no	n/a	n/a
308.9335938	n/a	79087	largeTSmallH	correct	incongruent	0.4375	no	T	H
309.3710938	n/a	79199	responseLargeT	correct	n/a	0.4375	no	n/a	n/a
310.4414062	n/a	79473	largeTSmallT	correct	congruent	0.48828	no	T	T
310.9296875	n/a	79598	responseLargeT	correct	n/a	0.48828	no	n/a	n/a
312	n/a	79872	largeHSmallH	correct	congruent	0.43359	no	H	H
312.4335938	n/a	79983	responseLargeH	correct	n/a	0.43359	no	n/a	n/a
313.4921875	n/a	80254	largeHSmallT	correct	incongruent	0.55469	no	H	T
314.046875	n/a	80396	responseLargeH	correct	n/a	0.55469	no	n/a	n/a
315.1210938	n/a	80671	largeHSmallH	correct	congruent	0.41797	no	H	H
315.5390625	n/a	80778	responseLargeH	correct	n/a	0.41797	no	n/a	n/a
316.6132812	n/a	81053	largeTSmallT	correct	congruent	0.44922	no	T	T
317.0625	n/a	81168	responseLargeT	correct	n/a	0.44922	no	n/a	n/a
318.1210938	n/a	81439	largeTSmallH	correct	incongruent	0.48047	no	T	H
318.6015625	n/a	81562	responseLargeT	correct	n/a	0.48047	no	n/a	n/a
319.6640625	n/a	81834	largeHSmallT	correct	incongruent	0.42188	no	H	T
320.0859375	n/a	81942	responseLargeH	correct	n/a	0.42188	no	n/a	n/a
321.1601562	n/a	82217	largeHSmallH	correct	congruent	0.45312	no	H	H
321.6132812	n/a	82333	responseLargeH	correct	n/a	0.45312	no	n/a	n/a
322.6796875	n/a	82606	largeHSmallH	correct	congruent	0.40234	no	H	H
323.0820312	n/a	82709	responseLargeH	correct	n/a	0.40234	no	n/a	n/a
324.1445312	n/a	82981	largeHSmallH	correct	congruent	0.41406	no	H	H
324.5585938	n/a	83087	responseLargeH	correct	n/a	0.41406	no	n/a	n/a
325.625	n/a	83360	largeTSmallH	correct	incongruent	0.46094	no	T	H
326.0859375	n/a	83478	responseLargeT	correct	n/a	0.46094	no	n/a	n/a
327.1601562	n/a	83753	largeTSmallH	correct	incongruent	0.41016	no	T	H
327.5703125	n/a	83858	responseLargeT	correct	n/a	0.41016	no	n/a	n/a
339.1328125	n/a	86818	largeHSmallH	correct	congruent	0.61719	no	H	H
339.75	n/a	86976	responseSmallH	correct	n/a	0.61719	no	n/a	n/a
340.8242188	n/a	87251	largeHSmallT	correct	incongruent	0.49219	no	H	T
341.3164062	n/a	87377	responseSmallT	correct	n/a	0.49219	no	n/a	n/a
342.3867188	n/a	87651	largeTSmallH	correct	incongruent	0.58984	no	T	H
342.9765625	n/a	87802	responseSmallH	correct	n/a	0.58984	no	n/a	n/a
344.0390625	n/a	88074	largeTSmallH	correct	incongruent	0.43359	no	T	H
344.4726562	n/a	88185	responseSmallH	correct	n/a	0.43359	no	n/a	n/a
345.53125	n/a	88456	largeHSmallH	correct	congruent	0.60938	no	H	H
346.140625	n/a	88612	responseSmallH	correct	n/a	0.60938	no	n/a	n/a
347.1992188	n/a	88883	largeTSmallT	correct	congruent	0.42969	no	T	T
347.6289062	n/a	88993	responseSmallT	correct	n/a	0.42969	no	n/a	n/a
348.7070312	n/a	89269	largeTSmallH	correct	incongruent	0.51953	no	T	H
349.2265625	n/a	89402	responseSmallH	correct	n/a	0.51953	no	n/a	n/a
350.2929688	n/a	89675	largeTSmallH	correct	incongruent	0.42578	no	T	H
350.71875	n/a	89784	responseSmallH	correct	n/a	0.42578	no	n/a	n/a
351.7851562	n/a	90057	largeTSmallH	correct	incongruent	0.39062	no	T	H
352.1757812	n/a	90157	responseSmallH	correct	n/a	0.39062	no	n/a	n/a
353.2382812	n/a	90429	largeTSmallH	correct	incongruent	0.38281	no	T	H
353.6210938	n/a	90527	responseSmallH	correct	n/a	0.38281	no	n/a	n/a
354.6914062	n/a	90801	largeHSmallT	correct	incongruent	0.45703	no	H	T
355.1484375	n/a	90918	responseSmallT	correct	n/a	0.45703	no	n/a	n/a
356.2265625	n/a	91194	largeHSmallT	correct	incongruent	0.39453	no	H	T
356.6210938	n/a	91295	responseSmallT	correct	n/a	0.39453	no	n/a	n/a
357.6914062	n/a	91569	largeTSmallH	correct	incongruent	0.44141	no	T	H
358.1328125	n/a	91682	responseSmallH	correct	n/a	0.44141	no	n/a	n/a
359.1992188	n/a	91955	largeHSmallH	correct	congruent	0.55469	no	H	H
359.7539062	n/a	92097	responseSmallH	correct	n/a	0.55469	no	n/a	n/a
360.8242188	n/a	92371	largeTSmallT	correct	congruent	0.45703	no	T	T
361.28125	n/a	92488	responseSmallT	correct	n/a	0.45703	no	n/a	n/a
362.34375	n/a	92760	largeHSmallT	correct	incongruent	0.5625	no	H	T
362.90625	n/a	92904	responseSmallT	correct	n/a	0.5625	no	n/a	n/a
363.9726562	n/a	93177	largeHSmallH	correct	congruent	0.44922	no	H	H
364.421875	n/a	93292	responseSmallH	correct	n/a	0.44922	no	n/a	n/a
365.4921875	n/a	93566	largeHSmallT	correct	incongruent	0.46484	no	H	T
365.9570312	n/a	93685	responseSmallT	correct	n/a	0.46484	no	n/a	n/a
367.0234375	n/a	93958	largeTSmallT	correct	congruent	0.46875	no	T	T
367.4921875	n/a	94078	responseSmallT	correct	n/a	0.46875	no	n/a	n/a
368.5585938	n/a	94351	largeHSmallT	correct	incongruent	0.48047	no	H	T
369.0390625	n/a	94474	responseSmallT	correct	n/a	0.48047	no	n/a	n/a
370.1054688	n/a	94747	largeHSmallH	correct	congruent	0.46484	no	H	H
370.5703125	n/a	94866	responseSmallH	correct	n/a	0.46484	no	n/a	n/a
371.6367188	n/a	95139	largeHSmallH	correct	congruent	0.44531	no	H	H
372.0820312	n/a	95253	responseSmallH	correct	n/a	0.44531	no	n/a	n/a
373.1445312	n/a	95525	largeTSmallH	correct	incongruent	0.39844	no	T	H
373.5429688	n/a	95627	responseSmallH	correct	n/a	0.39844	no	n/a	n/a
374.6132812	n/a	95901	largeTSmallT	correct	congruent	0.57422	no	T	T
375.1875	n/a	96048	responseSmallT	correct	n/a	0.57422	no	n/a	n/a
376.25	n/a	96320	largeTSmallT	correct	congruent	0.43359	no	T	T
376.6835938	n/a	96431	responseSmallT	correct	n/a	0.43359	no	n/a	n/a
377.7460938	n/a	96703	largeHSmallH	correct	congruent	0.62109	no	H	H
378.3671875	n/a	96862	responseSmallH	correct	n/a	0.62109	no	n/a	n/a
379.4375	n/a	97136	largeHSmallH	correct	congruent	0.41406	no	H	H
379.8515625	n/a	97242	responseSmallH	correct	n/a	0.41406	no	n/a	n/a
380.9179688	n/a	97515	largeTSmallH	correct	incongruent	0.42969	no	T	H
381.3476562	n/a	97625	responseSmallH	correct	n/a	0.42969	no	n/a	n/a
382.4101562	n/a	97897	largeTSmallT	correct	congruent	1.0781	no	T	T
383.4882812	n/a	98173	responseSmallT	correct	n/a	1.0781	no	n/a	n/a
384.546875	n/a	98444	largeTSmallT	correct	congruent	0.44141	no	T	T
384.9882812	n/a	98557	responseSmallT	correct	n/a	0.44141	no	n/a	n/a
386.0664062	n/a	98833	largeHSmallT	correct	incongruent	0.44922	no	H	T
386.515625	n/a	98948	responseSmallT	correct	n/a	0.44922	no	n/a	n/a
387.5703125	n/a	99218	largeTSmallT	correct	congruent	0.51172	no	T	T
388.0820312	n/a	99349	responseSmallT	correct	n/a	0.51172	no	n/a	n/a
389.15625	n/a	99624	largeHSmallH	correct	congruent	0.56641	no	H	H
389.7226562	n/a	99769	responseSmallH	correct	n/a	0.56641	no	n/a	n/a
390.7851562	n/a	100041	largeHSmallH	correct	congruent	0.45703	no	H	H
391.2421875	n/a	100158	responseSmallH	correct	n/a	0.45703	no	n/a	n/a
392.3164062	n/a	100433	largeHSmallT	correct	incongruent	0.57031	no	H	T
392.8867188	n/a	100579	responseSmallT	correct	n/a	0.57031	no	n/a	n/a
393.9570312	n/a	100853	largeTSmallH	correct	incongruent	0.69141	no	T	H
394.6484375	n/a	101030	responseSmallH	correct	n/a	0.69141	no	n/a	n/a
395.71875	n/a	101304	largeTSmallH	correct	incongruent	0.40625	no	T	H
396.125	n/a	101408	responseSmallH	correct	n/a	0.40625	no	n/a	n/a
397.1835938	n/a	101679	largeTSmallT	correct	congruent	0.5	no	T	T
397.6835938	n/a	101807	responseSmallT	correct	n/a	0.5	no	n/a	n/a
398.7460938	n/a	102079	largeHSmallH	correct	congruent	0.4375	no	H	H
399.1835938	n/a	102191	responseSmallH	correct	n/a	0.4375	no	n/a	n/a
400.25	n/a	102464	largeTSmallT	correct	congruent	0.44922	no	T	T
400.6992188	n/a	102579	responseSmallT	correct	n/a	0.44922	no	n/a	n/a
401.7695312	n/a	102853	largeHSmallT	correct	incongruent	0.79297	no	H	T
402.5625	n/a	103056	responseSmallT	correct	n/a	0.79297	no	n/a	n/a
403.625	n/a	103328	largeTSmallH	correct	incongruent	0.53125	no	T	H
404.15625	n/a	103464	responseSmallH	correct	n/a	0.53125	no	n/a	n/a
405.2226562	n/a	103737	largeHSmallH	correct	congruent	0.44141	no	H	H
405.6640625	n/a	103850	responseSmallH	correct	n/a	0.44141	no	n/a	n/a
406.7304688	n/a	104123	largeTSmallH	correct	incongruent	0.375	no	T	H
407.1054688	n/a	104219	responseSmallH	correct	n/a	0.375	no	n/a	n/a
408.171875	n/a	104492	largeTSmallT	correct	congruent	0.52344	no	T	T
408.6953125	n/a	104626	responseSmallT	correct	n/a	0.52344	no	n/a	n/a
409.7578125	n/a	104898	largeHSmallH	correct	congruent	0.5	no	H	H
410.2578125	n/a	105026	responseSmallH	correct	n/a	0.5	no	n/a	n/a
411.3164062	n/a	105297	largeHSmallT	correct	incongruent	0.46875	no	H	T
411.7851562	n/a	105417	responseSmallT	correct	n/a	0.46875	no	n/a	n/a
412.8515625	n/a	105690	largeTSmallT	correct	congruent	0.5	no	T	T
413.3515625	n/a	105818	responseSmallT	correct	n/a	0.5	no	n/a	n/a
414.421875	n/a	106092	largeHSmallH	correct	congruent	0.46094	no	H	H
414.8828125	n/a	106210	responseSmallH	correct	n/a	0.46094	no	n/a	n/a
415.9570312	n/a	106485	largeTSmallH	correct	incongruent	0.41406	no	T	H
416.3710938	n/a	106591	responseSmallH	correct	n/a	0.41406	no	n/a	n/a
417.4375	n/a	106864	largeTSmallH	correct	incongruent	0.375	no	T	H
417.8125	n/a	106960	responseSmallH	correct	n/a	0.375	no	n/a	n/a
418.890625	n/a	107236	largeTSmallT	error	congruent	0.36328	no	T	T
419.2539062	n/a	107329	responseSmallH	error	n/a	0.36328	no	n/a	n/a
420.3164062	n/a	107601	largeHSmallH	correct	congruent	0.44531	no	H	H
420.7617188	n/a	107715	responseSmallH	correct	n/a	0.44531	no	n/a	n/a
421.8359375	n/a	107990	largeHSmallH	correct	congruent	0.39453	no	H	H
422.2304688	n/a	108091	responseSmallH	correct	n/a	0.39453	no	n/a	n/a
423.3046875	n/a	108366	largeHSmallT	correct	incongruent	0.51172	no	H	T
423.8164062	n/a	108497	responseSmallT	correct	n/a	0.51172	no	n/a	n/a
424.8789062	n/a	108769	largeHSmallT	correct	incongruent	0.39844	no	H	T
425.2773438	n/a	108871	responseSmallT	correct	n/a	0.39844	no	n/a	n/a
426.34375	n/a	109144	largeTSmallH	correct	incongruent	0.44531	no	T	H
426.7890625	n/a	109258	responseSmallH	correct	n/a	0.44531	no	n/a	n/a
427.8515625	n/a	109530	largeHSmallT	correct	incongruent	0.51172	no	H	T
428.3632812	n/a	109661	responseSmallT	correct	n/a	0.51172	no	n/a	n/a
429.4375	n/a	109936	largeHSmallT	correct	incongruent	0.52734	no	H	T
429.9648438	n/a	110071	responseSmallT	correct	n/a	0.52734	no	n/a	n/a
431.0351562	n/a	110345	largeHSmallT	correct	incongruent	0.44141	no	H	T
431.4765625	n/a	110458	responseSmallT	correct	n/a	0.44141	no	n/a	n/a
432.5585938	n/a	110735	largeHSmallT	correct	incongruent	0.46484	no	H	T
433.0234375	n/a	110854	responseSmallT	correct	n/a	0.46484	no	n/a	n/a
434.0898438	n/a	111127	largeHSmallT	correct	incongruent	0.46484	no	H	T
434.5546875	n/a	111246	responseSmallT	correct	n/a	0.46484	no	n/a	n/a
435.625	n/a	111520	largeTSmallH	correct	incongruent	0.42969	no	T	H
436.0546875	n/a	111630	responseSmallH	correct	n/a	0.42969	no	n/a	n/a
437.1171875	n/a	111902	largeHSmallT	correct	incongruent	0.46484	no	H	T
437.5820312	n/a	112021	responseSmallT	correct	n/a	0.46484	no	n/a	n/a
438.6484375	n/a	112294	largeHSmallH	correct	congruent	0.41797	no	H	H
439.0664062	n/a	112401	responseSmallH	correct	n/a	0.41797	no	n/a	n/a
440.1289062	n/a	112673	largeTSmallT	correct	congruent	0.53516	no	T	T
440.6640625	n/a	112810	responseSmallT	correct	n/a	0.53516	no	n/a	n/a
441.7304688	n/a	113083	largeTSmallH	correct	incongruent	1.1992	no	T	H
442.9296875	n/a	113390	responseSmallH	correct	n/a	1.1992	no	n/a	n/a
443.9960938	n/a	113663	largeTSmallH	correct	incongruent	0.46484	no	T	H
444.4609375	n/a	113782	responseSmallH	correct	n/a	0.46484	no	n/a	n/a
445.53125	n/a	114056	largeHSmallH	correct	congruent	0.38281	no	H	H
445.9140625	n/a	114154	responseSmallH	correct	n/a	0.38281	no	n/a	n/a
446.984375	n/a	114428	largeHSmallH	correct	congruent	0.42578	no	H	H
447.4101562	n/a	114537	responseSmallH	correct	n/a	0.42578	no	n/a	n/a
448.4765625	n/a	114810	largeTSmallT	correct	congruent	0.45312	no	T	T
448.9296875	n/a	114926	responseSmallT	correct	n/a	0.45312	no	n/a	n/a
449.9960938	n/a	115199	largeTSmallT	correct	congruent	0.46094	no	T	T
450.4570312	n/a	115317	responseSmallT	correct	n/a	0.46094	no	n/a	n/a
451.515625	n/a	115588	largeTSmallT	correct	congruent	0.48047	no	T	T
451.9960938	n/a	115711	responseSmallT	correct	n/a	0.48047	no	n/a	n/a
453.0625	n/a	115984	largeHSmallH	correct	congruent	0.49219	no	H	H
453.5546875	n/a	116110	responseSmallH	correct	n/a	0.49219	no	n/a	n/a
454.6210938	n/a	116383	largeTSmallT	correct	congruent	0.57422	no	T	T
455.1953125	n/a	116530	responseSmallT	correct	n/a	0.57422	no	n/a	n/a
456.2617188	n/a	116803	largeHSmallT	correct	incongruent	0.66797	no	H	T
456.9296875	n/a	116974	responseSmallT	correct	n/a	0.66797	no	n/a	n/a
457.9960938	n/a	117247	largeHSmallH	correct	congruent	0.46484	no	H	H
458.4609375	n/a	117366	responseSmallH	correct	n/a	0.46484	no	n/a	n/a
459.53125	n/a	117640	largeHSmallH	correct	congruent	0.52344	no	H	H
460.0546875	n/a	117774	responseSmallH	correct	n/a	0.52344	no	n/a	n/a
461.1171875	n/a	118046	largeHSmallH	correct	congruent	0.45312	no	H	H
461.5703125	n/a	118162	responseSmallH	correct	n/a	0.45312	no	n/a	n/a
462.6484375	n/a	118438	largeHSmallH	correct	congruent	0.67969	no	H	H
463.328125	n/a	118612	responseSmallH	correct	n/a	0.67969	no	n/a	n/a
464.3945312	n/a	118885	largeHSmallH	correct	congruent	0.46094	no	H	H
464.8554688	n/a	119003	responseSmallH	correct	n/a	0.46094	no	n/a	n/a
465.9140625	n/a	119274	largeTSmallT	correct	congruent	0.52344	no	T	T
466.4375	n/a	119408	responseSmallT	correct	n/a	0.52344	no	n/a	n/a
467.515625	n/a	119684	largeTSmallT	correct	congruent	0.53516	no	T	T
468.0507812	n/a	119821	responseSmallT	correct	n/a	0.53516	no	n/a	n/a
469.1171875	n/a	120094	largeHSmallT	correct	incongruent	0.47656	no	H	T
469.59375	n/a	120216	responseSmallT	correct	n/a	0.47656	no	n/a	n/a
470.6640625	n/a	120490	largeHSmallT	correct	incongruent	0.42578	no	H	T
471.0898438	n/a	120599	responseSmallT	correct	n/a	0.42578	no	n/a	n/a
472.15625	n/a	120872	largeHSmallH	correct	congruent	0.63281	no	H	H
472.7890625	n/a	121034	responseSmallH	correct	n/a	0.63281	no	n/a	n/a
473.8632812	n/a	121309	largeTSmallH	correct	incongruent	0.59375	no	T	H
474.4570312	n/a	121461	responseSmallH	correct	n/a	0.59375	no	n/a	n/a
475.5273438	n/a	121735	largeTSmallT	correct	congruent	0.58594	no	T	T
476.1132812	n/a	121885	responseSmallT	correct	n/a	0.58594	no	n/a	n/a
477.1835938	n/a	122159	largeHSmallT	correct	incongruent	0.84766	no	H	T
478.03125	n/a	122376	responseSmallT	correct	n/a	0.84766	no	n/a	n/a
479.1015625	n/a	122650	largeTSmallT	correct	congruent	0.51172	no	T	T
479.6132812	n/a	122781	responseSmallT	correct	n/a	0.51172	no	n/a	n/a
480.6757812	n/a	123053	largeHSmallH	correct	congruent	0.40234	no	H	H
481.078125	n/a	123156	responseSmallH	correct	n/a	0.40234	no	n/a	n/a
482.140625	n/a	123428	largeTSmallH	correct	incongruent	0.57031	no	T	H
482.7109375	n/a	123574	responseSmallH	correct	n/a	0.57031	no	n/a	n/a
483.78125	n/a	123848	largeTSmallT	correct	congruent	0.48828	no	T	T
484.2695312	n/a	123973	responseSmallT	correct	n/a	0.48828	no	n/a	n/a
485.34375	n/a	124248	largeHSmallT	correct	incongruent	0.70312	no	H	T
486.046875	n/a	124428	responseSmallT	correct	n/a	0.70312	no	n/a	n/a
487.1171875	n/a	124702	largeTSmallT	correct	congruent	0.5	no	T	T
487.6171875	n/a	124830	responseSmallT	correct	n/a	0.5	no	n/a	n/a
488.6757812	n/a	125101	largeHSmallH	correct	congruent	0.46094	no	H	H
489.1367188	n/a	125219	responseSmallH	correct	n/a	0.46094	no	n/a	n/a
490.2070312	n/a	125493	largeHSmallH	correct	congruent	0.42578	no	H	H
490.6328125	n/a	125602	responseSmallH	correct	n/a	0.42578	no	n/a	n/a
491.703125	n/a	125876	largeHSmallT	correct	incongruent	0.47266	no	H	T
492.1757812	n/a	125997	responseSmallT	correct	n/a	0.47266	no	n/a	n/a
493.234375	n/a	126268	largeHSmallH	correct	congruent	0.72266	no	H	H
493.9570312	n/a	126453	responseSmallH	correct	n/a	0.72266	no	n/a	n/a
495.0351562	n/a	126729	largeTSmallH	correct	incongruent	0.50391	no	T	H
495.5390625	n/a	126858	responseSmallH	correct	n/a	0.50391	no	n/a	n/a
496.609375	n/a	127132	largeHSmallH	correct	congruent	0.57422	no	H	H
497.1835938	n/a	127279	responseSmallH	correct	n/a	0.57422	no	n/a	n/a
498.25	n/a	127552	largeHSmallH	correct	congruent	0.44141	no	H	H
498.6914062	n/a	127665	responseSmallH	correct	n/a	0.44141	no	n/a	n/a
499.7539062	n/a	127937	largeHSmallT	correct	incongruent	0.62891	no	H	T
500.3828125	n/a	128098	responseSmallT	correct	n/a	0.62891	no	n/a	n/a
501.4492188	n/a	128371	largeTSmallH	correct	incongruent	0.49609	no	T	H
501.9453125	n/a	128498	responseSmallH	correct	n/a	0.49609	no	n/a	n/a
503.0234375	n/a	128774	largeHSmallT	correct	incongruent	0.58203	no	H	T
503.6054688	n/a	128923	responseSmallT	correct	n/a	0.58203	no	n/a	n/a
504.6757812	n/a	129197	largeTSmallH	correct	incongruent	0.44531	no	T	H
505.1210938	n/a	129311	responseSmallH	correct	n/a	0.44531	no	n/a	n/a
506.1835938	n/a	129583	largeTSmallT	correct	congruent	0.54688	no	T	T
506.7304688	n/a	129723	responseSmallT	correct	n/a	0.54688	no	n/a	n/a
507.8085938	n/a	129999	largeHSmallT	correct	incongruent	0.73438	no	H	T
508.5429688	n/a	130187	responseSmallT	correct	n/a	0.73438	no	n/a	n/a
509.59375	n/a	130456	largeHSmallT	correct	incongruent	0.47266	no	H	T
510.0664062	n/a	130577	responseSmallT	correct	n/a	0.47266	no	n/a	n/a
511.1289062	n/a	130849	largeTSmallT	correct	congruent	0.41406	no	T	T
511.5429688	n/a	130955	responseSmallT	correct	n/a	0.41406	no	n/a	n/a
512.609375	n/a	131228	largeTSmallT	correct	congruent	0.41406	no	T	T
513.0234375	n/a	131334	responseSmallT	correct	n/a	0.41406	no	n/a	n/a
514.0898438	n/a	131607	largeTSmallT	correct	congruent	0.46484	no	T	T
514.5546875	n/a	131726	responseSmallT	correct	n/a	0.46484	no	n/a	n/a
515.6210938	n/a	131999	largeHSmallT	correct	incongruent	0.46484	no	H	T
516.0859375	n/a	132118	responseSmallT	correct	n/a	0.46484	no	n/a	n/a
517.15625	n/a	132392	largeHSmallT	correct	incongruent	0.46094	no	H	T
517.6171875	n/a	132510	responseSmallT	correct	n/a	0.46094	no	n/a	n/a
518.6757812	n/a	132781	largeHSmallH	correct	congruent	0.49609	no	H	H
519.171875	n/a	132908	responseSmallH	correct	n/a	0.49609	no	n/a	n/a
520.234375	n/a	133180	largeTSmallT	correct	congruent	0.48438	no	T	T
520.71875	n/a	133304	responseSmallT	correct	n/a	0.48438	no	n/a	n/a
521.78125	n/a	133576	largeHSmallT	correct	incongruent	0.62109	no	H	T
522.4023438	n/a	133735	responseSmallT	correct	n/a	0.62109	no	n/a	n/a
523.4765625	n/a	134010	largeHSmallT	correct	incongruent	0.48047	no	H	T
523.9570312	n/a	134133	responseSmallT	correct	n/a	0.48047	no	n/a	n/a
525.0351562	n/a	134409	largeTSmallH	error	incongruent	0.48047	no	T	H
525.515625	n/a	134532	responseSmallT	error	n/a	0.48047	no	n/a	n/a
526.59375	n/a	134808	largeTSmallH	correct	incongruent	0.58203	no	T	H
527.1757812	n/a	134957	responseSmallH	correct	n/a	0.58203	no	n/a	n/a
528.2460938	n/a	135231	largeTSmallT	correct	congruent	0.62109	no	T	T
528.8671875	n/a	135390	responseSmallT	correct	n/a	0.62109	no	n/a	n/a
529.9414062	n/a	135665	largeTSmallT	correct	congruent	0.47266	no	T	T
530.4140625	n/a	135786	responseSmallT	correct	n/a	0.47266	no	n/a	n/a
531.4882812	n/a	136061	largeHSmallT	correct	incongruent	0.60547	no	H	T
532.09375	n/a	136216	responseSmallT	correct	n/a	0.60547	no	n/a	n/a
533.15625	n/a	136488	largeTSmallT	correct	congruent	0.5	no	T	T
533.65625	n/a	136616	responseSmallT	correct	n/a	0.5	no	n/a	n/a
534.7148438	n/a	136887	largeHSmallT	correct	incongruent	0.40234	no	H	T
535.1171875	n/a	136990	responseSmallT	correct	n/a	0.40234	no	n/a	n/a
536.1796875	n/a	137262	largeHSmallH	correct	congruent	0.42578	no	H	H
536.6054688	n/a	137371	responseSmallH	correct	n/a	0.42578	no	n/a	n/a
537.6601562	n/a	137641	largeTSmallH	correct	incongruent	0.55469	no	T	H
538.2148438	n/a	137783	responseSmallH	correct	n/a	0.55469	no	n/a	n/a
539.2890625	n/a	138058	largeTSmallT	correct	congruent	0.48438	no	T	T
539.7734375	n/a	138182	responseSmallT	correct	n/a	0.48438	no	n/a	n/a
540.8476562	n/a	138457	largeHSmallT	correct	incongruent	0.57031	no	H	T
541.4179688	n/a	138603	responseSmallT	correct	n/a	0.57031	no	n/a	n/a
542.4882812	n/a	138877	largeHSmallH	correct	congruent	0.44922	no	H	H
542.9375	n/a	138992	responseSmallH	correct	n/a	0.44922	no	n/a	n/a
543.9960938	n/a	139263	largeTSmallT	correct	congruent	0.44531	no	T	T
544.4414062	n/a	139377	responseSmallT	correct	n/a	0.44531	no	n/a	n/a
545.515625	n/a	139652	largeTSmallT	correct	congruent	0.4375	no	T	T
545.953125	n/a	139764	responseSmallT	correct	n/a	0.4375	no	n/a	n/a
547.0195312	n/a	140037	largeTSmallT	correct	congruent	0.41016	no	T	T
547.4296875	n/a	140142	responseSmallT	correct	n/a	0.41016	no	n/a	n/a
548.4882812	n/a	140413	largeTSmallH	error	incongruent	0.51172	no	T	H
549	n/a	140544	responseSmallT	error	n/a	0.51172	no	n/a	n/a
550.0625	n/a	140816	largeHSmallT	correct	incongruent	0.72266	no	H	T
550.7851562	n/a	141001	responseSmallT	correct	n/a	0.72266	no	n/a	n/a
551.8476562	n/a	141273	largeTSmallH	correct	incongruent	0.53516	no	T	H
552.3828125	n/a	141410	responseSmallH	correct	n/a	0.53516	no	n/a	n/a
553.4492188	n/a	141683	largeHSmallT	correct	incongruent	0.51562	no	H	T
553.9648438	n/a	141815	responseSmallT	correct	n/a	0.51562	no	n/a	n/a
555.0351562	n/a	142089	largeHSmallH	correct	congruent	0.54688	no	H	H
555.5820312	n/a	142229	responseSmallH	correct	n/a	0.54688	no	n/a	n/a
556.6484375	n/a	142502	largeTSmallT	correct	congruent	0.48438	no	T	T
557.1328125	n/a	142626	responseSmallT	correct	n/a	0.48438	no	n/a	n/a
558.1953125	n/a	142898	largeHSmallT	correct	incongruent	0.54688	no	H	T
558.7421875	n/a	143038	responseSmallT	correct	n/a	0.54688	no	n/a	n/a
559.8203125	n/a	143314	largeTSmallH	correct	incongruent	0.44531	no	T	H
560.265625	n/a	143428	responseSmallH	correct	n/a	0.44531	no	n/a	n/a
561.328125	n/a	143700	largeTSmallH	correct	incongruent	0.48828	no	T	H
561.8164062	n/a	143825	responseSmallH	correct	n/a	0.48828	no	n/a	n/a
562.8867188	n/a	144099	largeTSmallT	correct	congruent	0.47266	no	T	T
563.359375	n/a	144220	responseSmallT	correct	n/a	0.47266	no	n/a	n/a
564.421875	n/a	144492	largeTSmallH	correct	incongruent	0.49609	no	T	H
564.9179688	n/a	144619	responseSmallH	correct	n/a	0.49609	no	n/a	n/a
565.9804688	n/a	144891	largeHSmallT	correct	incongruent	0.54688	no	H	T
566.5273438	n/a	145031	responseSmallT	correct	n/a	0.54688	no	n/a	n/a
567.6054688	n/a	145307	largeHSmallH	correct	congruent	0.51953	no	H	H
568.125	n/a	145440	responseSmallH	correct	n/a	0.51953	no	n/a	n/a
569.1953125	n/a	145714	largeTSmallT	correct	congruent	0.50781	no	T	T
569.703125	n/a	145844	responseSmallT	correct	n/a	0.50781	no	n/a	n/a
570.765625	n/a	146116	largeTSmallH	correct	incongruent	0.54688	no	T	H
571.3125	n/a	146256	responseSmallH	correct	n/a	0.54688	no	n/a	n/a
572.3789062	n/a	146529	largeTSmallT	correct	congruent	0.66797	no	T	T
573.046875	n/a	146700	responseSmallT	correct	n/a	0.66797	no	n/a	n/a
574.1015625	n/a	146970	largeTSmallH	correct	incongruent	0.5	no	T	H
574.6015625	n/a	147098	responseSmallH	correct	n/a	0.5	no	n/a	n/a
575.6601562	n/a	147369	largeHSmallH	correct	congruent	0.50781	no	H	H
576.1679688	n/a	147499	responseSmallH	correct	n/a	0.50781	no	n/a	n/a
577.2460938	n/a	147775	largeTSmallH	correct	incongruent	0.58984	no	T	H
577.8359375	n/a	147926	responseSmallH	correct	n/a	0.58984	no	n/a	n/a
578.8984375	n/a	148198	largeTSmallT	correct	congruent	0.53516	no	T	T
579.4335938	n/a	148335	responseSmallT	correct	n/a	0.53516	no	n/a	n/a
580.5	n/a	148608	largeHSmallH	correct	congruent	0.44141	no	H	H
580.9414062	n/a	148721	responseSmallH	correct	n/a	0.44141	no	n/a	n/a
582.0195312	n/a	148997	largeHSmallT	correct	incongruent	0.56641	no	H	T
582.5859375	n/a	149142	responseSmallT	correct	n/a	0.56641	no	n/a	n/a
583.6484375	n/a	149414	largeHSmallH	correct	congruent	0.47656	no	H	H
584.125	n/a	149536	responseSmallH	correct	n/a	0.47656	no	n/a	n/a
585.1953125	n/a	149810	largeHSmallH	correct	congruent	0.5625	no	H	H
585.7578125	n/a	149954	responseSmallH	correct	n/a	0.5625	no	n/a	n/a
586.8203125	n/a	150226	largeTSmallT	correct	congruent	0.55859	no	T	T
587.3789062	n/a	150369	responseSmallT	correct	n/a	0.55859	no	n/a	n/a
588.4453125	n/a	150642	largeTSmallH	correct	incongruent	0.48047	no	T	H
588.9257812	n/a	150765	responseSmallH	correct	n/a	0.48047	no	n/a	n/a
589.9921875	n/a	151038	largeTSmallT	correct	congruent	0.5625	no	T	T
590.5546875	n/a	151182	responseSmallT	correct	n/a	0.5625	no	n/a	n/a
591.6210938	n/a	151455	largeHSmallH	correct	congruent	0.51953	no	H	H
592.140625	n/a	151588	responseSmallH	correct	n/a	0.51953	no	n/a	n/a
593.2070312	n/a	151861	largeTSmallH	error	incongruent	0.67578	no	T	H
593.8828125	n/a	152034	responseSmallT	error	n/a	0.67578	no	n/a	n/a
594.953125	n/a	152308	largeTSmallH	correct	incongruent	0.48438	no	T	H
595.4375	n/a	152432	responseSmallH	correct	n/a	0.48438	no	n/a	n/a
596.5117188	n/a	152707	largeHSmallT	correct	incongruent	0.5625	no	H	T
597.0742188	n/a	152851	responseSmallT	correct	n/a	0.5625	no	n/a	n/a
598.140625	n/a	153124	largeTSmallH	correct	incongruent	0.45703	no	T	H
598.5976562	n/a	153241	responseSmallH	correct	n/a	0.45703	no	n/a	n/a
599.6601562	n/a	153513	largeHSmallH	correct	congruent	0.42188	no	H	H
600.0820312	n/a	153621	responseSmallH	correct	n/a	0.42188	no	n/a	n/a
601.1523438	n/a	153895	largeHSmallH	correct	congruent	0.62891	no	H	H
601.78125	n/a	154056	responseSmallH	correct	n/a	0.62891	no	n/a	n/a
602.8476562	n/a	154329	largeHSmallT	correct	incongruent	0.60547	no	H	T
603.453125	n/a	154484	responseSmallT	correct	n/a	0.60547	no	n/a	n/a
604.5273438	n/a	154759	largeHSmallH	correct	congruent	0.35938	no	H	H
604.8867188	n/a	154851	responseSmallH	correct	n/a	0.35938	no	n/a	n/a
605.953125	n/a	155124	largeTSmallT	correct	congruent	0.46484	no	T	T
606.4179688	n/a	155243	responseSmallT	correct	n/a	0.46484	no	n/a	n/a
607.4882812	n/a	155517	largeTSmallT	correct	congruent	0.57422	no	T	T
608.0625	n/a	155664	responseSmallT	correct	n/a	0.57422	no	n/a	n/a
609.125	n/a	155936	largeHSmallH	correct	congruent	0.46094	no	H	H
609.5859375	n/a	156054	responseSmallH	correct	n/a	0.46094	no	n/a	n/a
610.6601562	n/a	156329	largeTSmallH	correct	incongruent	0.71094	no	T	H
611.3710938	n/a	156511	responseSmallH	correct	n/a	0.71094	no	n/a	n/a
612.4335938	n/a	156783	largeHSmallH	correct	congruent	0.46484	no	H	H
612.8984375	n/a	156902	responseSmallH	correct	n/a	0.46484	no	n/a	n/a
613.96875	n/a	157176	largeHSmallT	correct	incongruent	0.55469	no	H	T
614.5234375	n/a	157318	responseSmallT	correct	n/a	0.55469	no	n/a	n/a
615.59375	n/a	157592	largeTSmallH	correct	incongruent	0.40625	no	T	H
616	n/a	157696	responseSmallH	correct	n/a	0.40625	no	n/a	n/a
617.0742188	n/a	157971	largeHSmallT	correct	incongruent	0.44922	no	H	T
617.5234375	n/a	158086	responseSmallT	correct	n/a	0.44922	no	n/a	n/a
618.59375	n/a	158360	largeTSmallH	correct	incongruent	0.64062	no	T	H
619.234375	n/a	158524	responseSmallH	correct	n/a	0.64062	no	n/a	n/a
620.3007812	n/a	158797	largeTSmallH	correct	incongruent	0.47266	no	T	H
620.7734375	n/a	158918	responseSmallH	correct	n/a	0.47266	no	n/a	n/a
621.8476562	n/a	159193	largeHSmallH	correct	congruent	0.59375	no	H	H
622.4414062	n/a	159345	responseSmallH	correct	n/a	0.59375	no	n/a	n/a
623.5117188	n/a	159619	largeTSmallH	correct	incongruent	0.51562	no	T	H
624.0273438	n/a	159751	responseSmallH	correct	n/a	0.51562	no	n/a	n/a
625.0859375	n/a	160022	largeTSmallT	correct	congruent	0.45703	no	T	T
625.5429688	n/a	160139	responseSmallT	correct	n/a	0.45703	no	n/a	n/a
626.6054688	n/a	160411	largeHSmallT	correct	incongruent	0.60547	no	H	T
627.2109375	n/a	160566	responseSmallT	correct	n/a	0.60547	no	n/a	n/a
628.2851562	n/a	160841	largeTSmallH	correct	incongruent	0.45703	no	T	H
628.7421875	n/a	160958	responseSmallH	correct	n/a	0.45703	no	n/a	n/a
629.8203125	n/a	161234	largeTSmallH	correct	incongruent	0.625	no	T	H
630.4453125	n/a	161394	responseSmallH	correct	n/a	0.625	no	n/a	n/a
631.5117188	n/a	161667	largeHSmallH	correct	congruent	0.50391	no	H	H
632.015625	n/a	161796	responseSmallH	correct	n/a	0.50391	no	n/a	n/a
633.0742188	n/a	162067	largeTSmallT	correct	congruent	0.45703	no	T	T
633.53125	n/a	162184	responseSmallT	correct	n/a	0.45703	no	n/a	n/a
634.6054688	n/a	162459	largeHSmallT	correct	incongruent	0.53516	no	H	T
635.140625	n/a	162596	responseSmallT	correct	n/a	0.53516	no	n/a	n/a
636.2070312	n/a	162869	largeTSmallT	correct	congruent	1.1445	no	T	T
637.3515625	n/a	163162	responseSmallT	correct	n/a	1.1445	no	n/a	n/a
638.4335938	n/a	163439	largeHSmallT	correct	incongruent	0.43359	no	H	T
638.8671875	n/a	163550	responseSmallT	correct	n/a	0.43359	no	n/a	n/a
639.9375	n/a	163824	largeTSmallH	correct	incongruent	0.44922	no	T	H
640.3867188	n/a	163939	responseSmallH	correct	n/a	0.44922	no	n/a	n/a
641.4453125	n/a	164210	largeTSmallH	correct	incongruent	0.4375	no	T	H
641.8828125	n/a	164322	responseSmallH	correct	n/a	0.4375	no	n/a	n/a
642.953125	n/a	164596	largeHSmallH	correct	congruent	0.4375	no	H	H
643.390625	n/a	164708	responseSmallH	correct	n/a	0.4375	no	n/a	n/a
644.4570312	n/a	164981	largeTSmallH	correct	incongruent	0.53125	no	T	H
644.9882812	n/a	165117	responseSmallH	correct	n/a	0.53125	no	n/a	n/a
646.0585938	n/a	165391	largeHSmallT	correct	incongruent	0.51562	no	H	T
646.5742188	n/a	165523	responseSmallT	correct	n/a	0.51562	no	n/a	n/a
647.6445312	n/a	165797	largeTSmallH	correct	incongruent	0.46875	no	T	H
648.1132812	n/a	165917	responseSmallH	correct	n/a	0.46875	no	n/a	n/a
649.1796875	n/a	166190	largeTSmallT	correct	congruent	0.52344	no	T	T
649.703125	n/a	166324	responseSmallT	correct	n/a	0.52344	no	n/a	n/a
650.765625	n/a	166596	largeHSmallT	correct	incongruent	0.625	no	H	T
651.390625	n/a	166756	responseSmallT	correct	n/a	0.625	no	n/a	n/a
652.4570312	n/a	167029	largeHSmallT	correct	incongruent	0.50781	no	H	T
652.9648438	n/a	167159	responseSmallT	correct	n/a	0.50781	no	n/a	n/a
654.046875	n/a	167436	largeTSmallT	correct	congruent	0.50781	no	T	T
654.5546875	n/a	167566	responseSmallT	correct	n/a	0.50781	no	n/a	n/a
672.3125	n/a	172112	largeHSmallT	correct	incongruent	1.1133	no	H	T
673.4257812	n/a	172397	responseLargeH	correct	n/a	1.1133	no	n/a	n/a
674.5	n/a	172672	largeHSmallT	correct	incongruent	0.50391	no	H	T
675.0039062	n/a	172801	responseLargeH	correct	n/a	0.50391	no	n/a	n/a
676.0703125	n/a	173074	largeHSmallH	correct	congruent	0.45312	no	H	H
676.5234375	n/a	173190	responseLargeH	correct	n/a	0.45312	no	n/a	n/a
677.6054688	n/a	173467	largeHSmallT	correct	incongruent	0.375	no	H	T
677.9804688	n/a	173563	responseLargeH	correct	n/a	0.375	no	n/a	n/a
679.046875	n/a	173836	largeHSmallT	correct	incongruent	0.35938	no	H	T
679.40625	n/a	173928	responseLargeH	correct	n/a	0.35938	no	n/a	n/a
680.4726562	n/a	174201	largeTSmallT	correct	congruent	0.46094	no	T	T
680.9335938	n/a	174319	responseLargeT	correct	n/a	0.46094	no	n/a	n/a
681.9921875	n/a	174590	largeTSmallT	correct	congruent	0.375	no	T	T
682.3671875	n/a	174686	responseLargeT	correct	n/a	0.375	no	n/a	n/a
683.4296875	n/a	174958	largeTSmallT	correct	congruent	0.34766	no	T	T
683.7773438	n/a	175047	responseLargeT	correct	n/a	0.34766	no	n/a	n/a
684.859375	n/a	175324	largeHSmallH	correct	congruent	0.55859	no	H	H
685.4179688	n/a	175467	responseLargeH	correct	n/a	0.55859	no	n/a	n/a
686.484375	n/a	175740	largeHSmallT	correct	incongruent	0.52734	no	H	T
687.0117188	n/a	175875	responseLargeH	correct	n/a	0.52734	no	n/a	n/a
688.0859375	n/a	176150	largeTSmallH	correct	incongruent	1.1016	no	T	H
689.1875	n/a	176432	responseLargeT	correct	n/a	1.1016	no	n/a	n/a
690.2578125	n/a	176706	largeTSmallH	correct	incongruent	0.38281	no	T	H
690.640625	n/a	176804	responseLargeT	correct	n/a	0.38281	no	n/a	n/a
691.6992188	n/a	177075	largeHSmallT	correct	incongruent	0.41797	no	H	T
692.1171875	n/a	177182	responseLargeH	correct	n/a	0.41797	no	n/a	n/a
693.1757812	n/a	177453	largeTSmallT	correct	congruent	0.44531	no	T	T
693.6210938	n/a	177567	responseLargeT	correct	n/a	0.44531	no	n/a	n/a
694.6992188	n/a	177843	largeTSmallH	correct	incongruent	0.61719	no	T	H
695.3164062	n/a	178001	responseLargeT	correct	n/a	0.61719	no	n/a	n/a
696.3789062	n/a	178273	largeHSmallT	correct	incongruent	0.46094	no	H	T
696.8398438	n/a	178391	responseLargeH	correct	n/a	0.46094	no	n/a	n/a
697.9101562	n/a	178665	largeHSmallT	correct	incongruent	0.49609	no	H	T
698.40625	n/a	178792	responseLargeH	correct	n/a	0.49609	no	n/a	n/a
699.4726562	n/a	179065	largeHSmallT	correct	incongruent	0.41797	no	H	T
699.890625	n/a	179172	responseLargeH	correct	n/a	0.41797	no	n/a	n/a
700.9492188	n/a	179443	largeHSmallT	correct	incongruent	0.43359	no	H	T
701.3828125	n/a	179554	responseLargeH	correct	n/a	0.43359	no	n/a	n/a
702.4453125	n/a	179826	largeTSmallH	correct	incongruent	0.46875	no	T	H
702.9140625	n/a	179946	responseLargeT	correct	n/a	0.46875	no	n/a	n/a
703.9765625	n/a	180218	largeHSmallT	correct	incongruent	0.43359	no	H	T
704.4101562	n/a	180329	responseLargeH	correct	n/a	0.43359	no	n/a	n/a
705.4726562	n/a	180601	largeHSmallH	correct	congruent	0.40625	no	H	H
705.8789062	n/a	180705	responseLargeH	correct	n/a	0.40625	no	n/a	n/a
706.9375	n/a	180976	largeHSmallH	correct	congruent	0.44922	no	H	H
707.3867188	n/a	181091	responseLargeH	correct	n/a	0.44922	no	n/a	n/a
708.4570312	n/a	181365	largeTSmallT	correct	congruent	0.47266	no	T	T
708.9296875	n/a	181486	responseLargeT	correct	n/a	0.47266	no	n/a	n/a
710.0039062	n/a	181761	largeTSmallH	correct	incongruent	0.41797	no	T	H
710.421875	n/a	181868	responseLargeT	correct	n/a	0.41797	no	n/a	n/a
711.4960938	n/a	182143	largeTSmallT	correct	congruent	0.46875	no	T	T
711.9648438	n/a	182263	responseLargeT	correct	n/a	0.46875	no	n/a	n/a
713.03125	n/a	182536	largeHSmallT	correct	incongruent	0.42578	no	H	T
713.4570312	n/a	182645	responseLargeH	correct	n/a	0.42578	no	n/a	n/a
714.5234375	n/a	182918	largeTSmallT	correct	congruent	0.53906	no	T	T
715.0625	n/a	183056	responseLargeT	correct	n/a	0.53906	no	n/a	n/a
716.1367188	n/a	183331	largeHSmallT	correct	incongruent	0.53906	no	H	T
716.6757812	n/a	183469	responseLargeH	correct	n/a	0.53906	no	n/a	n/a
717.7382812	n/a	183741	largeHSmallH	correct	congruent	0.48438	no	H	H
718.2226562	n/a	183865	responseLargeH	correct	n/a	0.48438	no	n/a	n/a
719.296875	n/a	184140	largeTSmallH	correct	incongruent	0.44922	no	T	H
719.7460938	n/a	184255	responseLargeT	correct	n/a	0.44922	no	n/a	n/a
720.8046875	n/a	184526	largeHSmallT	correct	incongruent	0.44531	no	H	T
721.25	n/a	184640	responseLargeH	correct	n/a	0.44531	no	n/a	n/a
722.3242188	n/a	184915	largeTSmallH	correct	incongruent	0.55078	no	T	H
722.875	n/a	185056	responseLargeT	correct	n/a	0.55078	no	n/a	n/a
723.9492188	n/a	185331	largeTSmallT	correct	congruent	0.66406	no	T	T
724.6132812	n/a	185501	responseLargeT	correct	n/a	0.66406	no	n/a	n/a
725.671875	n/a	185772	largeTSmallT	correct	congruent	0.47266	no	T	T
726.1445312	n/a	185893	responseLargeT	correct	n/a	0.47266	no	n/a	n/a
727.203125	n/a	186164	largeHSmallT	correct	incongruent	0.43359	no	H	T
727.6367188	n/a	186275	responseLargeH	correct	n/a	0.43359	no	n/a	n/a
728.7109375	n/a	186550	largeHSmallT	correct	incongruent	0.4375	no	H	T
729.1484375	n/a	186662	responseLargeH	correct	n/a	0.4375	no	n/a	n/a
730.21875	n/a	186936	largeTSmallT	correct	congruent	0.48828	no	T	T
730.7070312	n/a	187061	responseLargeT	correct	n/a	0.48828	no	n/a	n/a
731.7773438	n/a	187335	largeHSmallT	correct	incongruent	0.49609	no	H	T
732.2734375	n/a	187462	responseLargeH	correct	n/a	0.49609	no	n/a	n/a
733.3359375	n/a	187734	largeTSmallT	correct	congruent	0.49609	no	T	T
733.8320312	n/a	187861	responseLargeT	correct	n/a	0.49609	no	n/a	n/a
734.8984375	n/a	188134	largeHSmallH	correct	congruent	0.37891	no	H	H
735.2773438	n/a	188231	responseLargeH	correct	n/a	0.37891	no	n/a	n/a
736.3515625	n/a	188506	largeHSmallH	correct	congruent	0.49609	no	H	H
736.8476562	n/a	188633	responseLargeH	correct	n/a	0.49609	no	n/a	n/a
737.9101562	n/a	188905	largeHSmallH	correct	congruent	0.42969	no	H	H
738.3398438	n/a	189015	responseLargeH	correct	n/a	0.42969	no	n/a	n/a
739.4023438	n/a	189287	largeHSmallT	correct	incongruent	0.43359	no	H	T
739.8359375	n/a	189398	responseLargeH	correct	n/a	0.43359	no	n/a	n/a
740.8984375	n/a	189670	largeHSmallH	correct	congruent	0.43359	no	H	H
741.3320312	n/a	189781	responseLargeH	correct	n/a	0.43359	no	n/a	n/a
742.4023438	n/a	190055	largeHSmallH	correct	congruent	0.45312	no	H	H
742.8554688	n/a	190171	responseLargeH	correct	n/a	0.45312	no	n/a	n/a
743.921875	n/a	190444	largeHSmallH	correct	congruent	0.41406	no	H	H
744.3359375	n/a	190550	responseLargeH	correct	n/a	0.41406	no	n/a	n/a
745.4023438	n/a	190823	largeHSmallH	correct	congruent	0.375	no	H	H
745.7773438	n/a	190919	responseLargeH	correct	n/a	0.375	no	n/a	n/a
746.84375	n/a	191192	largeHSmallH	correct	congruent	0.28516	no	H	H
747.1289062	n/a	191265	responseLargeH	correct	n/a	0.28516	no	n/a	n/a
748.203125	n/a	191540	largeTSmallT	correct	congruent	0.48828	no	T	T
748.6914062	n/a	191665	responseLargeT	correct	n/a	0.48828	no	n/a	n/a
749.7617188	n/a	191939	largeHSmallT	correct	incongruent	0.51172	no	H	T
750.2734375	n/a	192070	responseLargeH	correct	n/a	0.51172	no	n/a	n/a
751.3359375	n/a	192342	largeHSmallT	correct	incongruent	0.46875	no	H	T
751.8046875	n/a	192462	responseLargeH	correct	n/a	0.46875	no	n/a	n/a
752.8710938	n/a	192735	largeTSmallT	correct	congruent	0.45312	no	T	T
753.3242188	n/a	192851	responseLargeT	correct	n/a	0.45312	no	n/a	n/a
754.4023438	n/a	193127	largeHSmallT	correct	incongruent	0.53516	no	H	T
754.9375	n/a	193264	responseLargeH	correct	n/a	0.53516	no	n/a	n/a
756.0039062	n/a	193537	largeTSmallH	correct	incongruent	0.46094	no	T	H
756.4648438	n/a	193655	responseLargeT	correct	n/a	0.46094	no	n/a	n/a
757.5351562	n/a	193929	largeTSmallT	correct	congruent	0.57422	no	T	T
758.109375	n/a	194076	responseLargeT	correct	n/a	0.57422	no	n/a	n/a
759.1757812	n/a	194349	largeHSmallT	correct	incongruent	0.66016	no	H	T
759.8359375	n/a	194518	responseLargeH	correct	n/a	0.66016	no	n/a	n/a
760.8945312	n/a	194789	largeTSmallH	correct	incongruent	0.47266	no	T	H
761.3671875	n/a	194910	responseLargeT	correct	n/a	0.47266	no	n/a	n/a
762.4296875	n/a	195182	largeHSmallH	correct	congruent	0.42969	no	H	H
762.859375	n/a	195292	responseLargeH	correct	n/a	0.42969	no	n/a	n/a
763.921875	n/a	195564	largeHSmallT	correct	incongruent	0.40625	no	H	T
764.328125	n/a	195668	responseLargeH	correct	n/a	0.40625	no	n/a	n/a
765.390625	n/a	195940	largeHSmallH	correct	congruent	0.48047	no	H	H
765.8710938	n/a	196063	responseLargeH	correct	n/a	0.48047	no	n/a	n/a
766.9375	n/a	196336	largeTSmallH	correct	incongruent	0.59375	no	T	H
767.53125	n/a	196488	responseLargeT	correct	n/a	0.59375	no	n/a	n/a
768.5898438	n/a	196759	largeTSmallH	correct	incongruent	0.52734	no	T	H
769.1171875	n/a	196894	responseLargeT	correct	n/a	0.52734	no	n/a	n/a
770.1875	n/a	197168	largeTSmallH	correct	incongruent	0.53906	no	T	H
770.7265625	n/a	197306	responseLargeT	correct	n/a	0.53906	no	n/a	n/a
771.7890625	n/a	197578	largeHSmallT	correct	incongruent	0.4375	no	H	T
772.2265625	n/a	197690	responseLargeH	correct	n/a	0.4375	no	n/a	n/a
773.28125	n/a	197960	largeHSmallT	correct	incongruent	0.36328	no	H	T
773.6445312	n/a	198053	responseLargeH	correct	n/a	0.36328	no	n/a	n/a
774.7109375	n/a	198326	largeTSmallH	correct	incongruent	0.4375	no	T	H
775.1484375	n/a	198438	responseLargeT	correct	n/a	0.4375	no	n/a	n/a
776.2304688	n/a	198715	largeHSmallH	correct	congruent	0.34766	no	H	H
776.578125	n/a	198804	responseLargeH	correct	n/a	0.34766	no	n/a	n/a
777.640625	n/a	199076	largeTSmallH	correct	incongruent	0.56641	no	T	H
778.2070312	n/a	199221	responseLargeT	correct	n/a	0.56641	no	n/a	n/a
779.28125	n/a	199496	largeTSmallT	error	congruent	0.37891	no	T	T
779.6601562	n/a	199593	responseLargeH	error	n/a	0.37891	no	n/a	n/a
780.7226562	n/a	199865	largeTSmallT	correct	congruent	0.71094	no	T	T
781.4335938	n/a	200047	responseLargeT	correct	n/a	0.71094	no	n/a	n/a
782.5078125	n/a	200322	largeHSmallT	correct	incongruent	0.42969	no	H	T
782.9375	n/a	200432	responseLargeH	correct	n/a	0.42969	no	n/a	n/a
784.0039062	n/a	200705	largeTSmallT	correct	congruent	0.39062	no	T	T
784.3945312	n/a	200805	responseLargeT	correct	n/a	0.39062	no	n/a	n/a
785.4570312	n/a	201077	largeHSmallT	correct	incongruent	0.39844	no	H	T
785.8554688	n/a	201179	responseLargeH	correct	n/a	0.39844	no	n/a	n/a
786.921875	n/a	201452	largeTSmallH	correct	incongruent	0.41406	no	T	H
787.3359375	n/a	201558	responseLargeT	correct	n/a	0.41406	no	n/a	n/a
788.4023438	n/a	201831	largeHSmallH	correct	congruent	0.38672	no	H	H
788.7890625	n/a	201930	responseLargeH	correct	n/a	0.38672	no	n/a	n/a
789.8554688	n/a	202203	largeTSmallH	correct	incongruent	0.46875	no	T	H
790.3242188	n/a	202323	responseLargeT	correct	n/a	0.46875	no	n/a	n/a
791.390625	n/a	202596	largeHSmallT	correct	incongruent	0.41406	no	H	T
791.8046875	n/a	202702	responseLargeH	correct	n/a	0.41406	no	n/a	n/a
792.8671875	n/a	202974	largeTSmallT	correct	congruent	0.42188	no	T	T
793.2890625	n/a	203082	responseLargeT	correct	n/a	0.42188	no	n/a	n/a
794.3632812	n/a	203357	largeTSmallH	error	incongruent	0.37891	no	T	H
794.7421875	n/a	203454	responseLargeH	error	n/a	0.37891	no	n/a	n/a
795.8164062	n/a	203729	largeHSmallT	correct	incongruent	0.51172	no	H	T
796.328125	n/a	203860	responseLargeH	correct	n/a	0.51172	no	n/a	n/a
797.390625	n/a	204132	largeTSmallT	correct	congruent	0.39844	no	T	T
797.7890625	n/a	204234	responseLargeT	correct	n/a	0.39844	no	n/a	n/a
798.8554688	n/a	204507	largeHSmallT	correct	incongruent	0.44922	no	H	T
799.3046875	n/a	204622	responseLargeH	correct	n/a	0.44922	no	n/a	n/a
800.375	n/a	204896	largeTSmallT	correct	congruent	0.44922	no	T	T
800.8242188	n/a	205011	responseLargeT	correct	n/a	0.44922	no	n/a	n/a
801.8945312	n/a	205285	largeHSmallH	correct	congruent	0.41016	no	H	H
802.3046875	n/a	205390	responseLargeH	correct	n/a	0.41016	no	n/a	n/a
803.3632812	n/a	205661	largeHSmallH	correct	congruent	0.49219	no	H	H
803.8554688	n/a	205787	responseLargeH	correct	n/a	0.49219	no	n/a	n/a
804.921875	n/a	206060	largeTSmallH	correct	incongruent	0.48438	no	T	H
805.40625	n/a	206184	responseLargeT	correct	n/a	0.48438	no	n/a	n/a
806.46875	n/a	206456	largeHSmallT	correct	incongruent	0.47656	no	H	T
806.9453125	n/a	206578	responseLargeH	correct	n/a	0.47656	no	n/a	n/a
808.015625	n/a	206852	largeHSmallT	correct	incongruent	0.42969	no	H	T
808.4453125	n/a	206962	responseLargeH	correct	n/a	0.42969	no	n/a	n/a
809.5078125	n/a	207234	largeHSmallH	correct	congruent	0.4375	no	H	H
809.9453125	n/a	207346	responseLargeH	correct	n/a	0.4375	no	n/a	n/a
811.015625	n/a	207620	largeTSmallT	correct	congruent	0.57422	no	T	T
811.5898438	n/a	207767	responseLargeT	correct	n/a	0.57422	no	n/a	n/a
812.6679688	n/a	208043	largeTSmallT	correct	congruent	0.49219	no	T	T
813.1601562	n/a	208169	responseLargeT	correct	n/a	0.49219	no	n/a	n/a
814.2265625	n/a	208442	largeTSmallH	correct	incongruent	0.41016	no	T	H
814.6367188	n/a	208547	responseLargeT	correct	n/a	0.41016	no	n/a	n/a
815.7070312	n/a	208821	largeHSmallT	correct	incongruent	0.73047	no	H	T
816.4375	n/a	209008	responseLargeH	correct	n/a	0.73047	no	n/a	n/a
817.4960938	n/a	209279	largeTSmallT	correct	congruent	0.46484	no	T	T
817.9609375	n/a	209398	responseLargeT	correct	n/a	0.46484	no	n/a	n/a
819.0273438	n/a	209671	largeTSmallH	correct	incongruent	0.46875	no	T	H
819.4960938	n/a	209791	responseLargeT	correct	n/a	0.46875	no	n/a	n/a
820.5625	n/a	210064	largeHSmallH	correct	congruent	0.42969	no	H	H
820.9921875	n/a	210174	responseLargeH	correct	n/a	0.42969	no	n/a	n/a
822.0546875	n/a	210446	largeTSmallT	correct	congruent	0.44141	no	T	T
822.4960938	n/a	210559	responseLargeT	correct	n/a	0.44141	no	n/a	n/a
823.5742188	n/a	210835	largeHSmallH	correct	congruent	0.39844	no	H	H
823.9726562	n/a	210937	responseLargeH	correct	n/a	0.39844	no	n/a	n/a
825.0273438	n/a	211207	largeTSmallT	correct	congruent	0.48047	no	T	T
825.5078125	n/a	211330	responseLargeT	correct	n/a	0.48047	no	n/a	n/a
826.5742188	n/a	211603	largeTSmallT	correct	congruent	0.48828	no	T	T
827.0625	n/a	211728	responseLargeT	correct	n/a	0.48828	no	n/a	n/a
828.1210938	n/a	211999	largeHSmallH	correct	congruent	0.45312	no	H	H
828.5742188	n/a	212115	responseLargeH	correct	n/a	0.45312	no	n/a	n/a
829.640625	n/a	212388	largeTSmallH	correct	incongruent	0.57422	no	T	H
830.2148438	n/a	212535	responseLargeT	correct	n/a	0.57422	no	n/a	n/a
831.2695312	n/a	212805	largeTSmallH	correct	incongruent	0.42578	no	T	H
831.6953125	n/a	212914	responseLargeT	correct	n/a	0.42578	no	n/a	n/a
832.7617188	n/a	213187	largeTSmallT	correct	congruent	0.42578	no	T	T
833.1875	n/a	213296	responseLargeT	correct	n/a	0.42578	no	n/a	n/a
834.2539062	n/a	213569	largeHSmallH	correct	congruent	0.44531	no	H	H
834.6992188	n/a	213683	responseLargeH	correct	n/a	0.44531	no	n/a	n/a
835.7617188	n/a	213955	largeTSmallH	correct	incongruent	0.64844	no	T	H
836.4101562	n/a	214121	responseLargeT	correct	n/a	0.64844	no	n/a	n/a
837.4804688	n/a	214395	largeHSmallH	correct	congruent	0.59375	no	H	H
838.0742188	n/a	214547	responseLargeH	correct	n/a	0.59375	no	n/a	n/a
839.1328125	n/a	214818	largeHSmallT	correct	incongruent	0.44531	no	H	T
839.578125	n/a	214932	responseLargeH	correct	n/a	0.44531	no	n/a	n/a
840.65625	n/a	215208	largeHSmallH	correct	congruent	0.42188	no	H	H
841.078125	n/a	215316	responseLargeH	correct	n/a	0.42188	no	n/a	n/a
842.1484375	n/a	215590	largeHSmallT	correct	incongruent	0.4375	no	H	T
842.5859375	n/a	215702	responseLargeH	correct	n/a	0.4375	no	n/a	n/a
843.6679688	n/a	215979	largeTSmallT	correct	congruent	0.45703	no	T	T
844.125	n/a	216096	responseLargeT	correct	n/a	0.45703	no	n/a	n/a
845.1875	n/a	216368	largeHSmallH	correct	congruent	0.44922	no	H	H
845.6367188	n/a	216483	responseLargeH	correct	n/a	0.44922	no	n/a	n/a
846.7070312	n/a	216757	largeTSmallH	correct	incongruent	0.53125	no	T	H
847.2382812	n/a	216893	responseLargeT	correct	n/a	0.53125	no	n/a	n/a
848.3085938	n/a	217167	largeTSmallT	correct	congruent	0.48828	no	T	T
848.796875	n/a	217292	responseLargeT	correct	n/a	0.48828	no	n/a	n/a
849.8671875	n/a	217566	largeHSmallH	correct	congruent	0.42969	no	H	H
850.296875	n/a	217676	responseLargeH	correct	n/a	0.42969	no	n/a	n/a
851.359375	n/a	217948	largeTSmallH	correct	incongruent	0.45703	no	T	H
851.8164062	n/a	218065	responseLargeT	correct	n/a	0.45703	no	n/a	n/a
852.8828125	n/a	218338	largeTSmallT	correct	congruent	0.45312	no	T	T
853.3359375	n/a	218454	responseLargeT	correct	n/a	0.45312	no	n/a	n/a
854.4140625	n/a	218730	largeHSmallH	correct	congruent	0.40234	no	H	H
854.8164062	n/a	218833	responseLargeH	correct	n/a	0.40234	no	n/a	n/a
855.8945312	n/a	219109	largeHSmallH	correct	congruent	0.35938	no	H	H
856.2539062	n/a	219201	responseLargeH	correct	n/a	0.35938	no	n/a	n/a
857.3203125	n/a	219474	largeHSmallT	correct	incongruent	0.42578	no	H	T
857.7460938	n/a	219583	responseLargeH	correct	n/a	0.42578	no	n/a	n/a
858.8125	n/a	219856	largeTSmallH	correct	incongruent	0.51953	no	T	H
859.3320312	n/a	219989	responseLargeT	correct	n/a	0.51953	no	n/a	n/a
860.4023438	n/a	220263	largeHSmallT	correct	incongruent	0.51172	no	H	T
860.9140625	n/a	220394	responseLargeH	correct	n/a	0.51172	no	n/a	n/a
861.9882812	n/a	220669	largeHSmallH	correct	congruent	0.41797	no	H	H
862.40625	n/a	220776	responseLargeH	correct	n/a	0.41797	no	n/a	n/a
863.46875	n/a	221048	largeTSmallT	correct	congruent	0.4375	no	T	T
863.90625	n/a	221160	responseLargeT	correct	n/a	0.4375	no	n/a	n/a
864.9726562	n/a	221433	largeHSmallH	correct	congruent	0.41016	no	H	H
865.3828125	n/a	221538	responseLargeH	correct	n/a	0.41016	no	n/a	n/a
866.453125	n/a	221812	largeHSmallH	correct	congruent	0.4375	no	H	H
866.890625	n/a	221924	responseLargeH	correct	n/a	0.4375	no	n/a	n/a
867.9492188	n/a	222195	largeTSmallH	error	incongruent	0.32812	no	T	H
868.2773438	n/a	222279	responseLargeH	error	n/a	0.32812	no	n/a	n/a
869.3320312	n/a	222549	largeTSmallT	correct	congruent	0.42578	no	T	T
869.7578125	n/a	222658	responseLargeT	correct	n/a	0.42578	no	n/a	n/a
870.8125	n/a	222928	largeHSmallH	correct	congruent	0.46875	no	H	H
871.28125	n/a	223048	responseLargeH	correct	n/a	0.46875	no	n/a	n/a
872.3476562	n/a	223321	largeHSmallH	correct	congruent	0.38281	no	H	H
872.7304688	n/a	223419	responseLargeH	correct	n/a	0.38281	no	n/a	n/a
873.8007812	n/a	223693	largeHSmallH	correct	congruent	0.41016	no	H	H
874.2109375	n/a	223798	responseLargeH	correct	n/a	0.41016	no	n/a	n/a
875.28125	n/a	224072	largeHSmallT	correct	incongruent	0.96875	no	H	T
876.25	n/a	224320	responseLargeH	correct	n/a	0.96875	no	n/a	n/a
877.3085938	n/a	224591	largeHSmallH	correct	congruent	0.42578	no	H	H
877.734375	n/a	224700	responseLargeH	correct	n/a	0.42578	no	n/a	n/a
878.8125	n/a	224976	largeTSmallT	correct	congruent	0.625	no	T	T
879.4375	n/a	225136	responseLargeT	correct	n/a	0.625	no	n/a	n/a
880.5078125	n/a	225410	largeHSmallH	correct	congruent	0.48047	no	H	H
880.9882812	n/a	225533	responseLargeH	correct	n/a	0.48047	no	n/a	n/a
882.0546875	n/a	225806	largeHSmallH	correct	congruent	0.49609	no	H	H
882.5507812	n/a	225933	responseLargeH	correct	n/a	0.49609	no	n/a	n/a
883.6132812	n/a	226205	largeTSmallT	correct	congruent	0.50391	no	T	T
884.1171875	n/a	226334	responseLargeT	correct	n/a	0.50391	no	n/a	n/a
885.1875	n/a	226608	largeTSmallH	correct	incongruent	0.48438	no	T	H
885.671875	n/a	226732	responseLargeT	correct	n/a	0.48438	no	n/a	n/a
886.734375	n/a	227004	largeTSmallH	correct	incongruent	0.50391	no	T	H
887.2382812	n/a	227133	responseLargeT	correct	n/a	0.50391	no	n/a	n/a
888.3046875	n/a	227406	largeHSmallT	correct	incongruent	0.47266	no	H	T
888.7773438	n/a	227527	responseLargeH	correct	n/a	0.47266	no	n/a	n/a
889.8398438	n/a	227799	largeTSmallH	correct	incongruent	0.51172	no	T	H
890.3515625	n/a	227930	responseLargeT	correct	n/a	0.51172	no	n/a	n/a
891.4140625	n/a	228202	largeTSmallH	correct	incongruent	0.45703	no	T	H
891.8710938	n/a	228319	responseLargeT	correct	n/a	0.45703	no	n/a	n/a
892.9453125	n/a	228594	largeTSmallT	correct	congruent	0.46484	no	T	T
893.4101562	n/a	228713	responseLargeT	correct	n/a	0.46484	no	n/a	n/a
894.4648438	n/a	228983	largeHSmallH	correct	congruent	0.48047	no	H	H
894.9453125	n/a	229106	responseLargeH	correct	n/a	0.48047	no	n/a	n/a
896.0117188	n/a	229379	largeHSmallT	correct	incongruent	0.57031	no	H	T
896.5820312	n/a	229525	responseLargeH	correct	n/a	0.57031	no	n/a	n/a
897.6523438	n/a	229799	largeTSmallH	correct	incongruent	0.51562	no	T	H
898.1679688	n/a	229931	responseLargeT	correct	n/a	0.51562	no	n/a	n/a
899.2382812	n/a	230205	largeTSmallT	correct	congruent	0.59766	no	T	T
899.8359375	n/a	230358	responseLargeT	correct	n/a	0.59766	no	n/a	n/a
900.8945312	n/a	230629	largeTSmallH	correct	incongruent	1.3438	no	T	H
902.2382812	n/a	230973	responseLargeT	correct	n/a	1.3438	no	n/a	n/a
903.3046875	n/a	231246	largeTSmallT	correct	congruent	0.50781	no	T	T
903.8125	n/a	231376	responseLargeT	correct	n/a	0.50781	no	n/a	n/a
904.8789062	n/a	231649	largeTSmallT	correct	congruent	0.4375	no	T	T
905.3164062	n/a	231761	responseLargeT	correct	n/a	0.4375	no	n/a	n/a
906.3867188	n/a	232035	largeTSmallT	correct	congruent	0.38672	no	T	T
906.7734375	n/a	232134	responseLargeT	correct	n/a	0.38672	no	n/a	n/a
907.8398438	n/a	232407	largeHSmallT	correct	incongruent	0.38672	no	H	T
908.2265625	n/a	232506	responseLargeH	correct	n/a	0.38672	no	n/a	n/a
909.2929688	n/a	232779	largeHSmallH	correct	congruent	0.40625	no	H	H
909.6992188	n/a	232883	responseLargeH	correct	n/a	0.40625	no	n/a	n/a
910.7734375	n/a	233158	largeTSmallH	correct	incongruent	0.46484	no	T	H
911.2382812	n/a	233277	responseLargeT	correct	n/a	0.46484	no	n/a	n/a
912.3046875	n/a	233550	largeHSmallH	correct	congruent	0.48438	no	H	H
912.7890625	n/a	233674	responseLargeH	correct	n/a	0.48438	no	n/a	n/a
913.8671875	n/a	233950	largeHSmallT	correct	incongruent	0.44922	no	H	T
914.3164062	n/a	234065	responseLargeH	correct	n/a	0.44922	no	n/a	n/a
915.3867188	n/a	234339	largeTSmallT	correct	congruent	0.60547	no	T	T
915.9921875	n/a	234494	responseLargeT	correct	n/a	0.60547	no	n/a	n/a
917.0546875	n/a	234766	largeTSmallT	correct	congruent	0.48438	no	T	T
917.5390625	n/a	234890	responseLargeT	correct	n/a	0.48438	no	n/a	n/a
918.5976562	n/a	235161	largeHSmallT	correct	incongruent	0.48047	no	H	T
919.078125	n/a	235284	responseLargeH	correct	n/a	0.48047	no	n/a	n/a
920.1484375	n/a	235558	largeTSmallH	correct	incongruent	0.48828	no	T	H
920.6367188	n/a	235683	responseLargeT	correct	n/a	0.48828	no	n/a	n/a
921.7070312	n/a	235957	largeHSmallH	correct	congruent	0.45312	no	H	H
922.1601562	n/a	236073	responseLargeH	correct	n/a	0.45312	no	n/a	n/a
923.2382812	n/a	236349	largeTSmallH	correct	incongruent	0.5	no	T	H
923.7382812	n/a	236477	responseLargeT	correct	n/a	0.5	no	n/a	n/a
924.8125	n/a	236752	largeHSmallT	correct	incongruent	0.4375	no	H	T
925.25	n/a	236864	responseLargeH	correct	n/a	0.4375	no	n/a	n/a
926.3203125	n/a	237138	largeTSmallH	correct	incongruent	0.78906	no	T	H
927.109375	n/a	237340	responseLargeT	correct	n/a	0.78906	no	n/a	n/a
928.1875	n/a	237616	largeHSmallH	correct	congruent	0.41016	no	H	H
928.5976562	n/a	237721	responseLargeH	correct	n/a	0.41016	no	n/a	n/a
929.6640625	n/a	237994	largeTSmallH	correct	incongruent	0.46875	no	T	H
930.1328125	n/a	238114	responseLargeT	correct	n/a	0.46875	no	n/a	n/a
931.1875	n/a	238384	largeTSmallT	correct	congruent	0.40234	no	T	T
931.5898438	n/a	238487	responseLargeT	correct	n/a	0.40234	no	n/a	n/a
932.6640625	n/a	238762	largeHSmallT	correct	incongruent	0.45703	no	H	T
933.1210938	n/a	238879	responseLargeH	correct	n/a	0.45703	no	n/a	n/a
934.1875	n/a	239152	largeHSmallH	correct	congruent	0.35547	no	H	H
934.5429688	n/a	239243	responseLargeH	correct	n/a	0.35547	no	n/a	n/a
935.6132812	n/a	239517	largeTSmallT	correct	congruent	0.41797	no	T	T
936.03125	n/a	239624	responseLargeT	correct	n/a	0.41797	no	n/a	n/a
937.1054688	n/a	239899	largeTSmallH	error	incongruent	0.51172	no	T	H
937.6171875	n/a	240030	responseLargeH	error	n/a	0.51172	no	n/a	n/a
938.6796875	n/a	240302	largeTSmallH	correct	incongruent	0.5625	no	T	H
939.2421875	n/a	240446	responseLargeT	correct	n/a	0.5625	no	n/a	n/a
940.3046875	n/a	240718	largeHSmallT	correct	incongruent	0.50391	no	H	T
940.8085938	n/a	240847	responseLargeH	correct	n/a	0.50391	no	n/a	n/a
941.8789062	n/a	241121	largeTSmallH	correct	incongruent	0.59766	no	T	H
942.4765625	n/a	241274	responseLargeT	correct	n/a	0.59766	no	n/a	n/a
943.546875	n/a	241548	largeHSmallT	correct	incongruent	0.42969	no	H	T
943.9765625	n/a	241658	responseLargeH	correct	n/a	0.42969	no	n/a	n/a
945.0390625	n/a	241930	largeTSmallH	correct	incongruent	0.51562	no	T	H
945.5546875	n/a	242062	responseLargeT	correct	n/a	0.51562	no	n/a	n/a
946.625	n/a	242336	largeHSmallT	correct	incongruent	0.42578	no	H	T
947.0507812	n/a	242445	responseLargeH	correct	n/a	0.42578	no	n/a	n/a
948.1171875	n/a	242718	largeTSmallH	correct	incongruent	0.4375	no	T	H
948.5546875	n/a	242830	responseLargeT	correct	n/a	0.4375	no	n/a	n/a
949.6132812	n/a	243101	largeTSmallT	correct	congruent	0.46094	no	T	T
950.0742188	n/a	243219	responseLargeT	correct	n/a	0.46094	no	n/a	n/a
951.1445312	n/a	243493	largeHSmallT	correct	incongruent	0.42188	no	H	T
951.5664062	n/a	243601	responseLargeH	correct	n/a	0.42188	no	n/a	n/a
952.625	n/a	243872	largeHSmallH	error	congruent	0.35938	no	H	H
952.984375	n/a	243964	responseLargeT	error	n/a	0.35938	no	n/a	n/a
954.0507812	n/a	244237	largeTSmallT	correct	congruent	0.48438	no	T	T
954.5351562	n/a	244361	responseLargeT	correct	n/a	0.48438	no	n/a	n/a
955.6132812	n/a	244637	largeTSmallT	correct	congruent	0.57422	no	T	T
956.1875	n/a	244784	responseLargeT	correct	n/a	0.57422	no	n/a	n/a
957.265625	n/a	245060	largeTSmallH	correct	incongruent	0.78125	no	T	H
958.046875	n/a	245260	responseLargeT	correct	n/a	0.78125	no	n/a	n/a
959.1171875	n/a	245534	largeTSmallH	correct	incongruent	0.5	no	T	H
959.6171875	n/a	245662	responseLargeT	correct	n/a	0.5	no	n/a	n/a
960.6914062	n/a	245937	largeTSmallH	correct	incongruent	0.38281	no	T	H
961.0742188	n/a	246035	responseLargeT	correct	n/a	0.38281	no	n/a	n/a
962.1445312	n/a	246309	largeHSmallH	correct	congruent	0.4375	no	H	H
962.5820312	n/a	246421	responseLargeH	correct	n/a	0.4375	no	n/a	n/a
963.6523438	n/a	246695	largeTSmallT	correct	congruent	0.46484	no	T	T
964.1171875	n/a	246814	responseLargeT	correct	n/a	0.46484	no	n/a	n/a
965.1835938	n/a	247087	largeHSmallH	correct	congruent	0.55469	no	H	H
965.7382812	n/a	247229	responseLargeH	correct	n/a	0.55469	no	n/a	n/a
966.8125	n/a	247504	largeHSmallH	correct	congruent	0.44531	no	H	H
967.2578125	n/a	247618	responseLargeH	correct	n/a	0.44531	no	n/a	n/a
968.3203125	n/a	247890	largeHSmallT	correct	incongruent	0.59375	no	H	T
968.9140625	n/a	248042	responseLargeH	correct	n/a	0.59375	no	n/a	n/a
969.984375	n/a	248316	largeTSmallH	correct	incongruent	0.41406	no	T	H
970.3984375	n/a	248422	responseLargeT	correct	n/a	0.41406	no	n/a	n/a
971.4648438	n/a	248695	largeTSmallT	correct	congruent	0.45703	no	T	T
971.921875	n/a	248812	responseLargeT	correct	n/a	0.45703	no	n/a	n/a
972.984375	n/a	249084	largeTSmallT	correct	congruent	0.44531	no	T	T
973.4296875	n/a	249198	responseLargeT	correct	n/a	0.44531	no	n/a	n/a
974.5039062	n/a	249473	largeTSmallH	error	incongruent	0.61719	no	T	H
975.1210938	n/a	249631	responseLargeH	error	n/a	0.61719	no	n/a	n/a
976.1835938	n/a	249903	largeTSmallH	error	incongruent	0.5	no	T	H
976.6835938	n/a	250031	responseLargeH	error	n/a	0.5	no	n/a	n/a
977.7578125	n/a	250306	largeTSmallT	correct	congruent	0.57812	no	T	T
978.3359375	n/a	250454	responseLargeT	correct	n/a	0.57812	no	n/a	n/a
979.3984375	n/a	250726	largeHSmallH	correct	congruent	0.44922	no	H	H
979.8476562	n/a	250841	responseLargeH	correct	n/a	0.44922	no	n/a	n/a
980.90625	n/a	251112	largeTSmallH	correct	incongruent	0.54297	no	T	H
981.4492188	n/a	251251	responseLargeT	correct	n/a	0.54297	no	n/a	n/a
999.3828125	n/a	255842	largeHSmallT	correct	incongruent	0.59375	no	H	T
999.9765625	n/a	255994	responseSmallT	correct	n/a	0.59375	no	n/a	n/a
1001.050781	n/a	256269	largeHSmallT	correct	incongruent	0.46094	no	H	T
1001.511719	n/a	256387	responseSmallT	correct	n/a	0.46094	no	n/a	n/a
1002.585938	n/a	256662	largeTSmallT	correct	congruent	0.51562	no	T	T
1003.101562	n/a	256794	responseSmallT	correct	n/a	0.51562	no	n/a	n/a
1004.171875	n/a	257068	largeHSmallH	correct	congruent	0.41406	no	H	H
1004.585938	n/a	257174	responseSmallH	correct	n/a	0.41406	no	n/a	n/a
1005.652344	n/a	257447	largeHSmallT	correct	incongruent	0.60547	no	H	T
1006.257812	n/a	257602	responseSmallT	correct	n/a	0.60547	no	n/a	n/a
1007.316406	n/a	257873	largeHSmallH	correct	congruent	0.375	no	H	H
1007.691406	n/a	257969	responseSmallH	correct	n/a	0.375	no	n/a	n/a
1008.757812	n/a	258242	largeHSmallH	correct	congruent	0.44141	no	H	H
1009.199219	n/a	258355	responseSmallH	correct	n/a	0.44141	no	n/a	n/a
1010.265625	n/a	258628	largeTSmallT	correct	congruent	0.41797	no	T	T
1010.683594	n/a	258735	responseSmallT	correct	n/a	0.41797	no	n/a	n/a
1011.746094	n/a	259007	largeTSmallT	correct	congruent	0.42969	no	T	T
1012.175781	n/a	259117	responseSmallT	correct	n/a	0.42969	no	n/a	n/a
1013.25	n/a	259392	largeHSmallH	correct	congruent	0.44141	no	H	H
1013.691406	n/a	259505	responseSmallH	correct	n/a	0.44141	no	n/a	n/a
1014.757812	n/a	259778	largeTSmallH	correct	incongruent	0.60156	no	T	H
1015.359375	n/a	259932	responseSmallH	correct	n/a	0.60156	no	n/a	n/a
1016.425781	n/a	260205	largeTSmallT	correct	congruent	0.51953	no	T	T
1016.945312	n/a	260338	responseSmallT	correct	n/a	0.51953	no	n/a	n/a
1018.011719	n/a	260611	largeHSmallT	correct	incongruent	0.59766	no	H	T
1018.609375	n/a	260764	responseSmallT	correct	n/a	0.59766	no	n/a	n/a
1019.675781	n/a	261037	largeHSmallH	correct	congruent	0.54297	no	H	H
1020.21875	n/a	261176	responseSmallH	correct	n/a	0.54297	no	n/a	n/a
1021.289062	n/a	261450	largeHSmallT	correct	incongruent	0.43359	no	H	T
1021.722656	n/a	261561	responseSmallT	correct	n/a	0.43359	no	n/a	n/a
1022.796875	n/a	261836	largeHSmallT	correct	incongruent	0.41016	no	H	T
1023.207031	n/a	261941	responseSmallT	correct	n/a	0.41016	no	n/a	n/a
1024.277344	n/a	262215	largeTSmallH	correct	incongruent	0.46875	no	T	H
1024.746094	n/a	262335	responseSmallH	correct	n/a	0.46875	no	n/a	n/a
1025.808594	n/a	262607	largeTSmallH	correct	incongruent	0.44531	no	T	H
1026.253906	n/a	262721	responseSmallH	correct	n/a	0.44531	no	n/a	n/a
1027.316406	n/a	262993	largeTSmallH	correct	incongruent	0.40234	no	T	H
1027.71875	n/a	263096	responseSmallH	correct	n/a	0.40234	no	n/a	n/a
1028.785156	n/a	263369	largeTSmallT	correct	congruent	0.43359	no	T	T
1029.21875	n/a	263480	responseSmallT	correct	n/a	0.43359	no	n/a	n/a
1030.277344	n/a	263751	largeHSmallT	correct	incongruent	0.58594	no	H	T
1030.863281	n/a	263901	responseSmallT	correct	n/a	0.58594	no	n/a	n/a
1031.945312	n/a	264178	largeTSmallH	correct	incongruent	0.56641	no	T	H
1032.511719	n/a	264323	responseSmallH	correct	n/a	0.56641	no	n/a	n/a
1033.570312	n/a	264594	largeHSmallH	correct	congruent	0.42578	no	H	H
1033.996094	n/a	264703	responseSmallH	correct	n/a	0.42578	no	n/a	n/a
1035.0625	n/a	264976	largeTSmallH	correct	incongruent	0.40625	no	T	H
1035.46875	n/a	265080	responseSmallH	correct	n/a	0.40625	no	n/a	n/a
1036.542969	n/a	265355	largeHSmallT	error	incongruent	0.50391	no	H	T
1037.046875	n/a	265484	responseSmallH	error	n/a	0.50391	no	n/a	n/a
1038.117188	n/a	265758	largeTSmallH	correct	incongruent	0.50781	no	T	H
1038.625	n/a	265888	responseSmallH	correct	n/a	0.50781	no	n/a	n/a
1039.691406	n/a	266161	largeTSmallT	correct	congruent	0.46875	no	T	T
1040.160156	n/a	266281	responseSmallT	correct	n/a	0.46875	no	n/a	n/a
1041.222656	n/a	266553	largeHSmallT	correct	incongruent	0.44141	no	H	T
1041.664062	n/a	266666	responseSmallT	correct	n/a	0.44141	no	n/a	n/a
1042.730469	n/a	266939	largeTSmallH	correct	incongruent	0.48828	no	T	H
1043.21875	n/a	267064	responseSmallH	correct	n/a	0.48828	no	n/a	n/a
1044.277344	n/a	267335	largeHSmallT	correct	incongruent	0.45312	no	H	T
1044.730469	n/a	267451	responseSmallT	correct	n/a	0.45312	no	n/a	n/a
1045.796875	n/a	267724	largeHSmallT	correct	incongruent	0.49609	no	H	T
1046.292969	n/a	267851	responseSmallT	correct	n/a	0.49609	no	n/a	n/a
1047.371094	n/a	268127	largeTSmallH	correct	incongruent	0.53516	no	T	H
1047.90625	n/a	268264	responseSmallH	correct	n/a	0.53516	no	n/a	n/a
1048.96875	n/a	268536	largeTSmallT	correct	congruent	0.39062	no	T	T
1049.359375	n/a	268636	responseSmallT	correct	n/a	0.39062	no	n/a	n/a
1050.421875	n/a	268908	largeTSmallH	correct	incongruent	0.42578	no	T	H
1050.847656	n/a	269017	responseSmallH	correct	n/a	0.42578	no	n/a	n/a
1051.917969	n/a	269291	largeTSmallH	correct	incongruent	0.53125	no	T	H
1052.449219	n/a	269427	responseSmallH	correct	n/a	0.53125	no	n/a	n/a
1053.515625	n/a	269700	largeHSmallT	correct	incongruent	0.44922	no	H	T
1053.964844	n/a	269815	responseSmallT	correct	n/a	0.44922	no	n/a	n/a
1055.023438	n/a	270086	largeTSmallT	correct	congruent	0.53125	no	T	T
1055.554688	n/a	270222	responseSmallT	correct	n/a	0.53125	no	n/a	n/a
1056.609375	n/a	270492	largeTSmallT	correct	congruent	0.42969	no	T	T
1057.039062	n/a	270602	responseSmallT	correct	n/a	0.42969	no	n/a	n/a
1058.117188	n/a	270878	largeTSmallH	correct	incongruent	0.56641	no	T	H
1058.683594	n/a	271023	responseSmallH	correct	n/a	0.56641	no	n/a	n/a
1059.757812	n/a	271298	largeTSmallH	correct	incongruent	0.50781	no	T	H
1060.265625	n/a	271428	responseSmallH	correct	n/a	0.50781	no	n/a	n/a
1061.328125	n/a	271700	largeTSmallH	correct	incongruent	0.50391	no	T	H
1061.832031	n/a	271829	responseSmallH	correct	n/a	0.50391	no	n/a	n/a
1062.902344	n/a	272103	largeTSmallT	correct	congruent	0.45703	no	T	T
1063.359375	n/a	272220	responseSmallT	correct	n/a	0.45703	no	n/a	n/a
1064.4375	n/a	272496	largeTSmallT	correct	congruent	0.42188	no	T	T
1064.859375	n/a	272604	responseSmallT	correct	n/a	0.42188	no	n/a	n/a
1065.929688	n/a	272878	largeHSmallH	correct	congruent	0.53516	no	H	H
1066.464844	n/a	273015	responseSmallH	correct	n/a	0.53516	no	n/a	n/a
1067.53125	n/a	273288	largeTSmallT	correct	congruent	0.57812	no	T	T
1068.109375	n/a	273436	responseSmallT	correct	n/a	0.57812	no	n/a	n/a
1069.167969	n/a	273707	largeHSmallH	correct	congruent	0.56641	no	H	H
1069.734375	n/a	273852	responseSmallH	correct	n/a	0.56641	no	n/a	n/a
1070.796875	n/a	274124	largeTSmallT	correct	congruent	0.46875	no	T	T
1071.265625	n/a	274244	responseSmallT	correct	n/a	0.46875	no	n/a	n/a
1072.328125	n/a	274516	largeTSmallH	correct	incongruent	0.47266	no	T	H
1072.800781	n/a	274637	responseSmallH	correct	n/a	0.47266	no	n/a	n/a
1073.875	n/a	274912	largeTSmallT	correct	congruent	0.52734	no	T	T
1074.402344	n/a	275047	responseSmallT	correct	n/a	0.52734	no	n/a	n/a
1075.476562	n/a	275322	largeTSmallH	correct	incongruent	0.55859	no	T	H
1076.035156	n/a	275465	responseSmallH	correct	n/a	0.55859	no	n/a	n/a
1077.101562	n/a	275738	largeHSmallT	correct	incongruent	0.54688	no	H	T
1077.648438	n/a	275878	responseSmallT	correct	n/a	0.54688	no	n/a	n/a
1078.730469	n/a	276155	largeHSmallH	correct	congruent	0.53125	no	H	H
1079.261719	n/a	276291	responseSmallH	correct	n/a	0.53125	no	n/a	n/a
1080.328125	n/a	276564	largeHSmallH	correct	congruent	0.46875	no	H	H
1080.796875	n/a	276684	responseSmallH	correct	n/a	0.46875	no	n/a	n/a
1081.863281	n/a	276957	largeHSmallT	correct	incongruent	0.54297	no	H	T
1082.40625	n/a	277096	responseSmallT	correct	n/a	0.54297	no	n/a	n/a
1083.476562	n/a	277370	largeHSmallT	correct	incongruent	0.44141	no	H	T
1083.917969	n/a	277483	responseSmallT	correct	n/a	0.44141	no	n/a	n/a
1084.980469	n/a	277755	largeHSmallH	correct	congruent	0.52344	no	H	H
1085.503906	n/a	277889	responseSmallH	correct	n/a	0.52344	no	n/a	n/a
1086.570312	n/a	278162	largeHSmallT	correct	incongruent	0.46094	no	H	T
1087.03125	n/a	278280	responseSmallT	correct	n/a	0.46094	no	n/a	n/a
1088.101562	n/a	278554	largeTSmallT	correct	congruent	0.54297	no	T	T
1088.644531	n/a	278693	responseSmallT	correct	n/a	0.54297	no	n/a	n/a
1089.703125	n/a	278964	largeHSmallH	correct	congruent	0.51172	no	H	H
1090.214844	n/a	279095	responseSmallH	correct	n/a	0.51172	no	n/a	n/a
1091.277344	n/a	279367	largeHSmallH	correct	congruent	0.41797	no	H	H
1091.695312	n/a	279474	responseSmallH	correct	n/a	0.41797	no	n/a	n/a
1092.757812	n/a	279746	largeHSmallT	correct	incongruent	0.44141	no	H	T
1093.199219	n/a	279859	responseSmallT	correct	n/a	0.44141	no	n/a	n/a
1094.261719	n/a	280131	largeTSmallT	correct	congruent	0.48828	no	T	T
1094.75	n/a	280256	responseSmallT	correct	n/a	0.48828	no	n/a	n/a
1095.820312	n/a	280530	largeHSmallT	correct	incongruent	0.49219	no	H	T
1096.3125	n/a	280656	responseSmallT	correct	n/a	0.49219	no	n/a	n/a
1097.382812	n/a	280930	largeTSmallH	correct	incongruent	0.61328	no	T	H
1097.996094	n/a	281087	responseSmallH	correct	n/a	0.61328	no	n/a	n/a
1099.0625	n/a	281360	largeHSmallT	correct	incongruent	0.48828	no	H	T
1099.550781	n/a	281485	responseSmallT	correct	n/a	0.48828	no	n/a	n/a
1100.621094	n/a	281759	largeHSmallH	correct	congruent	0.44141	no	H	H
1101.0625	n/a	281872	responseSmallH	correct	n/a	0.44141	no	n/a	n/a
1102.140625	n/a	282148	largeTSmallT	correct	congruent	0.45703	no	T	T
1102.597656	n/a	282265	responseSmallT	correct	n/a	0.45703	no	n/a	n/a
1103.660156	n/a	282537	largeTSmallT	correct	congruent	0.46875	no	T	T
1104.128906	n/a	282657	responseSmallT	correct	n/a	0.46875	no	n/a	n/a
1105.195312	n/a	282930	largeHSmallH	correct	congruent	0.4375	no	H	H
1105.632812	n/a	283042	responseSmallH	correct	n/a	0.4375	no	n/a	n/a
1106.6875	n/a	283312	largeTSmallH	correct	incongruent	0.47266	no	T	H
1107.160156	n/a	283433	responseSmallH	correct	n/a	0.47266	no	n/a	n/a
1108.222656	n/a	283705	largeHSmallT	correct	incongruent	0.42969	no	H	T
1108.652344	n/a	283815	responseSmallT	correct	n/a	0.42969	no	n/a	n/a
1109.714844	n/a	284087	largeHSmallH	correct	congruent	0.43359	no	H	H
1110.148438	n/a	284198	responseSmallH	correct	n/a	0.43359	no	n/a	n/a
1111.222656	n/a	284473	largeHSmallT	correct	incongruent	0.48438	no	H	T
1111.707031	n/a	284597	responseSmallT	correct	n/a	0.48438	no	n/a	n/a
1112.78125	n/a	284872	largeHSmallH	correct	congruent	0.37891	no	H	H
1113.160156	n/a	284969	responseSmallH	correct	n/a	0.37891	no	n/a	n/a
1114.222656	n/a	285241	largeTSmallT	correct	congruent	0.38672	no	T	T
1114.609375	n/a	285340	responseSmallT	correct	n/a	0.38672	no	n/a	n/a
1115.675781	n/a	285613	largeTSmallH	correct	incongruent	0.37109	no	T	H
1116.046875	n/a	285708	responseSmallH	correct	n/a	0.37109	no	n/a	n/a
1117.113281	n/a	285981	largeTSmallT	correct	congruent	0.45312	no	T	T
1117.566406	n/a	286097	responseSmallT	correct	n/a	0.45312	no	n/a	n/a
1118.621094	n/a	286367	largeTSmallH	correct	incongruent	0.52734	no	T	H
1119.148438	n/a	286502	responseSmallH	correct	n/a	0.52734	no	n/a	n/a
1120.222656	n/a	286777	largeTSmallT	correct	congruent	0.48828	no	T	T
1120.710938	n/a	286902	responseSmallT	correct	n/a	0.48828	no	n/a	n/a
1121.78125	n/a	287176	largeHSmallH	correct	congruent	0.37109	no	H	H
1122.152344	n/a	287271	responseSmallH	correct	n/a	0.37109	no	n/a	n/a
1123.207031	n/a	287541	largeTSmallT	correct	congruent	0.42578	no	T	T
1123.632812	n/a	287650	responseSmallT	correct	n/a	0.42578	no	n/a	n/a
1124.703125	n/a	287924	largeHSmallH	correct	congruent	0.46875	no	H	H
1125.171875	n/a	288044	responseSmallH	correct	n/a	0.46875	no	n/a	n/a
1126.234375	n/a	288316	largeTSmallH	correct	incongruent	0.53125	no	T	H
1126.765625	n/a	288452	responseSmallH	correct	n/a	0.53125	no	n/a	n/a
1127.835938	n/a	288726	largeHSmallT	correct	incongruent	0.4375	no	H	T
1128.273438	n/a	288838	responseSmallT	correct	n/a	0.4375	no	n/a	n/a
1129.339844	n/a	289111	largeHSmallT	correct	incongruent	0.92578	no	H	T
1130.265625	n/a	289348	responseSmallT	correct	n/a	0.92578	no	n/a	n/a
1131.339844	n/a	289623	largeHSmallH	correct	congruent	0.38672	no	H	H
1131.726562	n/a	289722	responseSmallH	correct	n/a	0.38672	no	n/a	n/a
1132.792969	n/a	289995	largeHSmallT	correct	incongruent	0.48047	no	H	T
1133.273438	n/a	290118	responseSmallT	correct	n/a	0.48047	no	n/a	n/a
1134.339844	n/a	290391	largeHSmallH	correct	congruent	0.33984	no	H	H
1134.679688	n/a	290478	responseSmallH	correct	n/a	0.33984	no	n/a	n/a
1135.742188	n/a	290750	largeHSmallT	correct	incongruent	0.375	no	H	T
1136.117188	n/a	290846	responseSmallT	correct	n/a	0.375	no	n/a	n/a
1137.195312	n/a	291122	largeHSmallT	correct	incongruent	0.49219	no	H	T
1137.6875	n/a	291248	responseSmallT	correct	n/a	0.49219	no	n/a	n/a
1138.753906	n/a	291521	largeHSmallT	correct	incongruent	0.37891	no	H	T
1139.132812	n/a	291618	responseSmallT	correct	n/a	0.37891	no	n/a	n/a
1140.207031	n/a	291893	largeTSmallH	correct	incongruent	0.35547	no	T	H
1140.5625	n/a	291984	responseSmallH	correct	n/a	0.35547	no	n/a	n/a
1141.621094	n/a	292255	largeTSmallT	correct	congruent	0.44531	no	T	T
1142.066406	n/a	292369	responseSmallT	correct	n/a	0.44531	no	n/a	n/a
1143.128906	n/a	292641	largeTSmallT	correct	congruent	0.48438	no	T	T
1143.613281	n/a	292765	responseSmallT	correct	n/a	0.48438	no	n/a	n/a
1144.675781	n/a	293037	largeTSmallH	correct	incongruent	0.39062	no	T	H
1145.066406	n/a	293137	responseSmallH	correct	n/a	0.39062	no	n/a	n/a
1146.128906	n/a	293409	largeTSmallH	correct	incongruent	0.42188	no	T	H
1146.550781	n/a	293517	responseSmallH	correct	n/a	0.42188	no	n/a	n/a
1147.609375	n/a	293788	largeHSmallH	correct	congruent	0.46875	no	H	H
1148.078125	n/a	293908	responseSmallH	correct	n/a	0.46875	no	n/a	n/a
1149.140625	n/a	294180	largeTSmallT	correct	congruent	0.48438	no	T	T
1149.625	n/a	294304	responseSmallT	correct	n/a	0.48438	no	n/a	n/a
1150.699219	n/a	294579	largeHSmallT	correct	incongruent	0.42969	no	H	T
1151.128906	n/a	294689	responseSmallT	correct	n/a	0.42969	no	n/a	n/a
1152.195312	n/a	294962	largeHSmallH	correct	congruent	0.41797	no	H	H
1152.613281	n/a	295069	responseSmallH	correct	n/a	0.41797	no	n/a	n/a
1153.6875	n/a	295344	largeHSmallH	correct	congruent	0.38672	no	H	H
1154.074219	n/a	295443	responseSmallH	correct	n/a	0.38672	no	n/a	n/a
1155.152344	n/a	295719	largeTSmallT	correct	congruent	0.48828	no	T	T
1155.640625	n/a	295844	responseSmallT	correct	n/a	0.48828	no	n/a	n/a
1156.714844	n/a	296119	largeHSmallH	correct	congruent	0.4375	no	H	H
1157.152344	n/a	296231	responseSmallH	correct	n/a	0.4375	no	n/a	n/a
1158.222656	n/a	296505	largeTSmallH	correct	incongruent	0.375	no	T	H
1158.597656	n/a	296601	responseSmallH	correct	n/a	0.375	no	n/a	n/a
1159.675781	n/a	296877	largeTSmallH	correct	incongruent	0.41797	no	T	H
1160.09375	n/a	296984	responseSmallH	correct	n/a	0.41797	no	n/a	n/a
1161.167969	n/a	297259	largeTSmallT	error	congruent	0.33594	no	T	T
1161.503906	n/a	297345	responseSmallH	error	n/a	0.33594	no	n/a	n/a
1162.566406	n/a	297617	largeTSmallH	correct	incongruent	0.55469	no	T	H
1163.121094	n/a	297759	responseSmallH	correct	n/a	0.55469	no	n/a	n/a
1164.179688	n/a	298030	largeHSmallT	correct	incongruent	0.42578	no	H	T
1164.605469	n/a	298139	responseSmallT	correct	n/a	0.42578	no	n/a	n/a
1165.675781	n/a	298413	largeTSmallT	correct	congruent	0.65234	no	T	T
1166.328125	n/a	298580	responseSmallT	correct	n/a	0.65234	no	n/a	n/a
1167.394531	n/a	298853	largeTSmallH	correct	incongruent	0.44922	no	T	H
1167.84375	n/a	298968	responseSmallH	correct	n/a	0.44922	no	n/a	n/a
1168.902344	n/a	299239	largeTSmallH	correct	incongruent	0.41016	no	T	H
1169.3125	n/a	299344	responseSmallH	correct	n/a	0.41016	no	n/a	n/a
1170.367188	n/a	299614	largeHSmallT	correct	incongruent	0.54688	no	H	T
1170.914062	n/a	299754	responseSmallT	correct	n/a	0.54688	no	n/a	n/a
1171.980469	n/a	300027	largeTSmallT	correct	congruent	0.51953	no	T	T
1172.5	n/a	300160	responseSmallT	correct	n/a	0.51953	no	n/a	n/a
1173.566406	n/a	300433	largeHSmallH	correct	congruent	0.4375	no	H	H
1174.003906	n/a	300545	responseSmallH	correct	n/a	0.4375	no	n/a	n/a
1175.074219	n/a	300819	largeTSmallH	correct	incongruent	0.50781	no	T	H
1175.582031	n/a	300949	responseSmallH	correct	n/a	0.50781	no	n/a	n/a
1176.648438	n/a	301222	largeTSmallT	correct	congruent	0.4375	no	T	T
1177.085938	n/a	301334	responseSmallT	correct	n/a	0.4375	no	n/a	n/a
1178.152344	n/a	301607	largeHSmallH	correct	congruent	0.44141	no	H	H
1178.59375	n/a	301720	responseSmallH	correct	n/a	0.44141	no	n/a	n/a
1179.671875	n/a	301996	largeHSmallH	correct	congruent	0.38281	no	H	H
1180.054688	n/a	302094	responseSmallH	correct	n/a	0.38281	no	n/a	n/a
1181.125	n/a	302368	largeTSmallH	correct	incongruent	0.39062	no	T	H
1181.515625	n/a	302468	responseSmallH	correct	n/a	0.39062	no	n/a	n/a
1182.59375	n/a	302744	largeTSmallH	correct	incongruent	0.41406	no	T	H
1183.007812	n/a	302850	responseSmallH	correct	n/a	0.41406	no	n/a	n/a
1184.074219	n/a	303123	largeHSmallH	correct	congruent	0.44141	no	H	H
1184.515625	n/a	303236	responseSmallH	correct	n/a	0.44141	no	n/a	n/a
1185.582031	n/a	303509	largeTSmallT	correct	congruent	0.39844	no	T	T
1185.980469	n/a	303611	responseSmallT	correct	n/a	0.39844	no	n/a	n/a
1187.046875	n/a	303884	largeTSmallH	correct	incongruent	0.49609	no	T	H
1187.542969	n/a	304011	responseSmallH	correct	n/a	0.49609	no	n/a	n/a
1188.605469	n/a	304283	largeTSmallH	correct	incongruent	0.38672	no	T	H
1188.992188	n/a	304382	responseSmallH	correct	n/a	0.38672	no	n/a	n/a
1190.058594	n/a	304655	largeTSmallH	correct	incongruent	0.41406	no	T	H
1190.472656	n/a	304761	responseSmallH	correct	n/a	0.41406	no	n/a	n/a
1191.539062	n/a	305034	largeHSmallH	correct	congruent	0.45703	no	H	H
1191.996094	n/a	305151	responseSmallH	correct	n/a	0.45703	no	n/a	n/a
1193.074219	n/a	305427	largeTSmallT	correct	congruent	0.43359	no	T	T
1193.507812	n/a	305538	responseSmallT	correct	n/a	0.43359	no	n/a	n/a
1194.566406	n/a	305809	largeTSmallH	correct	incongruent	0.50781	no	T	H
1195.074219	n/a	305939	responseSmallH	correct	n/a	0.50781	no	n/a	n/a
1196.140625	n/a	306212	largeHSmallH	error	congruent	0.38281	no	H	H
1196.523438	n/a	306310	responseSmallT	error	n/a	0.38281	no	n/a	n/a
1197.59375	n/a	306584	largeTSmallT	correct	congruent	0.62891	no	T	T
