onset	duration	sample	value	response_type	congruence	response_time	response_out_of_range	largeletter	smallletter
138.5273438	n/a	35463	largeHSmallT	correct	incongruent	1.8477	yes	H	T
140.375	n/a	35936	responseLargeH	correct	n/a	1.8477	yes	n/a	n/a
141.4609375	n/a	36214	largeHSmallH	correct	congruent	0.94531	no	H	H
142.40625	n/a	36456	responseLargeH	correct	n/a	0.94531	no	n/a	n/a
143.484375	n/a	36732	largeHSmallT	correct	incongruent	1.2539	no	H	T
144.7382812	n/a	37053	responseLargeH	correct	n/a	1.2539	no	n/a	n/a
145.8046875	n/a	37326	largeTSmallH	correct	incongruent	1.0195	no	T	H
146.8242188	n/a	37587	responseLargeT	correct	n/a	1.0195	no	n/a	n/a
147.8984375	n/a	37862	largeTSmallT	correct	congruent	0.59766	no	T	T
148.4960938	n/a	38015	responseLargeT	correct	n/a	0.59766	no	n/a	n/a
149.5664062	n/a	38289	largeHSmallT	correct	incongruent	0.63672	no	H	T
150.203125	n/a	38452	responseLargeH	correct	n/a	0.63672	no	n/a	n/a
151.2851562	n/a	38729	largeHSmallT	correct	incongruent	0.74219	no	H	T
152.0273438	n/a	38919	responseLargeH	correct	n/a	0.74219	no	n/a	n/a
153.0976562	n/a	39193	largeTSmallT	correct	congruent	0.83203	no	T	T
153.9296875	n/a	39406	responseLargeT	correct	n/a	0.83203	no	n/a	n/a
154.9921875	n/a	39678	largeHSmallT	correct	incongruent	0.83203	no	H	T
155.8242188	n/a	39891	responseLargeH	correct	n/a	0.83203	no	n/a	n/a
156.8984375	n/a	40166	largeTSmallH	correct	incongruent	0.72656	no	T	H
157.625	n/a	40352	responseLargeT	correct	n/a	0.72656	no	n/a	n/a
158.6992188	n/a	40627	largeHSmallH	correct	congruent	0.90234	no	H	H
159.6015625	n/a	40858	responseLargeH	correct	n/a	0.90234	no	n/a	n/a
160.671875	n/a	41132	largeHSmallT	correct	incongruent	0.59375	no	H	T
161.265625	n/a	41284	responseLargeH	correct	n/a	0.59375	no	n/a	n/a
162.3398438	n/a	41559	largeTSmallT	correct	congruent	0.6875	no	T	T
163.0273438	n/a	41735	responseLargeT	correct	n/a	0.6875	no	n/a	n/a
164.1132812	n/a	42013	largeHSmallT	correct	incongruent	0.42578	no	H	T
164.5390625	n/a	42122	responseLargeH	correct	n/a	0.42578	no	n/a	n/a
165.6054688	n/a	42395	largeHSmallH	correct	congruent	0.62109	no	H	H
166.2265625	n/a	42554	responseLargeH	correct	n/a	0.62109	no	n/a	n/a
167.296875	n/a	42828	largeTSmallH	correct	incongruent	0.67578	no	T	H
167.9726562	n/a	43001	responseLargeT	correct	n/a	0.67578	no	n/a	n/a
169.046875	n/a	43276	largeHSmallH	correct	congruent	0.65625	no	H	H
169.703125	n/a	43444	responseLargeH	correct	n/a	0.65625	no	n/a	n/a
170.7773438	n/a	43719	largeHSmallT	correct	incongruent	0.70703	no	H	T
171.484375	n/a	43900	responseLargeH	correct	n/a	0.70703	no	n/a	n/a
172.5664062	n/a	44177	largeTSmallT	correct	congruent	0.90625	no	T	T
173.4726562	n/a	44409	responseLargeT	correct	n/a	0.90625	no	n/a	n/a
174.5390625	n/a	44682	largeTSmallT	correct	congruent	0.55078	no	T	T
175.0898438	n/a	44823	responseLargeT	correct	n/a	0.55078	no	n/a	n/a
176.1640625	n/a	45098	largeTSmallH	correct	incongruent	0.78125	no	T	H
176.9453125	n/a	45298	responseLargeT	correct	n/a	0.78125	no	n/a	n/a
178.0195312	n/a	45573	largeHSmallT	correct	incongruent	0.58203	no	H	T
178.6015625	n/a	45722	responseLargeH	correct	n/a	0.58203	no	n/a	n/a
179.671875	n/a	45996	largeHSmallH	correct	congruent	0.62891	no	H	H
180.3007812	n/a	46157	responseLargeH	correct	n/a	0.62891	no	n/a	n/a
181.3789062	n/a	46433	largeHSmallH	correct	congruent	0.50781	no	H	H
181.8867188	n/a	46563	responseLargeH	correct	n/a	0.50781	no	n/a	n/a
182.9648438	n/a	46839	largeTSmallT	correct	congruent	0.54688	no	T	T
183.5117188	n/a	46979	responseLargeT	correct	n/a	0.54688	no	n/a	n/a
184.5898438	n/a	47255	largeTSmallH	correct	incongruent	0.75	no	T	H
185.3398438	n/a	47447	responseLargeT	correct	n/a	0.75	no	n/a	n/a
186.4179688	n/a	47723	largeTSmallH	correct	incongruent	0.61328	no	T	H
187.03125	n/a	47880	responseLargeT	correct	n/a	0.61328	no	n/a	n/a
188.0976562	n/a	48153	largeHSmallH	correct	congruent	0.50391	no	H	H
188.6015625	n/a	48282	responseLargeH	correct	n/a	0.50391	no	n/a	n/a
189.671875	n/a	48556	largeHSmallH	correct	congruent	0.54688	no	H	H
190.21875	n/a	48696	responseLargeH	correct	n/a	0.54688	no	n/a	n/a
191.296875	n/a	48972	largeTSmallH	correct	incongruent	0.50781	no	T	H
191.8046875	n/a	49102	responseLargeT	correct	n/a	0.50781	no	n/a	n/a
192.8710938	n/a	49375	largeHSmallT	correct	incongruent	0.87109	no	H	T
193.7421875	n/a	49598	responseLargeH	correct	n/a	0.87109	no	n/a	n/a
194.8164062	n/a	49873	largeHSmallH	correct	congruent	0.53125	no	H	H
195.3476562	n/a	50009	responseLargeH	correct	n/a	0.53125	no	n/a	n/a
196.4179688	n/a	50283	largeHSmallT	correct	incongruent	1.0352	no	H	T
197.453125	n/a	50548	responseLargeH	correct	n/a	1.0352	no	n/a	n/a
198.5234375	n/a	50822	largeHSmallH	correct	congruent	0.58984	no	H	H
199.1132812	n/a	50973	responseLargeH	correct	n/a	0.58984	no	n/a	n/a
200.1914062	n/a	51249	largeTSmallT	correct	congruent	0.69922	no	T	T
200.890625	n/a	51428	responseLargeT	correct	n/a	0.69922	no	n/a	n/a
201.9648438	n/a	51703	largeTSmallH	correct	incongruent	0.60547	no	T	H
202.5703125	n/a	51858	responseLargeT	correct	n/a	0.60547	no	n/a	n/a
203.6328125	n/a	52130	largeHSmallH	correct	congruent	0.57422	no	H	H
204.2070312	n/a	52277	responseLargeH	correct	n/a	0.57422	no	n/a	n/a
205.2695312	n/a	52549	largeTSmallT	correct	congruent	0.77734	no	T	T
206.046875	n/a	52748	responseLargeT	correct	n/a	0.77734	no	n/a	n/a
207.109375	n/a	53020	largeTSmallT	correct	congruent	0.5625	no	T	T
207.671875	n/a	53164	responseLargeT	correct	n/a	0.5625	no	n/a	n/a
208.7382812	n/a	53437	largeHSmallT	correct	incongruent	0.67969	no	H	T
209.4179688	n/a	53611	responseLargeH	correct	n/a	0.67969	no	n/a	n/a
210.484375	n/a	53884	largeTSmallT	correct	congruent	1.0859	no	T	T
211.5703125	n/a	54162	responseLargeT	correct	n/a	1.0859	no	n/a	n/a
212.6328125	n/a	54434	largeHSmallT	correct	incongruent	0.64453	no	H	T
213.2773438	n/a	54599	responseLargeH	correct	n/a	0.64453	no	n/a	n/a
214.3515625	n/a	54874	largeTSmallT	correct	congruent	0.59375	no	T	T
214.9453125	n/a	55026	responseLargeT	correct	n/a	0.59375	no	n/a	n/a
216.0195312	n/a	55301	largeHSmallH	correct	congruent	0.60156	no	H	H
216.6210938	n/a	55455	responseLargeH	correct	n/a	0.60156	no	n/a	n/a
217.6992188	n/a	55731	largeTSmallH	error	incongruent	0.92969	no	T	H
218.6289062	n/a	55969	responseLargeH	error	n/a	0.92969	no	n/a	n/a
219.6992188	n/a	56243	largeHSmallT	correct	incongruent	0.75781	no	H	T
220.4570312	n/a	56437	responseLargeH	correct	n/a	0.75781	no	n/a	n/a
221.5234375	n/a	56710	largeTSmallH	correct	incongruent	0.51953	no	T	H
222.0429688	n/a	56843	responseLargeT	correct	n/a	0.51953	no	n/a	n/a
223.125	n/a	57120	largeHSmallH	correct	congruent	0.57031	no	H	H
223.6953125	n/a	57266	responseLargeH	correct	n/a	0.57031	no	n/a	n/a
224.7773438	n/a	57543	largeTSmallH	correct	incongruent	0.77734	no	T	H
225.5546875	n/a	57742	responseLargeT	correct	n/a	0.77734	no	n/a	n/a
226.6289062	n/a	58017	largeTSmallT	correct	congruent	0.57422	no	T	T
227.203125	n/a	58164	responseLargeT	correct	n/a	0.57422	no	n/a	n/a
228.2695312	n/a	58437	largeHSmallT	correct	incongruent	0.46875	no	H	T
228.7382812	n/a	58557	responseLargeH	correct	n/a	0.46875	no	n/a	n/a
229.8164062	n/a	58833	largeTSmallT	correct	congruent	0.6875	no	T	T
230.5039062	n/a	59009	responseLargeT	correct	n/a	0.6875	no	n/a	n/a
231.578125	n/a	59284	largeTSmallT	correct	congruent	0.9375	no	T	T
232.515625	n/a	59524	responseLargeT	correct	n/a	0.9375	no	n/a	n/a
233.5898438	n/a	59799	largeTSmallT	correct	congruent	0.59375	no	T	T
234.1835938	n/a	59951	responseLargeT	correct	n/a	0.59375	no	n/a	n/a
235.2578125	n/a	60226	largeTSmallT	correct	congruent	0.55859	no	T	T
235.8164062	n/a	60369	responseLargeT	correct	n/a	0.55859	no	n/a	n/a
236.8984375	n/a	60646	largeHSmallT	correct	incongruent	0.57422	no	H	T
237.4726562	n/a	60793	responseLargeH	correct	n/a	0.57422	no	n/a	n/a
238.5507812	n/a	61069	largeTSmallT	correct	congruent	0.54688	no	T	T
239.0976562	n/a	61209	responseLargeT	correct	n/a	0.54688	no	n/a	n/a
240.1757812	n/a	61485	largeTSmallT	correct	congruent	0.67188	no	T	T
240.8476562	n/a	61657	responseLargeT	correct	n/a	0.67188	no	n/a	n/a
241.921875	n/a	61932	largeHSmallH	correct	congruent	0.51953	no	H	H
242.4414062	n/a	62065	responseLargeH	correct	n/a	0.51953	no	n/a	n/a
243.5117188	n/a	62339	largeHSmallT	error	incongruent	0.55469	no	H	T
244.0664062	n/a	62481	responseLargeT	error	n/a	0.55469	no	n/a	n/a
245.1367188	n/a	62755	largeHSmallH	correct	congruent	0.80469	no	H	H
245.9414062	n/a	62961	responseLargeH	correct	n/a	0.80469	no	n/a	n/a
247.0039062	n/a	63233	largeHSmallH	correct	congruent	0.65625	no	H	H
247.6601562	n/a	63401	responseLargeH	correct	n/a	0.65625	no	n/a	n/a
248.7382812	n/a	63677	largeTSmallH	correct	incongruent	0.54688	no	T	H
249.2851562	n/a	63817	responseLargeT	correct	n/a	0.54688	no	n/a	n/a
250.3632812	n/a	64093	largeHSmallT	correct	incongruent	0.45703	no	H	T
250.8203125	n/a	64210	responseLargeH	correct	n/a	0.45703	no	n/a	n/a
251.8828125	n/a	64482	largeTSmallH	correct	incongruent	0.6875	no	T	H
252.5703125	n/a	64658	responseLargeT	correct	n/a	0.6875	no	n/a	n/a
253.65625	n/a	64936	largeHSmallT	correct	incongruent	0.60547	no	H	T
254.2617188	n/a	65091	responseLargeH	correct	n/a	0.60547	no	n/a	n/a
255.3359375	n/a	65366	largeTSmallH	correct	incongruent	0.68359	no	T	H
256.0195312	n/a	65541	responseLargeT	correct	n/a	0.68359	no	n/a	n/a
257.0976562	n/a	65817	largeTSmallT	correct	congruent	0.61328	no	T	T
257.7109375	n/a	65974	responseLargeT	correct	n/a	0.61328	no	n/a	n/a
258.7773438	n/a	66247	largeHSmallH	correct	congruent	0.71484	no	H	H
259.4921875	n/a	66430	responseLargeH	correct	n/a	0.71484	no	n/a	n/a
260.5625	n/a	66704	largeHSmallH	correct	congruent	0.66406	no	H	H
261.2265625	n/a	66874	responseLargeH	correct	n/a	0.66406	no	n/a	n/a
262.296875	n/a	67148	largeTSmallT	correct	congruent	0.78516	no	T	T
263.0820312	n/a	67349	responseLargeT	correct	n/a	0.78516	no	n/a	n/a
264.1484375	n/a	67622	largeTSmallT	correct	congruent	0.69531	no	T	T
264.84375	n/a	67800	responseLargeT	correct	n/a	0.69531	no	n/a	n/a
265.9101562	n/a	68073	largeTSmallH	correct	incongruent	0.52344	no	T	H
266.4335938	n/a	68207	responseLargeT	correct	n/a	0.52344	no	n/a	n/a
267.4960938	n/a	68479	largeTSmallT	correct	congruent	0.52344	no	T	T
268.0195312	n/a	68613	responseLargeT	correct	n/a	0.52344	no	n/a	n/a
269.0976562	n/a	68889	largeTSmallT	correct	congruent	0.63281	no	T	T
269.7304688	n/a	69051	responseLargeT	correct	n/a	0.63281	no	n/a	n/a
270.8046875	n/a	69326	largeTSmallT	correct	congruent	0.53906	no	T	T
271.34375	n/a	69464	responseLargeT	correct	n/a	0.53906	no	n/a	n/a
272.4179688	n/a	69739	largeTSmallT	correct	congruent	0.63281	no	T	T
273.0507812	n/a	69901	responseLargeT	correct	n/a	0.63281	no	n/a	n/a
274.1210938	n/a	70175	largeTSmallT	correct	congruent	0.49219	no	T	T
274.6132812	n/a	70301	responseLargeT	correct	n/a	0.49219	no	n/a	n/a
275.6953125	n/a	70578	largeTSmallT	correct	congruent	0.46875	no	T	T
276.1640625	n/a	70698	responseLargeT	correct	n/a	0.46875	no	n/a	n/a
277.2421875	n/a	70974	largeHSmallH	correct	congruent	0.67969	no	H	H
277.921875	n/a	71148	responseLargeH	correct	n/a	0.67969	no	n/a	n/a
279.0039062	n/a	71425	largeTSmallH	correct	incongruent	0.64844	no	T	H
279.6523438	n/a	71591	responseLargeT	correct	n/a	0.64844	no	n/a	n/a
280.734375	n/a	71868	largeTSmallH	error	incongruent	0.83203	no	T	H
281.5664062	n/a	72081	responseLargeH	error	n/a	0.83203	no	n/a	n/a
282.6289062	n/a	72353	largeTSmallT	correct	congruent	0.57031	no	T	T
283.1992188	n/a	72499	responseLargeT	correct	n/a	0.57031	no	n/a	n/a
284.2695312	n/a	72773	largeTSmallH	correct	incongruent	0.5625	no	T	H
284.8320312	n/a	72917	responseLargeT	correct	n/a	0.5625	no	n/a	n/a
285.8945312	n/a	73189	largeHSmallT	correct	incongruent	0.59375	no	H	T
286.4882812	n/a	73341	responseLargeH	correct	n/a	0.59375	no	n/a	n/a
287.5625	n/a	73616	largeHSmallH	correct	congruent	0.57812	no	H	H
288.140625	n/a	73764	responseLargeH	correct	n/a	0.57812	no	n/a	n/a
289.2148438	n/a	74039	largeTSmallT	correct	congruent	0.625	no	T	T
289.8398438	n/a	74199	responseLargeT	correct	n/a	0.625	no	n/a	n/a
290.921875	n/a	74476	largeHSmallT	correct	incongruent	1.1484	no	H	T
292.0703125	n/a	74770	responseLargeH	correct	n/a	1.1484	no	n/a	n/a
293.1484375	n/a	75046	largeTSmallH	error	incongruent	0.51172	no	T	H
293.6601562	n/a	75177	responseLargeH	error	n/a	0.51172	no	n/a	n/a
294.7226562	n/a	75449	largeHSmallH	correct	congruent	0.76562	no	H	H
295.4882812	n/a	75645	responseLargeH	correct	n/a	0.76562	no	n/a	n/a
296.5625	n/a	75920	largeTSmallH	correct	incongruent	0.89453	no	T	H
297.4570312	n/a	76149	responseLargeT	correct	n/a	0.89453	no	n/a	n/a
298.5351562	n/a	76425	largeHSmallH	correct	congruent	0.78906	no	H	H
299.3242188	n/a	76627	responseLargeH	correct	n/a	0.78906	no	n/a	n/a
300.390625	n/a	76900	largeHSmallT	correct	incongruent	0.78125	no	H	T
301.171875	n/a	77100	responseLargeH	correct	n/a	0.78125	no	n/a	n/a
302.2421875	n/a	77374	largeHSmallH	correct	congruent	0.60547	no	H	H
302.8476562	n/a	77529	responseLargeH	correct	n/a	0.60547	no	n/a	n/a
303.9101562	n/a	77801	largeHSmallH	correct	congruent	0.66406	no	H	H
304.5742188	n/a	77971	responseLargeH	correct	n/a	0.66406	no	n/a	n/a
305.640625	n/a	78244	largeTSmallT	correct	congruent	0.64062	no	T	T
306.28125	n/a	78408	responseLargeT	correct	n/a	0.64062	no	n/a	n/a
307.3476562	n/a	78681	largeHSmallT	correct	incongruent	0.62891	no	H	T
307.9765625	n/a	78842	responseLargeH	correct	n/a	0.62891	no	n/a	n/a
309.0429688	n/a	79115	largeHSmallT	correct	incongruent	0.69531	no	H	T
309.7382812	n/a	79293	responseLargeH	correct	n/a	0.69531	no	n/a	n/a
310.8007812	n/a	79565	largeHSmallT	correct	incongruent	0.75781	no	H	T
311.5585938	n/a	79759	responseLargeH	correct	n/a	0.75781	no	n/a	n/a
312.6289062	n/a	80033	largeHSmallT	correct	incongruent	0.63281	no	H	T
313.2617188	n/a	80195	responseLargeH	correct	n/a	0.63281	no	n/a	n/a
314.3359375	n/a	80470	largeHSmallT	correct	incongruent	0.58984	no	H	T
314.9257812	n/a	80621	responseLargeH	correct	n/a	0.58984	no	n/a	n/a
316	n/a	80896	largeTSmallT	correct	congruent	0.53906	no	T	T
316.5390625	n/a	81034	responseLargeT	correct	n/a	0.53906	no	n/a	n/a
317.6132812	n/a	81309	largeTSmallT	correct	congruent	0.58203	no	T	T
318.1953125	n/a	81458	responseLargeT	correct	n/a	0.58203	no	n/a	n/a
319.2695312	n/a	81733	largeHSmallT	correct	incongruent	0.84375	no	H	T
320.1132812	n/a	81949	responseLargeH	correct	n/a	0.84375	no	n/a	n/a
321.1875	n/a	82224	largeHSmallT	correct	incongruent	0.73828	no	H	T
321.9257812	n/a	82413	responseLargeH	correct	n/a	0.73828	no	n/a	n/a
322.9882812	n/a	82685	largeTSmallH	correct	incongruent	0.75391	no	T	H
323.7421875	n/a	82878	responseLargeT	correct	n/a	0.75391	no	n/a	n/a
324.8164062	n/a	83153	largeTSmallT	correct	congruent	0.80859	no	T	T
325.625	n/a	83360	responseLargeT	correct	n/a	0.80859	no	n/a	n/a
326.6953125	n/a	83634	largeHSmallH	correct	congruent	0.74609	no	H	H
327.4414062	n/a	83825	responseLargeH	correct	n/a	0.74609	no	n/a	n/a
328.5195312	n/a	84101	largeHSmallH	correct	congruent	0.51172	no	H	H
329.03125	n/a	84232	responseLargeH	correct	n/a	0.51172	no	n/a	n/a
330.109375	n/a	84508	largeTSmallH	correct	incongruent	0.63281	no	T	H
330.7421875	n/a	84670	responseLargeT	correct	n/a	0.63281	no	n/a	n/a
331.828125	n/a	84948	largeHSmallT	correct	incongruent	0.53125	no	H	T
332.359375	n/a	85084	responseLargeH	correct	n/a	0.53125	no	n/a	n/a
333.4296875	n/a	85358	largeTSmallH	correct	incongruent	0.82812	no	T	H
334.2578125	n/a	85570	responseLargeT	correct	n/a	0.82812	no	n/a	n/a
335.3359375	n/a	85846	largeHSmallT	correct	incongruent	0.46875	no	H	T
335.8046875	n/a	85966	responseLargeH	correct	n/a	0.46875	no	n/a	n/a
336.8828125	n/a	86242	largeTSmallT	correct	congruent	0.56641	no	T	T
337.4492188	n/a	86387	responseLargeT	correct	n/a	0.56641	no	n/a	n/a
338.5078125	n/a	86658	largeTSmallH	correct	incongruent	0.64062	no	T	H
339.1484375	n/a	86822	responseLargeT	correct	n/a	0.64062	no	n/a	n/a
340.2148438	n/a	87095	largeHSmallH	correct	congruent	0.5	no	H	H
340.7148438	n/a	87223	responseLargeH	correct	n/a	0.5	no	n/a	n/a
341.7890625	n/a	87498	largeHSmallT	correct	incongruent	0.58984	no	H	T
342.3789062	n/a	87649	responseLargeH	correct	n/a	0.58984	no	n/a	n/a
343.453125	n/a	87924	largeHSmallT	error	incongruent	0.71484	no	H	T
344.1679688	n/a	88107	responseLargeT	error	n/a	0.71484	no	n/a	n/a
345.2421875	n/a	88382	largeTSmallH	correct	incongruent	0.60547	no	T	H
345.8476562	n/a	88537	responseLargeT	correct	n/a	0.60547	no	n/a	n/a
346.921875	n/a	88812	largeTSmallT	correct	congruent	0.65625	no	T	T
347.578125	n/a	88980	responseLargeT	correct	n/a	0.65625	no	n/a	n/a
348.6523438	n/a	89255	largeHSmallT	correct	incongruent	0.66406	no	H	T
349.3164062	n/a	89425	responseLargeH	correct	n/a	0.66406	no	n/a	n/a
350.3867188	n/a	89699	largeHSmallT	correct	incongruent	0.71484	no	H	T
351.1015625	n/a	89882	responseLargeH	correct	n/a	0.71484	no	n/a	n/a
352.1757812	n/a	90157	largeTSmallH	correct	incongruent	0.62109	no	T	H
352.796875	n/a	90316	responseLargeT	correct	n/a	0.62109	no	n/a	n/a
353.8671875	n/a	90590	largeTSmallH	correct	incongruent	0.65234	no	T	H
354.5195312	n/a	90757	responseLargeT	correct	n/a	0.65234	no	n/a	n/a
355.6015625	n/a	91034	largeHSmallH	correct	congruent	0.53125	no	H	H
356.1328125	n/a	91170	responseLargeH	correct	n/a	0.53125	no	n/a	n/a
357.1992188	n/a	91443	largeTSmallH	correct	incongruent	0.72656	no	T	H
357.9257812	n/a	91629	responseLargeT	correct	n/a	0.72656	no	n/a	n/a
359	n/a	91904	largeTSmallH	correct	incongruent	0.57812	no	T	H
359.578125	n/a	92052	responseLargeT	correct	n/a	0.57812	no	n/a	n/a
360.6523438	n/a	92327	largeHSmallH	correct	congruent	0.57422	no	H	H
361.2265625	n/a	92474	responseLargeH	correct	n/a	0.57422	no	n/a	n/a
362.3085938	n/a	92751	largeTSmallH	correct	incongruent	0.71094	no	T	H
363.0195312	n/a	92933	responseLargeT	correct	n/a	0.71094	no	n/a	n/a
364.0820312	n/a	93205	largeHSmallH	correct	congruent	0.57422	no	H	H
364.65625	n/a	93352	responseLargeH	correct	n/a	0.57422	no	n/a	n/a
365.734375	n/a	93628	largeHSmallT	correct	incongruent	0.53906	no	H	T
366.2734375	n/a	93766	responseLargeH	correct	n/a	0.53906	no	n/a	n/a
367.3476562	n/a	94041	largeTSmallH	correct	incongruent	0.59375	no	T	H
367.9414062	n/a	94193	responseLargeT	correct	n/a	0.59375	no	n/a	n/a
369.015625	n/a	94468	largeHSmallT	correct	incongruent	0.69531	no	H	T
369.7109375	n/a	94646	responseLargeH	correct	n/a	0.69531	no	n/a	n/a
370.7734375	n/a	94918	largeHSmallH	correct	congruent	0.51562	no	H	H
371.2890625	n/a	95050	responseLargeH	correct	n/a	0.51562	no	n/a	n/a
372.359375	n/a	95324	largeHSmallT	correct	incongruent	0.61328	no	H	T
372.9726562	n/a	95481	responseLargeH	correct	n/a	0.61328	no	n/a	n/a
374.0546875	n/a	95758	largeTSmallH	correct	incongruent	0.75391	no	T	H
374.8085938	n/a	95951	responseLargeT	correct	n/a	0.75391	no	n/a	n/a
375.8789062	n/a	96225	largeTSmallH	correct	incongruent	0.56641	no	T	H
376.4453125	n/a	96370	responseLargeT	correct	n/a	0.56641	no	n/a	n/a
377.5078125	n/a	96642	largeHSmallH	correct	congruent	0.53516	no	H	H
378.0429688	n/a	96779	responseLargeH	correct	n/a	0.53516	no	n/a	n/a
379.1210938	n/a	97055	largeTSmallT	correct	congruent	0.44531	no	T	T
379.5664062	n/a	97169	responseLargeT	correct	n/a	0.44531	no	n/a	n/a
380.6289062	n/a	97441	largeHSmallH	correct	congruent	0.76953	no	H	H
381.3984375	n/a	97638	responseLargeH	correct	n/a	0.76953	no	n/a	n/a
382.4804688	n/a	97915	largeHSmallH	correct	congruent	0.53125	no	H	H
383.0117188	n/a	98051	responseLargeH	correct	n/a	0.53125	no	n/a	n/a
384.078125	n/a	98324	largeTSmallH	correct	incongruent	0.59766	no	T	H
384.6757812	n/a	98477	responseLargeT	correct	n/a	0.59766	no	n/a	n/a
385.7460938	n/a	98751	largeTSmallH	correct	incongruent	0.43359	no	T	H
386.1796875	n/a	98862	responseLargeT	correct	n/a	0.43359	no	n/a	n/a
387.2382812	n/a	99133	largeHSmallH	correct	congruent	0.51562	no	H	H
387.7539062	n/a	99265	responseLargeH	correct	n/a	0.51562	no	n/a	n/a
388.828125	n/a	99540	largeHSmallH	correct	congruent	0.45312	no	H	H
389.28125	n/a	99656	responseLargeH	correct	n/a	0.45312	no	n/a	n/a
390.3476562	n/a	99929	largeTSmallT	correct	congruent	0.63672	no	T	T
390.984375	n/a	100092	responseLargeT	correct	n/a	0.63672	no	n/a	n/a
392.0546875	n/a	100366	largeTSmallT	correct	congruent	0.69922	no	T	T
392.7539062	n/a	100545	responseLargeT	correct	n/a	0.69922	no	n/a	n/a
393.828125	n/a	100820	largeTSmallH	correct	incongruent	0.65625	no	T	H
394.484375	n/a	100988	responseLargeT	correct	n/a	0.65625	no	n/a	n/a
395.546875	n/a	101260	largeHSmallH	correct	congruent	0.57422	no	H	H
396.1210938	n/a	101407	responseLargeH	correct	n/a	0.57422	no	n/a	n/a
397.1992188	n/a	101683	largeHSmallH	correct	congruent	0.62891	no	H	H
397.828125	n/a	101844	responseLargeH	correct	n/a	0.62891	no	n/a	n/a
398.90625	n/a	102120	largeHSmallT	error	incongruent	0.59375	no	H	T
399.5	n/a	102272	responseLargeT	error	n/a	0.59375	no	n/a	n/a
400.5742188	n/a	102547	largeTSmallT	correct	congruent	0.77734	no	T	T
401.3515625	n/a	102746	responseLargeT	correct	n/a	0.77734	no	n/a	n/a
402.4257812	n/a	103021	largeTSmallT	correct	congruent	0.67578	no	T	T
403.1015625	n/a	103194	responseLargeT	correct	n/a	0.67578	no	n/a	n/a
404.171875	n/a	103468	largeTSmallH	correct	incongruent	0.66016	no	T	H
404.8320312	n/a	103637	responseLargeT	correct	n/a	0.66016	no	n/a	n/a
405.90625	n/a	103912	largeHSmallT	correct	incongruent	0.69531	no	H	T
406.6015625	n/a	104090	responseLargeH	correct	n/a	0.69531	no	n/a	n/a
407.6640625	n/a	104362	largeHSmallH	correct	congruent	0.50781	no	H	H
408.171875	n/a	104492	responseLargeH	correct	n/a	0.50781	no	n/a	n/a
409.2382812	n/a	104765	largeTSmallT	correct	congruent	0.80078	no	T	T
410.0390625	n/a	104970	responseLargeT	correct	n/a	0.80078	no	n/a	n/a
411.1210938	n/a	105247	largeHSmallH	correct	congruent	0.59375	no	H	H
411.7148438	n/a	105399	responseLargeH	correct	n/a	0.59375	no	n/a	n/a
412.7851562	n/a	105673	largeTSmallH	correct	incongruent	0.65234	no	T	H
413.4375	n/a	105840	responseLargeT	correct	n/a	0.65234	no	n/a	n/a
414.5039062	n/a	106113	largeHSmallT	correct	incongruent	0.78125	no	H	T
415.2851562	n/a	106313	responseLargeH	correct	n/a	0.78125	no	n/a	n/a
416.359375	n/a	106588	largeTSmallH	correct	incongruent	0.67969	no	T	H
417.0390625	n/a	106762	responseLargeT	correct	n/a	0.67969	no	n/a	n/a
418.1054688	n/a	107035	largeTSmallT	correct	congruent	0.71484	no	T	T
418.8203125	n/a	107218	responseLargeT	correct	n/a	0.71484	no	n/a	n/a
419.8789062	n/a	107489	largeTSmallH	correct	incongruent	0.82422	no	T	H
420.703125	n/a	107700	responseLargeT	correct	n/a	0.82422	no	n/a	n/a
421.7734375	n/a	107974	largeHSmallH	correct	congruent	0.48828	no	H	H
422.2617188	n/a	108099	responseLargeH	correct	n/a	0.48828	no	n/a	n/a
423.3320312	n/a	108373	largeHSmallH	correct	congruent	0.62891	no	H	H
423.9609375	n/a	108534	responseLargeH	correct	n/a	0.62891	no	n/a	n/a
425.0273438	n/a	108807	largeHSmallT	correct	incongruent	0.76953	no	H	T
425.796875	n/a	109004	responseLargeH	correct	n/a	0.76953	no	n/a	n/a
426.8671875	n/a	109278	largeTSmallH	correct	incongruent	0.70703	no	T	H
427.5742188	n/a	109459	responseLargeT	correct	n/a	0.70703	no	n/a	n/a
428.6523438	n/a	109735	largeTSmallT	correct	congruent	0.78906	no	T	T
429.4414062	n/a	109937	responseLargeT	correct	n/a	0.78906	no	n/a	n/a
430.5039062	n/a	110209	largeHSmallH	correct	congruent	0.54297	no	H	H
431.046875	n/a	110348	responseLargeH	correct	n/a	0.54297	no	n/a	n/a
432.1171875	n/a	110622	largeTSmallT	correct	congruent	0.64062	no	T	T
432.7578125	n/a	110786	responseLargeT	correct	n/a	0.64062	no	n/a	n/a
433.8242188	n/a	111059	largeHSmallH	correct	congruent	0.58203	no	H	H
434.40625	n/a	111208	responseLargeH	correct	n/a	0.58203	no	n/a	n/a
435.4765625	n/a	111482	largeTSmallT	correct	congruent	1.3438	no	T	T
436.8203125	n/a	111826	responseLargeT	correct	n/a	1.3438	no	n/a	n/a
437.890625	n/a	112100	largeHSmallT	correct	incongruent	0.68359	no	H	T
438.5742188	n/a	112275	responseLargeH	correct	n/a	0.68359	no	n/a	n/a
439.6523438	n/a	112551	largeTSmallH	correct	incongruent	0.5625	no	T	H
440.2148438	n/a	112695	responseLargeT	correct	n/a	0.5625	no	n/a	n/a
441.2929688	n/a	112971	largeHSmallH	correct	congruent	0.67188	no	H	H
441.9648438	n/a	113143	responseLargeH	correct	n/a	0.67188	no	n/a	n/a
443.0390625	n/a	113418	largeTSmallT	correct	congruent	0.60547	no	T	T
443.6445312	n/a	113573	responseLargeT	correct	n/a	0.60547	no	n/a	n/a
444.71875	n/a	113848	largeTSmallT	correct	congruent	0.50391	no	T	T
445.2226562	n/a	113977	responseLargeT	correct	n/a	0.50391	no	n/a	n/a
446.2929688	n/a	114251	largeHSmallT	correct	incongruent	0.64844	no	H	T
446.9414062	n/a	114417	responseLargeH	correct	n/a	0.64844	no	n/a	n/a
448.0117188	n/a	114691	largeHSmallH	correct	congruent	0.55078	no	H	H
448.5625	n/a	114832	responseLargeH	correct	n/a	0.55078	no	n/a	n/a
449.6367188	n/a	115107	largeHSmallH	correct	congruent	0.57031	no	H	H
450.2070312	n/a	115253	responseLargeH	correct	n/a	0.57031	no	n/a	n/a
451.265625	n/a	115524	largeHSmallT	correct	incongruent	0.5	no	H	T
451.765625	n/a	115652	responseLargeH	correct	n/a	0.5	no	n/a	n/a
452.8242188	n/a	115923	largeTSmallH	correct	incongruent	0.67578	no	T	H
453.5	n/a	116096	responseLargeT	correct	n/a	0.67578	no	n/a	n/a
454.5859375	n/a	116374	largeTSmallH	correct	incongruent	0.49219	no	T	H
455.078125	n/a	116500	responseLargeT	correct	n/a	0.49219	no	n/a	n/a
456.15625	n/a	116776	largeHSmallT	correct	incongruent	0.96484	no	H	T
457.1210938	n/a	117023	responseLargeH	correct	n/a	0.96484	no	n/a	n/a
458.1992188	n/a	117299	largeHSmallT	correct	incongruent	0.94922	no	H	T
459.1484375	n/a	117542	responseLargeH	correct	n/a	0.94922	no	n/a	n/a
460.2265625	n/a	117818	largeTSmallT	correct	congruent	0.84375	no	T	T
461.0703125	n/a	118034	responseLargeT	correct	n/a	0.84375	no	n/a	n/a
462.1445312	n/a	118309	largeHSmallH	correct	congruent	0.99219	no	H	H
463.1367188	n/a	118563	responseLargeH	correct	n/a	0.99219	no	n/a	n/a
464.1992188	n/a	118835	largeTSmallH	correct	incongruent	0.85547	no	T	H
465.0546875	n/a	119054	responseLargeT	correct	n/a	0.85547	no	n/a	n/a
466.1171875	n/a	119326	largeTSmallT	correct	congruent	0.76562	no	T	T
466.8828125	n/a	119522	responseLargeT	correct	n/a	0.76562	no	n/a	n/a
467.9453125	n/a	119794	largeHSmallT	correct	incongruent	0.64844	no	H	T
468.59375	n/a	119960	responseLargeH	correct	n/a	0.64844	no	n/a	n/a
469.6640625	n/a	120234	largeTSmallH	correct	incongruent	0.69922	no	T	H
470.3632812	n/a	120413	responseLargeT	correct	n/a	0.69922	no	n/a	n/a
471.4257812	n/a	120685	largeTSmallH	correct	incongruent	0.92578	no	T	H
472.3515625	n/a	120922	responseLargeT	correct	n/a	0.92578	no	n/a	n/a
473.4257812	n/a	121197	largeHSmallH	correct	congruent	0.80078	no	H	H
474.2265625	n/a	121402	responseLargeH	correct	n/a	0.80078	no	n/a	n/a
475.2890625	n/a	121674	largeHSmallT	correct	incongruent	0.59375	no	H	T
475.8828125	n/a	121826	responseLargeH	correct	n/a	0.59375	no	n/a	n/a
476.9453125	n/a	122098	largeTSmallH	correct	incongruent	0.60938	no	T	H
477.5546875	n/a	122254	responseLargeT	correct	n/a	0.60938	no	n/a	n/a
478.609375	n/a	122524	largeTSmallH	correct	incongruent	0.64453	no	T	H
479.2539062	n/a	122689	responseLargeT	correct	n/a	0.64453	no	n/a	n/a
480.3164062	n/a	122961	largeTSmallH	correct	incongruent	0.55469	no	T	H
480.8710938	n/a	123103	responseLargeT	correct	n/a	0.55469	no	n/a	n/a
481.9453125	n/a	123378	largeHSmallT	correct	incongruent	0.54297	no	H	T
482.4882812	n/a	123517	responseLargeH	correct	n/a	0.54297	no	n/a	n/a
483.5703125	n/a	123794	largeHSmallH	correct	congruent	0.55469	no	H	H
484.125	n/a	123936	responseLargeH	correct	n/a	0.55469	no	n/a	n/a
485.1992188	n/a	124211	largeTSmallT	error	congruent	0.52344	no	T	T
485.7226562	n/a	124345	responseLargeH	error	n/a	0.52344	no	n/a	n/a
495.1679688	n/a	126763	largeTSmallT	correct	congruent	0.93359	no	T	T
496.1015625	n/a	127002	responseSmallT	correct	n/a	0.93359	no	n/a	n/a
497.171875	n/a	127276	largeHSmallH	correct	congruent	0.72656	no	H	H
497.8984375	n/a	127462	responseSmallH	correct	n/a	0.72656	no	n/a	n/a
498.96875	n/a	127736	largeTSmallH	correct	incongruent	0.65625	no	T	H
499.625	n/a	127904	responseSmallH	correct	n/a	0.65625	no	n/a	n/a
500.6914062	n/a	128177	largeTSmallH	correct	incongruent	0.73438	no	T	H
501.4257812	n/a	128365	responseSmallH	correct	n/a	0.73438	no	n/a	n/a
502.5039062	n/a	128641	largeHSmallT	error	incongruent	1.4961	no	H	T
504	n/a	129024	responseSmallH	error	n/a	1.4961	no	n/a	n/a
505.078125	n/a	129300	largeTSmallH	correct	incongruent	1.3906	no	T	H
506.46875	n/a	129656	responseSmallH	correct	n/a	1.3906	no	n/a	n/a
507.5429688	n/a	129931	largeHSmallT	correct	incongruent	1.3242	no	H	T
508.8671875	n/a	130270	responseSmallT	correct	n/a	1.3242	no	n/a	n/a
509.9453125	n/a	130546	largeTSmallT	correct	congruent	0.8125	no	T	T
510.7578125	n/a	130754	responseSmallT	correct	n/a	0.8125	no	n/a	n/a
511.8242188	n/a	131027	largeTSmallH	correct	incongruent	1.1719	no	T	H
512.9960938	n/a	131327	responseSmallH	correct	n/a	1.1719	no	n/a	n/a
514.0625	n/a	131600	largeTSmallT	correct	congruent	1.6523	yes	T	T
515.7148438	n/a	132023	responseSmallT	correct	n/a	1.6523	yes	n/a	n/a
516.796875	n/a	132300	largeTSmallT	correct	congruent	0.66797	no	T	T
517.4648438	n/a	132471	responseSmallT	correct	n/a	0.66797	no	n/a	n/a
518.5429688	n/a	132747	largeTSmallH	correct	incongruent	0.61719	no	T	H
519.1601562	n/a	132905	responseSmallH	correct	n/a	0.61719	no	n/a	n/a
520.2226562	n/a	133177	largeTSmallH	correct	incongruent	0.54688	no	T	H
520.7695312	n/a	133317	responseSmallH	correct	n/a	0.54688	no	n/a	n/a
521.8515625	n/a	133594	largeTSmallH	correct	incongruent	0.55469	no	T	H
522.40625	n/a	133736	responseSmallH	correct	n/a	0.55469	no	n/a	n/a
523.4765625	n/a	134010	largeTSmallT	correct	congruent	0.60156	no	T	T
524.078125	n/a	134164	responseSmallT	correct	n/a	0.60156	no	n/a	n/a
525.15625	n/a	134440	largeTSmallH	correct	incongruent	1.1094	no	T	H
526.265625	n/a	134724	responseSmallH	correct	n/a	1.1094	no	n/a	n/a
527.328125	n/a	134996	largeHSmallT	correct	incongruent	0.85156	no	H	T
528.1796875	n/a	135214	responseSmallT	correct	n/a	0.85156	no	n/a	n/a
529.2617188	n/a	135491	largeHSmallH	correct	congruent	1.2695	no	H	H
530.53125	n/a	135816	responseSmallH	correct	n/a	1.2695	no	n/a	n/a
531.59375	n/a	136088	largeHSmallT	correct	incongruent	1.3203	no	H	T
532.9140625	n/a	136426	responseSmallT	correct	n/a	1.3203	no	n/a	n/a
533.984375	n/a	136700	largeTSmallT	correct	congruent	0.8125	no	T	T
534.796875	n/a	136908	responseSmallT	correct	n/a	0.8125	no	n/a	n/a
535.875	n/a	137184	largeHSmallH	correct	congruent	0.59766	no	H	H
536.4726562	n/a	137337	responseSmallH	correct	n/a	0.59766	no	n/a	n/a
537.5429688	n/a	137611	largeTSmallT	error	congruent	0.71484	no	T	T
538.2578125	n/a	137794	responseSmallH	error	n/a	0.71484	no	n/a	n/a
539.328125	n/a	138068	largeHSmallT	correct	incongruent	1.1641	no	H	T
540.4921875	n/a	138366	responseSmallT	correct	n/a	1.1641	no	n/a	n/a
541.5703125	n/a	138642	largeHSmallT	correct	incongruent	1.2344	no	H	T
542.8046875	n/a	138958	responseSmallT	correct	n/a	1.2344	no	n/a	n/a
543.875	n/a	139232	largeHSmallH	correct	congruent	1.3164	no	H	H
545.1914062	n/a	139569	responseSmallH	correct	n/a	1.3164	no	n/a	n/a
546.2617188	n/a	139843	largeTSmallH	correct	incongruent	0.75781	no	T	H
547.0195312	n/a	140037	responseSmallH	correct	n/a	0.75781	no	n/a	n/a
548.0898438	n/a	140311	largeHSmallT	correct	incongruent	0.51172	no	H	T
548.6015625	n/a	140442	responseSmallT	correct	n/a	0.51172	no	n/a	n/a
549.6757812	n/a	140717	largeHSmallH	correct	congruent	0.94531	no	H	H
550.6210938	n/a	140959	responseSmallH	correct	n/a	0.94531	no	n/a	n/a
551.6875	n/a	141232	largeHSmallH	correct	congruent	0.63281	no	H	H
552.3203125	n/a	141394	responseSmallH	correct	n/a	0.63281	no	n/a	n/a
553.3945312	n/a	141669	largeHSmallT	correct	incongruent	0.52344	no	H	T
553.9179688	n/a	141803	responseSmallT	correct	n/a	0.52344	no	n/a	n/a
554.9804688	n/a	142075	largeTSmallH	correct	incongruent	0.55469	no	T	H
555.5351562	n/a	142217	responseSmallH	correct	n/a	0.55469	no	n/a	n/a
556.59375	n/a	142488	largeTSmallH	correct	incongruent	0.75781	no	T	H
557.3515625	n/a	142682	responseSmallH	correct	n/a	0.75781	no	n/a	n/a
558.421875	n/a	142956	largeHSmallH	correct	congruent	0.73828	no	H	H
559.1601562	n/a	143145	responseSmallH	correct	n/a	0.73828	no	n/a	n/a
560.234375	n/a	143420	largeTSmallH	error	incongruent	0.53516	no	T	H
560.7695312	n/a	143557	responseSmallT	error	n/a	0.53516	no	n/a	n/a
561.8476562	n/a	143833	largeHSmallT	error	incongruent	0.23828	no	H	T
562.0859375	n/a	143894	responseSmallH	error	n/a	0.23828	no	n/a	n/a
563.15625	n/a	144168	largeTSmallT	correct	congruent	1.0781	no	T	T
564.234375	n/a	144444	responseSmallT	correct	n/a	1.0781	no	n/a	n/a
565.3046875	n/a	144718	largeTSmallT	correct	congruent	2.0391	yes	T	T
567.34375	n/a	145240	responseSmallT	correct	n/a	2.0391	yes	n/a	n/a
568.40625	n/a	145512	largeHSmallH	correct	congruent	0.84766	no	H	H
569.2539062	n/a	145729	responseSmallH	correct	n/a	0.84766	no	n/a	n/a
570.328125	n/a	146004	largeHSmallH	correct	congruent	0.65625	no	H	H
570.984375	n/a	146172	responseSmallH	correct	n/a	0.65625	no	n/a	n/a
572.0625	n/a	146448	largeHSmallH	correct	congruent	0.98438	no	H	H
573.046875	n/a	146700	responseSmallH	correct	n/a	0.98438	no	n/a	n/a
574.1289062	n/a	146977	largeHSmallH	correct	congruent	0.79688	no	H	H
574.9257812	n/a	147181	responseSmallH	correct	n/a	0.79688	no	n/a	n/a
575.9960938	n/a	147455	largeTSmallH	correct	incongruent	0.61328	no	T	H
576.609375	n/a	147612	responseSmallH	correct	n/a	0.61328	no	n/a	n/a
577.6757812	n/a	147885	largeTSmallT	correct	congruent	0.49609	no	T	T
578.171875	n/a	148012	responseSmallT	correct	n/a	0.49609	no	n/a	n/a
579.234375	n/a	148284	largeTSmallT	correct	congruent	0.53516	no	T	T
579.7695312	n/a	148421	responseSmallT	correct	n/a	0.53516	no	n/a	n/a
580.8476562	n/a	148697	largeHSmallT	correct	incongruent	0.625	no	H	T
581.4726562	n/a	148857	responseSmallT	correct	n/a	0.625	no	n/a	n/a
582.5429688	n/a	149131	largeHSmallH	correct	congruent	1.0703	no	H	H
583.6132812	n/a	149405	responseSmallH	correct	n/a	1.0703	no	n/a	n/a
584.6875	n/a	149680	largeTSmallT	correct	congruent	1.0078	no	T	T
585.6953125	n/a	149938	responseSmallT	correct	n/a	1.0078	no	n/a	n/a
586.7695312	n/a	150213	largeHSmallT	correct	incongruent	0.72656	no	H	T
587.4960938	n/a	150399	responseSmallT	correct	n/a	0.72656	no	n/a	n/a
588.5664062	n/a	150673	largeTSmallT	correct	congruent	0.55078	no	T	T
589.1171875	n/a	150814	responseSmallT	correct	n/a	0.55078	no	n/a	n/a
590.1953125	n/a	151090	largeTSmallH	correct	incongruent	0.82422	no	T	H
591.0195312	n/a	151301	responseSmallH	correct	n/a	0.82422	no	n/a	n/a
592.0898438	n/a	151575	largeTSmallT	correct	congruent	0.57422	no	T	T
592.6640625	n/a	151722	responseSmallT	correct	n/a	0.57422	no	n/a	n/a
593.7265625	n/a	151994	largeHSmallH	correct	congruent	0.66016	no	H	H
594.3867188	n/a	152163	responseSmallH	correct	n/a	0.66016	no	n/a	n/a
595.4609375	n/a	152438	largeHSmallH	correct	congruent	0.60547	no	H	H
596.0664062	n/a	152593	responseSmallH	correct	n/a	0.60547	no	n/a	n/a
597.1289062	n/a	152865	largeHSmallT	correct	incongruent	0.74219	no	H	T
597.8710938	n/a	153055	responseSmallT	correct	n/a	0.74219	no	n/a	n/a
598.9414062	n/a	153329	largeHSmallH	correct	congruent	0.84375	no	H	H
599.7851562	n/a	153545	responseSmallH	correct	n/a	0.84375	no	n/a	n/a
600.859375	n/a	153820	largeTSmallH	correct	incongruent	1.0781	no	T	H
601.9375	n/a	154096	responseSmallH	correct	n/a	1.0781	no	n/a	n/a
603.0078125	n/a	154370	largeTSmallT	correct	congruent	0.65625	no	T	T
603.6640625	n/a	154538	responseSmallT	correct	n/a	0.65625	no	n/a	n/a
604.7421875	n/a	154814	largeHSmallH	correct	congruent	0.61719	no	H	H
605.359375	n/a	154972	responseSmallH	correct	n/a	0.61719	no	n/a	n/a
606.4335938	n/a	155247	largeHSmallT	correct	incongruent	0.54297	no	H	T
606.9765625	n/a	155386	responseSmallT	correct	n/a	0.54297	no	n/a	n/a
608.046875	n/a	155660	largeHSmallH	correct	congruent	0.52344	no	H	H
608.5703125	n/a	155794	responseSmallH	correct	n/a	0.52344	no	n/a	n/a
609.6484375	n/a	156070	largeHSmallT	correct	incongruent	0.43359	no	H	T
610.0820312	n/a	156181	responseSmallT	correct	n/a	0.43359	no	n/a	n/a
611.1523438	n/a	156455	largeHSmallH	correct	congruent	0.58984	no	H	H
611.7421875	n/a	156606	responseSmallH	correct	n/a	0.58984	no	n/a	n/a
612.8085938	n/a	156879	largeHSmallH	correct	congruent	0.82031	no	H	H
613.6289062	n/a	157089	responseSmallH	correct	n/a	0.82031	no	n/a	n/a
614.6992188	n/a	157363	largeTSmallH	correct	incongruent	0.59766	no	T	H
615.296875	n/a	157516	responseSmallH	correct	n/a	0.59766	no	n/a	n/a
616.3671875	n/a	157790	largeHSmallT	error	incongruent	0.52344	no	H	T
616.890625	n/a	157924	responseSmallH	error	n/a	0.52344	no	n/a	n/a
617.953125	n/a	158196	largeHSmallT	correct	incongruent	0.51172	no	H	T
618.4648438	n/a	158327	responseSmallT	correct	n/a	0.51172	no	n/a	n/a
619.5273438	n/a	158599	largeTSmallH	correct	incongruent	0.58984	no	T	H
620.1171875	n/a	158750	responseSmallH	correct	n/a	0.58984	no	n/a	n/a
621.1796875	n/a	159022	largeTSmallH	correct	incongruent	0.88672	no	T	H
622.0664062	n/a	159249	responseSmallH	correct	n/a	0.88672	no	n/a	n/a
623.140625	n/a	159524	largeTSmallH	correct	incongruent	0.74609	no	T	H
623.8867188	n/a	159715	responseSmallH	correct	n/a	0.74609	no	n/a	n/a
624.96875	n/a	159992	largeHSmallT	correct	incongruent	0.92969	no	H	T
625.8984375	n/a	160230	responseSmallT	correct	n/a	0.92969	no	n/a	n/a
626.9804688	n/a	160507	largeHSmallT	correct	incongruent	0.79688	no	H	T
627.7773438	n/a	160711	responseSmallT	correct	n/a	0.79688	no	n/a	n/a
628.8476562	n/a	160985	largeTSmallH	correct	incongruent	0.59766	no	T	H
629.4453125	n/a	161138	responseSmallH	correct	n/a	0.59766	no	n/a	n/a
630.515625	n/a	161412	largeHSmallH	correct	congruent	0.71875	no	H	H
631.234375	n/a	161596	responseSmallH	correct	n/a	0.71875	no	n/a	n/a
632.3125	n/a	161872	largeHSmallT	correct	incongruent	0.53906	no	H	T
632.8515625	n/a	162010	responseSmallT	correct	n/a	0.53906	no	n/a	n/a
633.9140625	n/a	162282	largeTSmallT	correct	congruent	0.54297	no	T	T
634.4570312	n/a	162421	responseSmallT	correct	n/a	0.54297	no	n/a	n/a
635.5273438	n/a	162695	largeTSmallT	correct	congruent	0.53516	no	T	T
636.0625	n/a	162832	responseSmallT	correct	n/a	0.53516	no	n/a	n/a
637.125	n/a	163104	largeHSmallH	correct	congruent	0.48438	no	H	H
637.609375	n/a	163228	responseSmallH	correct	n/a	0.48438	no	n/a	n/a
638.671875	n/a	163500	largeTSmallH	correct	incongruent	0.55078	no	T	H
639.2226562	n/a	163641	responseSmallH	correct	n/a	0.55078	no	n/a	n/a
640.3007812	n/a	163917	largeTSmallT	correct	congruent	0.63281	no	T	T
640.9335938	n/a	164079	responseSmallT	correct	n/a	0.63281	no	n/a	n/a
642.0195312	n/a	164357	largeHSmallT	correct	incongruent	0.51953	no	H	T
642.5390625	n/a	164490	responseSmallT	correct	n/a	0.51953	no	n/a	n/a
643.6054688	n/a	164763	largeTSmallT	correct	congruent	0.54688	no	T	T
644.1523438	n/a	164903	responseSmallT	correct	n/a	0.54688	no	n/a	n/a
645.21875	n/a	165176	largeHSmallT	correct	incongruent	0.76953	no	H	T
645.9882812	n/a	165373	responseSmallT	correct	n/a	0.76953	no	n/a	n/a
647.046875	n/a	165644	largeTSmallT	error	congruent	0.60938	no	T	T
647.65625	n/a	165800	responseSmallH	error	n/a	0.60938	no	n/a	n/a
648.7382812	n/a	166077	largeTSmallT	correct	congruent	0.52344	no	T	T
649.2617188	n/a	166211	responseSmallT	correct	n/a	0.52344	no	n/a	n/a
650.328125	n/a	166484	largeHSmallH	correct	congruent	0.55078	no	H	H
650.8789062	n/a	166625	responseSmallH	correct	n/a	0.55078	no	n/a	n/a
651.953125	n/a	166900	largeTSmallH	correct	incongruent	0.53906	no	T	H
652.4921875	n/a	167038	responseSmallH	correct	n/a	0.53906	no	n/a	n/a
653.5546875	n/a	167310	largeTSmallT	correct	congruent	0.49609	no	T	T
654.0507812	n/a	167437	responseSmallT	correct	n/a	0.49609	no	n/a	n/a
655.1132812	n/a	167709	largeTSmallH	correct	incongruent	0.63281	no	T	H
655.7460938	n/a	167871	responseSmallH	correct	n/a	0.63281	no	n/a	n/a
656.8203125	n/a	168146	largeHSmallH	correct	congruent	0.70312	no	H	H
657.5234375	n/a	168326	responseSmallH	correct	n/a	0.70312	no	n/a	n/a
658.59375	n/a	168600	largeHSmallH	correct	congruent	0.64453	no	H	H
659.2382812	n/a	168765	responseSmallH	correct	n/a	0.64453	no	n/a	n/a
660.3125	n/a	169040	largeHSmallT	correct	incongruent	0.58203	no	H	T
660.8945312	n/a	169189	responseSmallT	correct	n/a	0.58203	no	n/a	n/a
661.9648438	n/a	169463	largeHSmallH	correct	congruent	0.80859	no	H	H
662.7734375	n/a	169670	responseSmallH	correct	n/a	0.80859	no	n/a	n/a
663.8476562	n/a	169945	largeHSmallT	correct	incongruent	0.60938	no	H	T
664.4570312	n/a	170101	responseSmallT	correct	n/a	0.60938	no	n/a	n/a
665.5273438	n/a	170375	largeHSmallT	correct	incongruent	0.93359	no	H	T
666.4609375	n/a	170614	responseSmallT	correct	n/a	0.93359	no	n/a	n/a
667.5390625	n/a	170890	largeHSmallH	correct	congruent	0.5625	no	H	H
668.1015625	n/a	171034	responseSmallH	correct	n/a	0.5625	no	n/a	n/a
669.1640625	n/a	171306	largeHSmallH	correct	congruent	0.66406	no	H	H
669.828125	n/a	171476	responseSmallH	correct	n/a	0.66406	no	n/a	n/a
670.8984375	n/a	171750	largeTSmallH	correct	incongruent	0.59766	no	T	H
671.4960938	n/a	171903	responseSmallH	correct	n/a	0.59766	no	n/a	n/a
672.5664062	n/a	172177	largeTSmallH	correct	incongruent	0.76562	no	T	H
673.3320312	n/a	172373	responseSmallH	correct	n/a	0.76562	no	n/a	n/a
674.390625	n/a	172644	largeHSmallH	correct	congruent	0.53125	no	H	H
674.921875	n/a	172780	responseSmallH	correct	n/a	0.53125	no	n/a	n/a
675.9921875	n/a	173054	largeHSmallT	correct	incongruent	0.59375	no	H	T
676.5859375	n/a	173206	responseSmallT	correct	n/a	0.59375	no	n/a	n/a
677.6601562	n/a	173481	largeTSmallH	correct	incongruent	0.60156	no	T	H
678.2617188	n/a	173635	responseSmallH	correct	n/a	0.60156	no	n/a	n/a
679.3242188	n/a	173907	largeHSmallT	correct	incongruent	0.56641	no	H	T
679.890625	n/a	174052	responseSmallT	correct	n/a	0.56641	no	n/a	n/a
680.9648438	n/a	174327	largeHSmallT	correct	incongruent	0.53906	no	H	T
681.5039062	n/a	174465	responseSmallT	correct	n/a	0.53906	no	n/a	n/a
682.578125	n/a	174740	largeTSmallH	correct	incongruent	0.50781	no	T	H
683.0859375	n/a	174870	responseSmallH	correct	n/a	0.50781	no	n/a	n/a
684.1640625	n/a	175146	largeTSmallT	correct	congruent	0.49609	no	T	T
684.6601562	n/a	175273	responseSmallT	correct	n/a	0.49609	no	n/a	n/a
685.7382812	n/a	175549	largeTSmallT	correct	congruent	0.57031	no	T	T
686.3085938	n/a	175695	responseSmallT	correct	n/a	0.57031	no	n/a	n/a
687.3789062	n/a	175969	largeTSmallT	correct	congruent	0.64453	no	T	T
688.0234375	n/a	176134	responseSmallT	correct	n/a	0.64453	no	n/a	n/a
689.0976562	n/a	176409	largeHSmallT	correct	incongruent	0.54688	no	H	T
689.6445312	n/a	176549	responseSmallT	correct	n/a	0.54688	no	n/a	n/a
690.7109375	n/a	176822	largeHSmallT	correct	incongruent	0.48828	no	H	T
691.1992188	n/a	176947	responseSmallT	correct	n/a	0.48828	no	n/a	n/a
692.2734375	n/a	177222	largeHSmallT	correct	incongruent	0.76562	no	H	T
693.0390625	n/a	177418	responseSmallT	correct	n/a	0.76562	no	n/a	n/a
694.1132812	n/a	177693	largeHSmallH	correct	congruent	0.75781	no	H	H
694.8710938	n/a	177887	responseSmallH	correct	n/a	0.75781	no	n/a	n/a
695.9375	n/a	178160	largeTSmallH	correct	incongruent	0.52734	no	T	H
696.4648438	n/a	178295	responseSmallH	correct	n/a	0.52734	no	n/a	n/a
697.5390625	n/a	178570	largeTSmallH	correct	incongruent	0.5	no	T	H
698.0390625	n/a	178698	responseSmallH	correct	n/a	0.5	no	n/a	n/a
699.1132812	n/a	178973	largeTSmallT	correct	congruent	0.66406	no	T	T
699.7773438	n/a	179143	responseSmallT	correct	n/a	0.66406	no	n/a	n/a
700.84375	n/a	179416	largeHSmallH	correct	congruent	0.58984	no	H	H
701.4335938	n/a	179567	responseSmallH	correct	n/a	0.58984	no	n/a	n/a
702.5117188	n/a	179843	largeHSmallH	correct	congruent	0.57422	no	H	H
703.0859375	n/a	179990	responseSmallH	correct	n/a	0.57422	no	n/a	n/a
704.1640625	n/a	180266	largeTSmallT	correct	congruent	0.61328	no	T	T
704.7773438	n/a	180423	responseSmallT	correct	n/a	0.61328	no	n/a	n/a
705.84375	n/a	180696	largeTSmallH	correct	incongruent	0.51562	no	T	H
706.359375	n/a	180828	responseSmallH	correct	n/a	0.51562	no	n/a	n/a
707.4179688	n/a	181099	largeHSmallT	correct	incongruent	0.72656	no	H	T
708.1445312	n/a	181285	responseSmallT	correct	n/a	0.72656	no	n/a	n/a
709.21875	n/a	181560	largeTSmallH	correct	incongruent	0.54688	no	T	H
709.765625	n/a	181700	responseSmallH	correct	n/a	0.54688	no	n/a	n/a
710.84375	n/a	181976	largeTSmallT	correct	congruent	0.51953	no	T	T
711.3632812	n/a	182109	responseSmallT	correct	n/a	0.51953	no	n/a	n/a
712.4296875	n/a	182382	largeTSmallH	correct	incongruent	0.63672	no	T	H
713.0664062	n/a	182545	responseSmallH	correct	n/a	0.63672	no	n/a	n/a
714.1367188	n/a	182819	largeTSmallT	correct	congruent	0.66797	no	T	T
714.8046875	n/a	182990	responseSmallT	correct	n/a	0.66797	no	n/a	n/a
715.8867188	n/a	183267	largeHSmallT	correct	incongruent	0.61328	no	H	T
716.5	n/a	183424	responseSmallT	correct	n/a	0.61328	no	n/a	n/a
717.5664062	n/a	183697	largeHSmallH	correct	congruent	0.42969	no	H	H
717.9960938	n/a	183807	responseSmallH	correct	n/a	0.42969	no	n/a	n/a
719.0585938	n/a	184079	largeTSmallT	correct	congruent	0.49219	no	T	T
719.5507812	n/a	184205	responseSmallT	correct	n/a	0.49219	no	n/a	n/a
720.6171875	n/a	184478	largeHSmallH	correct	congruent	0.625	no	H	H
721.2421875	n/a	184638	responseSmallH	correct	n/a	0.625	no	n/a	n/a
722.3125	n/a	184912	largeHSmallH	correct	congruent	0.55469	no	H	H
722.8671875	n/a	185054	responseSmallH	correct	n/a	0.55469	no	n/a	n/a
723.9375	n/a	185328	largeTSmallT	correct	congruent	0.58203	no	T	T
724.5195312	n/a	185477	responseSmallT	correct	n/a	0.58203	no	n/a	n/a
725.6054688	n/a	185755	largeHSmallH	correct	congruent	0.65234	no	H	H
726.2578125	n/a	185922	responseSmallH	correct	n/a	0.65234	no	n/a	n/a
727.3242188	n/a	186195	largeHSmallT	correct	incongruent	0.59766	no	H	T
727.921875	n/a	186348	responseSmallT	correct	n/a	0.59766	no	n/a	n/a
729.0039062	n/a	186625	largeHSmallH	correct	congruent	0.54297	no	H	H
729.546875	n/a	186764	responseSmallH	correct	n/a	0.54297	no	n/a	n/a
730.6171875	n/a	187038	largeHSmallH	correct	congruent	0.5	no	H	H
731.1171875	n/a	187166	responseSmallH	correct	n/a	0.5	no	n/a	n/a
732.203125	n/a	187444	largeTSmallT	correct	congruent	0.55469	no	T	T
732.7578125	n/a	187586	responseSmallT	correct	n/a	0.55469	no	n/a	n/a
733.8320312	n/a	187861	largeTSmallH	correct	incongruent	0.75	no	T	H
734.5820312	n/a	188053	responseSmallH	correct	n/a	0.75	no	n/a	n/a
735.6445312	n/a	188325	largeHSmallH	correct	congruent	0.66016	no	H	H
736.3046875	n/a	188494	responseSmallH	correct	n/a	0.66016	no	n/a	n/a
737.3789062	n/a	188769	largeTSmallH	correct	incongruent	0.63281	no	T	H
738.0117188	n/a	188931	responseSmallH	correct	n/a	0.63281	no	n/a	n/a
739.0703125	n/a	189202	largeHSmallT	correct	incongruent	0.59375	no	H	T
739.6640625	n/a	189354	responseSmallT	correct	n/a	0.59375	no	n/a	n/a
740.7265625	n/a	189626	largeHSmallH	correct	congruent	0.63281	no	H	H
741.359375	n/a	189788	responseSmallH	correct	n/a	0.63281	no	n/a	n/a
742.4296875	n/a	190062	largeHSmallH	correct	congruent	0.55078	no	H	H
742.9804688	n/a	190203	responseSmallH	correct	n/a	0.55078	no	n/a	n/a
744.0585938	n/a	190479	largeHSmallT	correct	incongruent	1.1094	no	H	T
745.1679688	n/a	190763	responseSmallT	correct	n/a	1.1094	no	n/a	n/a
746.2304688	n/a	191035	largeHSmallH	correct	congruent	0.62109	no	H	H
746.8515625	n/a	191194	responseSmallH	correct	n/a	0.62109	no	n/a	n/a
747.9257812	n/a	191469	largeTSmallT	correct	congruent	0.72656	no	T	T
748.6523438	n/a	191655	responseSmallT	correct	n/a	0.72656	no	n/a	n/a
749.7109375	n/a	191926	largeTSmallT	correct	congruent	0.62891	no	T	T
750.3398438	n/a	192087	responseSmallT	correct	n/a	0.62891	no	n/a	n/a
751.4179688	n/a	192363	largeTSmallH	correct	incongruent	0.60156	no	T	H
752.0195312	n/a	192517	responseSmallH	correct	n/a	0.60156	no	n/a	n/a
753.0820312	n/a	192789	largeHSmallT	correct	incongruent	0.54297	no	H	T
753.625	n/a	192928	responseSmallT	correct	n/a	0.54297	no	n/a	n/a
754.6953125	n/a	193202	largeTSmallH	correct	incongruent	0.62891	no	T	H
755.3242188	n/a	193363	responseSmallH	correct	n/a	0.62891	no	n/a	n/a
756.390625	n/a	193636	largeTSmallT	correct	congruent	0.74219	no	T	T
757.1328125	n/a	193826	responseSmallT	correct	n/a	0.74219	no	n/a	n/a
758.203125	n/a	194100	largeHSmallT	correct	incongruent	0.60547	no	H	T
758.8085938	n/a	194255	responseSmallT	correct	n/a	0.60547	no	n/a	n/a
759.8828125	n/a	194530	largeHSmallT	correct	incongruent	0.46875	no	H	T
760.3515625	n/a	194650	responseSmallT	correct	n/a	0.46875	no	n/a	n/a
761.4296875	n/a	194926	largeHSmallH	correct	congruent	0.55078	no	H	H
761.9804688	n/a	195067	responseSmallH	correct	n/a	0.55078	no	n/a	n/a
763.0585938	n/a	195343	largeHSmallT	correct	incongruent	0.64453	no	H	T
763.703125	n/a	195508	responseSmallT	correct	n/a	0.64453	no	n/a	n/a
764.7617188	n/a	195779	largeTSmallT	correct	congruent	0.56641	no	T	T
765.328125	n/a	195924	responseSmallT	correct	n/a	0.56641	no	n/a	n/a
766.390625	n/a	196196	largeTSmallH	correct	incongruent	0.60156	no	T	H
766.9921875	n/a	196350	responseSmallH	correct	n/a	0.60156	no	n/a	n/a
768.0585938	n/a	196623	largeTSmallT	correct	congruent	0.73438	no	T	T
768.7929688	n/a	196811	responseSmallT	correct	n/a	0.73438	no	n/a	n/a
769.8710938	n/a	197087	largeTSmallH	correct	incongruent	0.61719	no	T	H
770.4882812	n/a	197245	responseSmallH	correct	n/a	0.61719	no	n/a	n/a
771.5507812	n/a	197517	largeHSmallH	correct	congruent	1.0898	no	H	H
772.640625	n/a	197796	responseSmallH	correct	n/a	1.0898	no	n/a	n/a
773.7109375	n/a	198070	largeHSmallH	correct	congruent	0.52734	no	H	H
774.2382812	n/a	198205	responseSmallH	correct	n/a	0.52734	no	n/a	n/a
775.3085938	n/a	198479	largeHSmallH	correct	congruent	0.39844	no	H	H
775.7070312	n/a	198581	responseSmallH	correct	n/a	0.39844	no	n/a	n/a
776.7773438	n/a	198855	largeTSmallT	error	congruent	0.46875	no	T	T
777.2460938	n/a	198975	responseSmallH	error	n/a	0.46875	no	n/a	n/a
778.3085938	n/a	199247	largeTSmallT	correct	congruent	0.54688	no	T	T
778.8554688	n/a	199387	responseSmallT	correct	n/a	0.54688	no	n/a	n/a
779.9375	n/a	199664	largeTSmallH	correct	incongruent	0.44141	no	T	H
780.3789062	n/a	199777	responseSmallH	correct	n/a	0.44141	no	n/a	n/a
781.4414062	n/a	200049	largeTSmallT	correct	congruent	0.67578	no	T	T
782.1171875	n/a	200222	responseSmallT	correct	n/a	0.67578	no	n/a	n/a
783.1914062	n/a	200497	largeTSmallT	correct	congruent	0.53125	no	T	T
783.7226562	n/a	200633	responseSmallT	correct	n/a	0.53125	no	n/a	n/a
784.7890625	n/a	200906	largeTSmallH	correct	incongruent	0.55078	no	T	H
785.3398438	n/a	201047	responseSmallH	correct	n/a	0.55078	no	n/a	n/a
786.4023438	n/a	201319	largeTSmallH	correct	incongruent	0.83203	no	T	H
787.234375	n/a	201532	responseSmallH	correct	n/a	0.83203	no	n/a	n/a
788.3085938	n/a	201807	largeTSmallT	correct	congruent	0.64453	no	T	T
788.953125	n/a	201972	responseSmallT	correct	n/a	0.64453	no	n/a	n/a
790.03125	n/a	202248	largeHSmallT	correct	incongruent	0.53125	no	H	T
790.5625	n/a	202384	responseSmallT	correct	n/a	0.53125	no	n/a	n/a
791.6289062	n/a	202657	largeTSmallH	correct	incongruent	0.54297	no	T	H
792.171875	n/a	202796	responseSmallH	correct	n/a	0.54297	no	n/a	n/a
793.2421875	n/a	203070	largeTSmallT	correct	congruent	0.52734	no	T	T
793.7695312	n/a	203205	responseSmallT	correct	n/a	0.52734	no	n/a	n/a
794.84375	n/a	203480	largeHSmallT	correct	incongruent	0.60156	no	H	T
795.4453125	n/a	203634	responseSmallT	correct	n/a	0.60156	no	n/a	n/a
796.5078125	n/a	203906	largeHSmallH	correct	congruent	0.61328	no	H	H
797.1210938	n/a	204063	responseSmallH	correct	n/a	0.61328	no	n/a	n/a
798.203125	n/a	204340	largeHSmallH	correct	congruent	0.53516	no	H	H
798.7382812	n/a	204477	responseSmallH	correct	n/a	0.53516	no	n/a	n/a
799.8007812	n/a	204749	largeHSmallT	correct	incongruent	0.58594	no	H	T
800.3867188	n/a	204899	responseSmallT	correct	n/a	0.58594	no	n/a	n/a
801.4570312	n/a	205173	largeTSmallT	correct	congruent	0.47266	no	T	T
801.9296875	n/a	205294	responseSmallT	correct	n/a	0.47266	no	n/a	n/a
803.0039062	n/a	205569	largeHSmallH	correct	congruent	0.57812	no	H	H
803.5820312	n/a	205717	responseSmallH	correct	n/a	0.57812	no	n/a	n/a
804.65625	n/a	205992	largeTSmallH	correct	incongruent	0.63281	no	T	H
805.2890625	n/a	206154	responseSmallH	correct	n/a	0.63281	no	n/a	n/a
806.3632812	n/a	206429	largeTSmallH	correct	incongruent	0.74609	no	T	H
807.109375	n/a	206620	responseSmallH	correct	n/a	0.74609	no	n/a	n/a
808.1875	n/a	206896	largeTSmallT	correct	congruent	0.50781	no	T	T
808.6953125	n/a	207026	responseSmallT	correct	n/a	0.50781	no	n/a	n/a
809.7617188	n/a	207299	largeTSmallT	correct	congruent	0.51562	no	T	T
810.2773438	n/a	207431	responseSmallT	correct	n/a	0.51562	no	n/a	n/a
811.3476562	n/a	207705	largeTSmallT	correct	congruent	0.625	no	T	T
811.9726562	n/a	207865	responseSmallT	correct	n/a	0.625	no	n/a	n/a
813.0546875	n/a	208142	largeHSmallH	correct	congruent	0.55859	no	H	H
813.6132812	n/a	208285	responseSmallH	correct	n/a	0.55859	no	n/a	n/a
814.6953125	n/a	208562	largeHSmallT	correct	incongruent	0.5625	no	H	T
815.2578125	n/a	208706	responseSmallT	correct	n/a	0.5625	no	n/a	n/a
816.3242188	n/a	208979	largeTSmallH	correct	incongruent	0.5	no	T	H
816.8242188	n/a	209107	responseSmallH	correct	n/a	0.5	no	n/a	n/a
817.9101562	n/a	209385	largeHSmallT	correct	incongruent	0.49219	no	H	T
818.4023438	n/a	209511	responseSmallT	correct	n/a	0.49219	no	n/a	n/a
819.4804688	n/a	209787	largeTSmallT	correct	congruent	0.47266	no	T	T
819.953125	n/a	209908	responseSmallT	correct	n/a	0.47266	no	n/a	n/a
821.015625	n/a	210180	largeTSmallH	correct	incongruent	0.65234	no	T	H
821.6679688	n/a	210347	responseSmallH	correct	n/a	0.65234	no	n/a	n/a
822.734375	n/a	210620	largeTSmallH	correct	incongruent	0.58594	no	T	H
823.3203125	n/a	210770	responseSmallH	correct	n/a	0.58594	no	n/a	n/a
824.3867188	n/a	211043	largeHSmallT	correct	incongruent	0.78516	no	H	T
825.171875	n/a	211244	responseSmallT	correct	n/a	0.78516	no	n/a	n/a
826.2539062	n/a	211521	largeHSmallT	correct	incongruent	0.58203	no	H	T
826.8359375	n/a	211670	responseSmallT	correct	n/a	0.58203	no	n/a	n/a
827.8945312	n/a	211941	largeTSmallH	correct	incongruent	0.70703	no	T	H
828.6015625	n/a	212122	responseSmallH	correct	n/a	0.70703	no	n/a	n/a
829.6796875	n/a	212398	largeHSmallH	correct	congruent	0.48047	no	H	H
830.1601562	n/a	212521	responseSmallH	correct	n/a	0.48047	no	n/a	n/a
831.2304688	n/a	212795	largeTSmallH	correct	incongruent	0.67969	no	T	H
831.9101562	n/a	212969	responseSmallH	correct	n/a	0.67969	no	n/a	n/a
832.9882812	n/a	213245	largeHSmallT	correct	incongruent	0.59375	no	H	T
833.5820312	n/a	213397	responseSmallT	correct	n/a	0.59375	no	n/a	n/a
834.65625	n/a	213672	largeTSmallT	correct	congruent	0.50391	no	T	T
835.1601562	n/a	213801	responseSmallT	correct	n/a	0.50391	no	n/a	n/a
836.2265625	n/a	214074	largeTSmallT	correct	congruent	0.52734	no	T	T
836.7539062	n/a	214209	responseSmallT	correct	n/a	0.52734	no	n/a	n/a
837.828125	n/a	214484	largeHSmallT	correct	incongruent	0.51953	no	H	T
838.3476562	n/a	214617	responseSmallT	correct	n/a	0.51953	no	n/a	n/a
839.4140625	n/a	214890	largeHSmallT	correct	incongruent	0.45312	no	H	T
839.8671875	n/a	215006	responseSmallT	correct	n/a	0.45312	no	n/a	n/a
840.9492188	n/a	215283	largeHSmallT	correct	incongruent	0.46875	no	H	T
841.4179688	n/a	215403	responseSmallT	correct	n/a	0.46875	no	n/a	n/a
842.4960938	n/a	215679	largeTSmallH	correct	incongruent	0.53125	no	T	H
843.0273438	n/a	215815	responseSmallH	correct	n/a	0.53125	no	n/a	n/a
855.2421875	n/a	218942	largeHSmallT	correct	incongruent	1.1172	no	H	T
856.359375	n/a	219228	responseLargeH	correct	n/a	1.1172	no	n/a	n/a
857.4296875	n/a	219502	largeTSmallH	correct	incongruent	0.74609	no	T	H
858.1757812	n/a	219693	responseLargeT	correct	n/a	0.74609	no	n/a	n/a
859.2421875	n/a	219966	largeTSmallT	correct	congruent	0.76562	no	T	T
860.0078125	n/a	220162	responseLargeT	correct	n/a	0.76562	no	n/a	n/a
861.0820312	n/a	220437	largeTSmallT	correct	congruent	0.50781	no	T	T
861.5898438	n/a	220567	responseLargeT	correct	n/a	0.50781	no	n/a	n/a
862.6523438	n/a	220839	largeHSmallH	correct	congruent	0.60156	no	H	H
863.2539062	n/a	220993	responseLargeH	correct	n/a	0.60156	no	n/a	n/a
864.3359375	n/a	221270	largeHSmallH	correct	congruent	0.69141	no	H	H
865.0273438	n/a	221447	responseLargeH	correct	n/a	0.69141	no	n/a	n/a
866.09375	n/a	221720	largeHSmallT	correct	incongruent	0.52344	no	H	T
866.6171875	n/a	221854	responseLargeH	correct	n/a	0.52344	no	n/a	n/a
867.6796875	n/a	222126	largeHSmallT	correct	incongruent	0.48828	no	H	T
868.1679688	n/a	222251	responseLargeH	correct	n/a	0.48828	no	n/a	n/a
869.2421875	n/a	222526	largeHSmallH	correct	congruent	0.55859	no	H	H
869.8007812	n/a	222669	responseLargeH	correct	n/a	0.55859	no	n/a	n/a
870.8789062	n/a	222945	largeHSmallH	correct	congruent	0.49609	no	H	H
871.375	n/a	223072	responseLargeH	correct	n/a	0.49609	no	n/a	n/a
872.4414062	n/a	223345	largeHSmallH	correct	congruent	0.53516	no	H	H
872.9765625	n/a	223482	responseLargeH	correct	n/a	0.53516	no	n/a	n/a
874.0390625	n/a	223754	largeTSmallH	correct	incongruent	0.66797	no	T	H
874.7070312	n/a	223925	responseLargeT	correct	n/a	0.66797	no	n/a	n/a
875.7890625	n/a	224202	largeTSmallH	correct	incongruent	1.8711	yes	T	H
877.6601562	n/a	224681	responseLargeT	correct	n/a	1.8711	yes	n/a	n/a
878.734375	n/a	224956	largeHSmallT	correct	incongruent	0.60547	no	H	T
879.3398438	n/a	225111	responseLargeH	correct	n/a	0.60547	no	n/a	n/a
880.4140625	n/a	225386	largeHSmallT	correct	incongruent	0.56641	no	H	T
880.9804688	n/a	225531	responseLargeH	correct	n/a	0.56641	no	n/a	n/a
882.0546875	n/a	225806	largeTSmallT	correct	congruent	0.76953	no	T	T
882.8242188	n/a	226003	responseLargeT	correct	n/a	0.76953	no	n/a	n/a
883.8945312	n/a	226277	largeTSmallT	correct	congruent	0.67188	no	T	T
884.5664062	n/a	226449	responseLargeT	correct	n/a	0.67188	no	n/a	n/a
885.640625	n/a	226724	largeTSmallH	correct	incongruent	0.64844	no	T	H
886.2890625	n/a	226890	responseLargeT	correct	n/a	0.64844	no	n/a	n/a
887.359375	n/a	227164	largeHSmallH	correct	congruent	0.62109	no	H	H
887.9804688	n/a	227323	responseLargeH	correct	n/a	0.62109	no	n/a	n/a
889.0546875	n/a	227598	largeTSmallH	correct	incongruent	0.70312	no	T	H
889.7578125	n/a	227778	responseLargeT	correct	n/a	0.70312	no	n/a	n/a
890.8398438	n/a	228055	largeTSmallT	correct	congruent	0.6875	no	T	T
891.5273438	n/a	228231	responseLargeT	correct	n/a	0.6875	no	n/a	n/a
892.6015625	n/a	228506	largeTSmallH	correct	incongruent	0.52734	no	T	H
893.1289062	n/a	228641	responseLargeT	correct	n/a	0.52734	no	n/a	n/a
894.1992188	n/a	228915	largeHSmallT	correct	incongruent	0.53125	no	H	T
894.7304688	n/a	229051	responseLargeH	correct	n/a	0.53125	no	n/a	n/a
895.8125	n/a	229328	largeHSmallT	correct	incongruent	0.57422	no	H	T
896.3867188	n/a	229475	responseLargeH	correct	n/a	0.57422	no	n/a	n/a
897.4648438	n/a	229751	largeTSmallH	correct	incongruent	0.73047	no	T	H
898.1953125	n/a	229938	responseLargeT	correct	n/a	0.73047	no	n/a	n/a
899.28125	n/a	230216	largeTSmallH	correct	incongruent	0.56641	no	T	H
899.8476562	n/a	230361	responseLargeT	correct	n/a	0.56641	no	n/a	n/a
900.90625	n/a	230632	largeHSmallH	correct	congruent	0.51172	no	H	H
901.4179688	n/a	230763	responseLargeH	correct	n/a	0.51172	no	n/a	n/a
902.4921875	n/a	231038	largeTSmallH	correct	incongruent	0.42969	no	T	H
902.921875	n/a	231148	responseLargeT	correct	n/a	0.42969	no	n/a	n/a
903.9882812	n/a	231421	largeHSmallT	correct	incongruent	0.50781	no	H	T
904.4960938	n/a	231551	responseLargeH	correct	n/a	0.50781	no	n/a	n/a
905.5585938	n/a	231823	largeTSmallT	correct	congruent	0.87891	no	T	T
906.4375	n/a	232048	responseLargeT	correct	n/a	0.87891	no	n/a	n/a
907.5078125	n/a	232322	largeTSmallT	correct	congruent	0.59766	no	T	T
908.1054688	n/a	232475	responseLargeT	correct	n/a	0.59766	no	n/a	n/a
909.1875	n/a	232752	largeHSmallT	correct	incongruent	0.63281	no	H	T
909.8203125	n/a	232914	responseLargeH	correct	n/a	0.63281	no	n/a	n/a
910.8945312	n/a	233189	largeHSmallH	correct	congruent	1.6016	yes	H	H
912.4960938	n/a	233599	responseLargeH	correct	n/a	1.6016	yes	n/a	n/a
913.5585938	n/a	233871	largeHSmallH	correct	congruent	0.51953	no	H	H
914.078125	n/a	234004	responseLargeH	correct	n/a	0.51953	no	n/a	n/a
915.1601562	n/a	234281	largeTSmallT	correct	congruent	0.78516	no	T	T
915.9453125	n/a	234482	responseLargeT	correct	n/a	0.78516	no	n/a	n/a
917.0117188	n/a	234755	largeHSmallH	correct	congruent	1.7461	yes	H	H
918.7578125	n/a	235202	responseLargeH	correct	n/a	1.7461	yes	n/a	n/a
919.8398438	n/a	235479	largeTSmallT	correct	congruent	0.5625	no	T	T
920.4023438	n/a	235623	responseLargeT	correct	n/a	0.5625	no	n/a	n/a
921.4648438	n/a	235895	largeTSmallT	correct	congruent	0.85156	no	T	T
922.3164062	n/a	236113	responseLargeT	correct	n/a	0.85156	no	n/a	n/a
923.3867188	n/a	236387	largeHSmallT	correct	incongruent	0.50781	no	H	T
923.8945312	n/a	236517	responseLargeH	correct	n/a	0.50781	no	n/a	n/a
924.9726562	n/a	236793	largeTSmallH	correct	incongruent	0.67188	no	T	H
925.6445312	n/a	236965	responseLargeT	correct	n/a	0.67188	no	n/a	n/a
926.71875	n/a	237240	largeTSmallT	correct	congruent	0.57812	no	T	T
927.296875	n/a	237388	responseLargeT	correct	n/a	0.57812	no	n/a	n/a
928.3710938	n/a	237663	largeHSmallH	correct	congruent	0.63281	no	H	H
929.0039062	n/a	237825	responseLargeH	correct	n/a	0.63281	no	n/a	n/a
930.078125	n/a	238100	largeTSmallT	correct	congruent	0.65625	no	T	T
930.734375	n/a	238268	responseLargeT	correct	n/a	0.65625	no	n/a	n/a
931.8007812	n/a	238541	largeHSmallT	correct	incongruent	0.51172	no	H	T
932.3125	n/a	238672	responseLargeH	correct	n/a	0.51172	no	n/a	n/a
933.3867188	n/a	238947	largeHSmallT	correct	incongruent	0.54688	no	H	T
933.9335938	n/a	239087	responseLargeH	correct	n/a	0.54688	no	n/a	n/a
935	n/a	239360	largeHSmallT	correct	incongruent	0.48438	no	H	T
935.484375	n/a	239484	responseLargeH	correct	n/a	0.48438	no	n/a	n/a
936.5585938	n/a	239759	largeHSmallT	correct	incongruent	0.61328	no	H	T
937.171875	n/a	239916	responseLargeH	correct	n/a	0.61328	no	n/a	n/a
938.2382812	n/a	240189	largeHSmallH	correct	congruent	0.56641	no	H	H
938.8046875	n/a	240334	responseLargeH	correct	n/a	0.56641	no	n/a	n/a
939.8789062	n/a	240609	largeHSmallT	correct	incongruent	0.50781	no	H	T
940.3867188	n/a	240739	responseLargeH	correct	n/a	0.50781	no	n/a	n/a
941.453125	n/a	241012	largeHSmallH	correct	congruent	0.60938	no	H	H
942.0625	n/a	241168	responseLargeH	correct	n/a	0.60938	no	n/a	n/a
943.1171875	n/a	241438	largeHSmallH	correct	congruent	0.52734	no	H	H
943.6445312	n/a	241573	responseLargeH	correct	n/a	0.52734	no	n/a	n/a
944.71875	n/a	241848	largeHSmallT	correct	incongruent	0.49609	no	H	T
945.2148438	n/a	241975	responseLargeH	correct	n/a	0.49609	no	n/a	n/a
946.2773438	n/a	242247	largeTSmallT	correct	congruent	0.61719	no	T	T
946.8945312	n/a	242405	responseLargeT	correct	n/a	0.61719	no	n/a	n/a
947.9570312	n/a	242677	largeHSmallT	correct	incongruent	0.48438	no	H	T
948.4414062	n/a	242801	responseLargeH	correct	n/a	0.48438	no	n/a	n/a
949.5039062	n/a	243073	largeTSmallH	correct	incongruent	0.71875	no	T	H
950.2226562	n/a	243257	responseLargeT	correct	n/a	0.71875	no	n/a	n/a
951.2929688	n/a	243531	largeHSmallH	correct	congruent	0.56641	no	H	H
951.859375	n/a	243676	responseLargeH	correct	n/a	0.56641	no	n/a	n/a
952.9179688	n/a	243947	largeHSmallH	correct	congruent	0.66016	no	H	H
953.578125	n/a	244116	responseLargeH	correct	n/a	0.66016	no	n/a	n/a
954.6523438	n/a	244391	largeTSmallT	correct	congruent	0.51953	no	T	T
955.171875	n/a	244524	responseLargeT	correct	n/a	0.51953	no	n/a	n/a
956.2382812	n/a	244797	largeTSmallH	correct	incongruent	0.49609	no	T	H
956.734375	n/a	244924	responseLargeT	correct	n/a	0.49609	no	n/a	n/a
957.796875	n/a	245196	largeTSmallH	correct	incongruent	0.54297	no	T	H
958.3398438	n/a	245335	responseLargeT	correct	n/a	0.54297	no	n/a	n/a
959.4101562	n/a	245609	largeTSmallH	correct	incongruent	0.55469	no	T	H
959.9648438	n/a	245751	responseLargeT	correct	n/a	0.55469	no	n/a	n/a
961.0390625	n/a	246026	largeTSmallT	correct	congruent	0.95312	no	T	T
961.9921875	n/a	246270	responseLargeT	correct	n/a	0.95312	no	n/a	n/a
963.0664062	n/a	246545	largeHSmallT	correct	incongruent	0.76562	no	H	T
963.8320312	n/a	246741	responseLargeH	correct	n/a	0.76562	no	n/a	n/a
964.90625	n/a	247016	largeTSmallH	correct	incongruent	1.3672	no	T	H
966.2734375	n/a	247366	responseLargeT	correct	n/a	1.3672	no	n/a	n/a
967.359375	n/a	247644	largeTSmallH	correct	incongruent	0.54297	no	T	H
967.9023438	n/a	247783	responseLargeT	correct	n/a	0.54297	no	n/a	n/a
968.9726562	n/a	248057	largeHSmallH	correct	congruent	0.875	no	H	H
969.8476562	n/a	248281	responseLargeH	correct	n/a	0.875	no	n/a	n/a
970.9179688	n/a	248555	largeHSmallT	error	incongruent	0.61719	no	H	T
971.5351562	n/a	248713	responseLargeT	error	n/a	0.61719	no	n/a	n/a
972.6132812	n/a	248989	largeTSmallH	correct	incongruent	0.53125	no	T	H
973.1445312	n/a	249125	responseLargeT	correct	n/a	0.53125	no	n/a	n/a
974.2109375	n/a	249398	largeHSmallH	correct	congruent	0.47656	no	H	H
974.6875	n/a	249520	responseLargeH	correct	n/a	0.47656	no	n/a	n/a
975.7578125	n/a	249794	largeHSmallT	correct	incongruent	0.73047	no	H	T
976.4882812	n/a	249981	responseLargeH	correct	n/a	0.73047	no	n/a	n/a
977.5585938	n/a	250255	largeTSmallT	correct	congruent	0.53906	no	T	T
978.0976562	n/a	250393	responseLargeT	correct	n/a	0.53906	no	n/a	n/a
979.15625	n/a	250664	largeHSmallT	correct	incongruent	0.55078	no	H	T
979.7070312	n/a	250805	responseLargeH	correct	n/a	0.55078	no	n/a	n/a
980.7851562	n/a	251081	largeHSmallT	correct	incongruent	0.59375	no	H	T
981.3789062	n/a	251233	responseLargeH	correct	n/a	0.59375	no	n/a	n/a
982.453125	n/a	251508	largeHSmallH	correct	congruent	0.64844	no	H	H
983.1015625	n/a	251674	responseLargeH	correct	n/a	0.64844	no	n/a	n/a
984.171875	n/a	251948	largeTSmallT	correct	congruent	0.78906	no	T	T
984.9609375	n/a	252150	responseLargeT	correct	n/a	0.78906	no	n/a	n/a
986.0234375	n/a	252422	largeTSmallH	correct	incongruent	0.89844	no	T	H
986.921875	n/a	252652	responseLargeT	correct	n/a	0.89844	no	n/a	n/a
987.984375	n/a	252924	largeTSmallH	correct	incongruent	0.71094	no	T	H
988.6953125	n/a	253106	responseLargeT	correct	n/a	0.71094	no	n/a	n/a
989.7695312	n/a	253381	largeTSmallH	correct	incongruent	0.63281	no	T	H
990.4023438	n/a	253543	responseLargeT	correct	n/a	0.63281	no	n/a	n/a
991.4648438	n/a	253815	largeHSmallH	correct	congruent	0.5625	no	H	H
992.0273438	n/a	253959	responseLargeH	correct	n/a	0.5625	no	n/a	n/a
993.0898438	n/a	254231	largeTSmallT	correct	congruent	0.48828	no	T	T
993.578125	n/a	254356	responseLargeT	correct	n/a	0.48828	no	n/a	n/a
994.6523438	n/a	254631	largeHSmallT	correct	incongruent	0.53906	no	H	T
995.1914062	n/a	254769	responseLargeH	correct	n/a	0.53906	no	n/a	n/a
996.265625	n/a	255044	largeTSmallH	correct	incongruent	0.69141	no	T	H
996.9570312	n/a	255221	responseLargeT	correct	n/a	0.69141	no	n/a	n/a
998.0234375	n/a	255494	largeHSmallH	correct	congruent	0.54297	no	H	H
998.5664062	n/a	255633	responseLargeH	correct	n/a	0.54297	no	n/a	n/a
999.6523438	n/a	255911	largeHSmallT	correct	incongruent	0.69141	no	H	T
1000.34375	n/a	256088	responseLargeH	correct	n/a	0.69141	no	n/a	n/a
1001.425781	n/a	256365	largeTSmallT	correct	congruent	0.50781	no	T	T
1001.933594	n/a	256495	responseLargeT	correct	n/a	0.50781	no	n/a	n/a
1002.996094	n/a	256767	largeTSmallT	correct	congruent	0.53906	no	T	T
1003.535156	n/a	256905	responseLargeT	correct	n/a	0.53906	no	n/a	n/a
1004.609375	n/a	257180	largeTSmallT	correct	congruent	0.44922	no	T	T
1005.058594	n/a	257295	responseLargeT	correct	n/a	0.44922	no	n/a	n/a
1006.128906	n/a	257569	largeTSmallH	correct	incongruent	0.45703	no	T	H
1006.585938	n/a	257686	responseLargeT	correct	n/a	0.45703	no	n/a	n/a
1007.664062	n/a	257962	largeHSmallT	correct	incongruent	0.51562	no	H	T
1008.179688	n/a	258094	responseLargeH	correct	n/a	0.51562	no	n/a	n/a
1009.25	n/a	258368	largeHSmallH	correct	congruent	0.64844	no	H	H
1009.898438	n/a	258534	responseLargeH	correct	n/a	0.64844	no	n/a	n/a
1010.96875	n/a	258808	largeTSmallH	correct	incongruent	0.48828	no	T	H
1011.457031	n/a	258933	responseLargeT	correct	n/a	0.48828	no	n/a	n/a
1012.53125	n/a	259208	largeHSmallH	error	congruent	0.57422	no	H	H
1013.105469	n/a	259355	responseLargeT	error	n/a	0.57422	no	n/a	n/a
1014.183594	n/a	259631	largeHSmallH	correct	congruent	0.53125	no	H	H
1014.714844	n/a	259767	responseLargeH	correct	n/a	0.53125	no	n/a	n/a
1015.785156	n/a	260041	largeTSmallH	correct	incongruent	0.54297	no	T	H
1016.328125	n/a	260180	responseLargeT	correct	n/a	0.54297	no	n/a	n/a
1017.398438	n/a	260454	largeTSmallT	correct	congruent	0.60156	no	T	T
1018	n/a	260608	responseLargeT	correct	n/a	0.60156	no	n/a	n/a
1019.0625	n/a	260880	largeTSmallT	correct	congruent	0.66016	no	T	T
1019.722656	n/a	261049	responseLargeT	correct	n/a	0.66016	no	n/a	n/a
1020.796875	n/a	261324	largeTSmallH	correct	incongruent	0.96875	no	T	H
1021.765625	n/a	261572	responseLargeT	correct	n/a	0.96875	no	n/a	n/a
1022.835938	n/a	261846	largeHSmallT	correct	incongruent	0.45312	no	H	T
1023.289062	n/a	261962	responseLargeH	correct	n/a	0.45312	no	n/a	n/a
1024.355469	n/a	262235	largeTSmallT	correct	congruent	0.56641	no	T	T
1024.921875	n/a	262380	responseLargeT	correct	n/a	0.56641	no	n/a	n/a
1025.996094	n/a	262655	largeHSmallT	correct	incongruent	0.53906	no	H	T
1026.535156	n/a	262793	responseLargeH	correct	n/a	0.53906	no	n/a	n/a
1027.597656	n/a	263065	largeHSmallT	correct	incongruent	0.625	no	H	T
1028.222656	n/a	263225	responseLargeH	correct	n/a	0.625	no	n/a	n/a
1029.304688	n/a	263502	largeHSmallH	correct	congruent	0.68359	no	H	H
1029.988281	n/a	263677	responseLargeH	correct	n/a	0.68359	no	n/a	n/a
1031.0625	n/a	263952	largeTSmallH	correct	incongruent	0.55078	no	T	H
1031.613281	n/a	264093	responseLargeT	correct	n/a	0.55078	no	n/a	n/a
1032.691406	n/a	264369	largeTSmallH	error	incongruent	0.44141	no	T	H
1033.132812	n/a	264482	responseLargeH	error	n/a	0.44141	no	n/a	n/a
1034.195312	n/a	264754	largeHSmallH	correct	congruent	0.5	no	H	H
1034.695312	n/a	264882	responseLargeH	correct	n/a	0.5	no	n/a	n/a
1035.757812	n/a	265154	largeTSmallH	correct	incongruent	0.56641	no	T	H
1036.324219	n/a	265299	responseLargeT	correct	n/a	0.56641	no	n/a	n/a
1037.394531	n/a	265573	largeTSmallT	correct	congruent	0.83203	no	T	T
1038.226562	n/a	265786	responseLargeT	correct	n/a	0.83203	no	n/a	n/a
1039.304688	n/a	266062	largeHSmallH	correct	congruent	0.59375	no	H	H
1039.898438	n/a	266214	responseLargeH	correct	n/a	0.59375	no	n/a	n/a
1040.96875	n/a	266488	largeTSmallT	correct	congruent	0.54688	no	T	T
1041.515625	n/a	266628	responseLargeT	correct	n/a	0.54688	no	n/a	n/a
1042.597656	n/a	266905	largeHSmallH	correct	congruent	0.45703	no	H	H
1043.054688	n/a	267022	responseLargeH	correct	n/a	0.45703	no	n/a	n/a
1044.117188	n/a	267294	largeHSmallT	correct	incongruent	0.50391	no	H	T
1044.621094	n/a	267423	responseLargeH	correct	n/a	0.50391	no	n/a	n/a
1045.691406	n/a	267697	largeTSmallH	correct	incongruent	0.63281	no	T	H
1046.324219	n/a	267859	responseLargeT	correct	n/a	0.63281	no	n/a	n/a
1047.394531	n/a	268133	largeHSmallT	correct	incongruent	0.59766	no	H	T
1047.992188	n/a	268286	responseLargeH	correct	n/a	0.59766	no	n/a	n/a
1049.0625	n/a	268560	largeTSmallT	correct	congruent	0.66797	no	T	T
1049.730469	n/a	268731	responseLargeT	correct	n/a	0.66797	no	n/a	n/a
1050.796875	n/a	269004	largeTSmallT	correct	congruent	0.52734	no	T	T
1051.324219	n/a	269139	responseLargeT	correct	n/a	0.52734	no	n/a	n/a
1052.410156	n/a	269417	largeHSmallT	correct	incongruent	0.66016	no	H	T
1053.070312	n/a	269586	responseLargeH	correct	n/a	0.66016	no	n/a	n/a
1054.128906	n/a	269857	largeTSmallT	correct	congruent	0.88281	no	T	T
1055.011719	n/a	270083	responseLargeT	correct	n/a	0.88281	no	n/a	n/a
1056.089844	n/a	270359	largeHSmallH	correct	congruent	0.52734	no	H	H
1056.617188	n/a	270494	responseLargeH	correct	n/a	0.52734	no	n/a	n/a
1057.6875	n/a	270768	largeTSmallH	correct	incongruent	0.41016	no	T	H
1058.097656	n/a	270873	responseLargeT	correct	n/a	0.41016	no	n/a	n/a
1059.167969	n/a	271147	largeHSmallH	correct	congruent	0.70312	no	H	H
1059.871094	n/a	271327	responseLargeH	correct	n/a	0.70312	no	n/a	n/a
1060.941406	n/a	271601	largeTSmallT	correct	congruent	0.64453	no	T	T
1061.585938	n/a	271766	responseLargeT	correct	n/a	0.64453	no	n/a	n/a
1062.648438	n/a	272038	largeHSmallT	correct	incongruent	0.61328	no	H	T
1063.261719	n/a	272195	responseLargeH	correct	n/a	0.61328	no	n/a	n/a
1064.34375	n/a	272472	largeHSmallT	error	incongruent	0.82031	no	H	T
1065.164062	n/a	272682	responseLargeT	error	n/a	0.82031	no	n/a	n/a
1066.234375	n/a	272956	largeHSmallH	correct	congruent	0.77734	no	H	H
1067.011719	n/a	273155	responseLargeH	correct	n/a	0.77734	no	n/a	n/a
1068.074219	n/a	273427	largeHSmallH	correct	congruent	0.56641	no	H	H
1068.640625	n/a	273572	responseLargeH	correct	n/a	0.56641	no	n/a	n/a
1069.703125	n/a	273844	largeHSmallT	correct	incongruent	0.64062	no	H	T
1070.34375	n/a	274008	responseLargeH	correct	n/a	0.64062	no	n/a	n/a
1071.421875	n/a	274284	largeHSmallH	correct	congruent	0.61328	no	H	H
1072.035156	n/a	274441	responseLargeH	correct	n/a	0.61328	no	n/a	n/a
1073.101562	n/a	274714	largeHSmallT	correct	incongruent	0.46875	no	H	T
1073.570312	n/a	274834	responseLargeH	correct	n/a	0.46875	no	n/a	n/a
1074.648438	n/a	275110	largeHSmallH	correct	congruent	0.53516	no	H	H
1075.183594	n/a	275247	responseLargeH	correct	n/a	0.53516	no	n/a	n/a
1076.261719	n/a	275523	largeHSmallH	correct	congruent	0.45703	no	H	H
1076.71875	n/a	275640	responseLargeH	correct	n/a	0.45703	no	n/a	n/a
1077.78125	n/a	275912	largeHSmallH	correct	congruent	0.51562	no	H	H
1078.296875	n/a	276044	responseLargeH	correct	n/a	0.51562	no	n/a	n/a
1079.355469	n/a	276315	largeHSmallT	correct	incongruent	0.47656	no	H	T
1079.832031	n/a	276437	responseLargeH	correct	n/a	0.47656	no	n/a	n/a
1080.902344	n/a	276711	largeHSmallT	correct	incongruent	0.57031	no	H	T
1081.472656	n/a	276857	responseLargeH	correct	n/a	0.57031	no	n/a	n/a
1082.542969	n/a	277131	largeTSmallT	correct	congruent	0.63672	no	T	T
1083.179688	n/a	277294	responseLargeT	correct	n/a	0.63672	no	n/a	n/a
1084.261719	n/a	277571	largeTSmallH	correct	incongruent	0.52734	no	T	H
1084.789062	n/a	277706	responseLargeT	correct	n/a	0.52734	no	n/a	n/a
1085.863281	n/a	277981	largeTSmallT	correct	congruent	0.55469	no	T	T
1086.417969	n/a	278123	responseLargeT	correct	n/a	0.55469	no	n/a	n/a
1087.488281	n/a	278397	largeTSmallH	correct	incongruent	0.53516	no	T	H
1088.023438	n/a	278534	responseLargeT	correct	n/a	0.53516	no	n/a	n/a
1089.101562	n/a	278810	largeTSmallH	correct	incongruent	0.48438	no	T	H
1089.585938	n/a	278934	responseLargeT	correct	n/a	0.48438	no	n/a	n/a
1090.648438	n/a	279206	largeTSmallH	correct	incongruent	0.52344	no	T	H
1091.171875	n/a	279340	responseLargeT	correct	n/a	0.52344	no	n/a	n/a
1092.25	n/a	279616	largeTSmallT	correct	congruent	0.47266	no	T	T
1092.722656	n/a	279737	responseLargeT	correct	n/a	0.47266	no	n/a	n/a
1093.796875	n/a	280012	largeHSmallT	correct	incongruent	0.54688	no	H	T
1094.34375	n/a	280152	responseLargeH	correct	n/a	0.54688	no	n/a	n/a
1095.40625	n/a	280424	largeHSmallH	correct	congruent	0.56641	no	H	H
1095.972656	n/a	280569	responseLargeH	correct	n/a	0.56641	no	n/a	n/a
1097.046875	n/a	280844	largeHSmallH	correct	congruent	0.73828	no	H	H
1097.785156	n/a	281033	responseLargeH	correct	n/a	0.73828	no	n/a	n/a
1098.863281	n/a	281309	largeTSmallT	correct	congruent	0.73438	no	T	T
1099.597656	n/a	281497	responseLargeT	correct	n/a	0.73438	no	n/a	n/a
1100.675781	n/a	281773	largeHSmallT	correct	incongruent	0.57031	no	H	T
1101.246094	n/a	281919	responseLargeH	correct	n/a	0.57031	no	n/a	n/a
1102.328125	n/a	282196	largeTSmallH	correct	incongruent	0.62891	no	T	H
1102.957031	n/a	282357	responseLargeT	correct	n/a	0.62891	no	n/a	n/a
1104.019531	n/a	282629	largeTSmallT	correct	congruent	0.66797	no	T	T
1104.6875	n/a	282800	responseLargeT	correct	n/a	0.66797	no	n/a	n/a
1105.753906	n/a	283073	largeTSmallH	correct	incongruent	0.94531	no	T	H
1106.699219	n/a	283315	responseLargeT	correct	n/a	0.94531	no	n/a	n/a
1107.769531	n/a	283589	largeTSmallH	correct	incongruent	0.54297	no	T	H
1108.3125	n/a	283728	responseLargeT	correct	n/a	0.54297	no	n/a	n/a
1109.382812	n/a	284002	largeTSmallT	correct	congruent	0.55859	no	T	T
1109.941406	n/a	284145	responseLargeT	correct	n/a	0.55859	no	n/a	n/a
1111.007812	n/a	284418	largeTSmallH	correct	incongruent	0.76562	no	T	H
1111.773438	n/a	284614	responseLargeT	correct	n/a	0.76562	no	n/a	n/a
1112.835938	n/a	284886	largeHSmallH	correct	congruent	0.59766	no	H	H
1113.433594	n/a	285039	responseLargeH	correct	n/a	0.59766	no	n/a	n/a
1114.5	n/a	285312	largeTSmallH	correct	incongruent	0.62891	no	T	H
1115.128906	n/a	285473	responseLargeT	correct	n/a	0.62891	no	n/a	n/a
1116.207031	n/a	285749	largeHSmallT	correct	incongruent	0.66406	no	H	T
1116.871094	n/a	285919	responseLargeH	correct	n/a	0.66406	no	n/a	n/a
1117.941406	n/a	286193	largeHSmallT	correct	incongruent	0.5625	no	H	T
1118.503906	n/a	286337	responseLargeH	correct	n/a	0.5625	no	n/a	n/a
1119.582031	n/a	286613	largeHSmallH	correct	congruent	0.53125	no	H	H
1120.113281	n/a	286749	responseLargeH	correct	n/a	0.53125	no	n/a	n/a
1121.179688	n/a	287022	largeTSmallT	correct	congruent	0.59766	no	T	T
1121.777344	n/a	287175	responseLargeT	correct	n/a	0.59766	no	n/a	n/a
1122.847656	n/a	287449	largeHSmallH	correct	congruent	0.59375	no	H	H
1123.441406	n/a	287601	responseLargeH	correct	n/a	0.59375	no	n/a	n/a
1124.5	n/a	287872	largeTSmallT	correct	congruent	0.66016	no	T	T
1125.160156	n/a	288041	responseLargeT	correct	n/a	0.66016	no	n/a	n/a
1126.234375	n/a	288316	largeTSmallT	correct	congruent	0.57031	no	T	T
1126.804688	n/a	288462	responseLargeT	correct	n/a	0.57031	no	n/a	n/a
1127.875	n/a	288736	largeTSmallH	correct	incongruent	0.70312	no	T	H
1128.578125	n/a	288916	responseLargeT	correct	n/a	0.70312	no	n/a	n/a
1129.660156	n/a	289193	largeHSmallH	correct	congruent	0.74219	no	H	H
1130.402344	n/a	289383	responseLargeH	correct	n/a	0.74219	no	n/a	n/a
1131.472656	n/a	289657	largeTSmallH	correct	incongruent	0.70703	no	T	H
1132.179688	n/a	289838	responseLargeT	correct	n/a	0.70703	no	n/a	n/a
1133.246094	n/a	290111	largeTSmallT	correct	congruent	0.54297	no	T	T
1133.789062	n/a	290250	responseLargeT	correct	n/a	0.54297	no	n/a	n/a
1134.859375	n/a	290524	largeHSmallT	correct	incongruent	0.41016	no	H	T
1135.269531	n/a	290629	responseLargeH	correct	n/a	0.41016	no	n/a	n/a
1136.355469	n/a	290907	largeTSmallT	correct	congruent	0.375	no	T	T
1136.730469	n/a	291003	responseLargeT	correct	n/a	0.375	no	n/a	n/a
1137.792969	n/a	291275	largeHSmallH	correct	congruent	0.53906	no	H	H
1138.332031	n/a	291413	responseLargeH	correct	n/a	0.53906	no	n/a	n/a
1139.40625	n/a	291688	largeHSmallT	correct	incongruent	0.53516	no	H	T
1139.941406	n/a	291825	responseLargeH	correct	n/a	0.53516	no	n/a	n/a
1141.007812	n/a	292098	largeTSmallT	correct	congruent	0.58203	no	T	T
1141.589844	n/a	292247	responseLargeT	correct	n/a	0.58203	no	n/a	n/a
1142.660156	n/a	292521	largeTSmallH	correct	incongruent	0.58594	no	T	H
1143.246094	n/a	292671	responseLargeT	correct	n/a	0.58594	no	n/a	n/a
1144.3125	n/a	292944	largeTSmallH	correct	incongruent	0.5625	no	T	H
1144.875	n/a	293088	responseLargeT	correct	n/a	0.5625	no	n/a	n/a
1145.941406	n/a	293361	largeHSmallH	error	congruent	0.52734	no	H	H
1146.46875	n/a	293496	responseLargeT	error	n/a	0.52734	no	n/a	n/a
1147.527344	n/a	293767	largeTSmallT	correct	congruent	0.46094	no	T	T
1147.988281	n/a	293885	responseLargeT	correct	n/a	0.46094	no	n/a	n/a
1149.058594	n/a	294159	largeHSmallH	correct	congruent	0.53125	no	H	H
1149.589844	n/a	294295	responseLargeH	correct	n/a	0.53125	no	n/a	n/a
1150.671875	n/a	294572	largeTSmallH	correct	incongruent	0.48438	no	T	H
1151.15625	n/a	294696	responseLargeT	correct	n/a	0.48438	no	n/a	n/a
1152.234375	n/a	294972	largeTSmallT	correct	congruent	0.71875	no	T	T
1152.953125	n/a	295156	responseLargeT	correct	n/a	0.71875	no	n/a	n/a
1154.019531	n/a	295429	largeHSmallT	correct	incongruent	0.79688	no	H	T
1154.816406	n/a	295633	responseLargeH	correct	n/a	0.79688	no	n/a	n/a
1155.898438	n/a	295910	largeTSmallT	correct	congruent	0.59766	no	T	T
1156.496094	n/a	296063	responseLargeT	correct	n/a	0.59766	no	n/a	n/a
1157.566406	n/a	296337	largeHSmallT	correct	incongruent	0.50391	no	H	T
1158.070312	n/a	296466	responseLargeH	correct	n/a	0.50391	no	n/a	n/a
1159.140625	n/a	296740	largeHSmallT	correct	incongruent	0.60547	no	H	T
1159.746094	n/a	296895	responseLargeH	correct	n/a	0.60547	no	n/a	n/a
1160.820312	n/a	297170	largeTSmallT	correct	congruent	0.48047	no	T	T
1161.300781	n/a	297293	responseLargeT	correct	n/a	0.48047	no	n/a	n/a
1162.367188	n/a	297566	largeTSmallH	correct	incongruent	0.45703	no	T	H
1162.824219	n/a	297683	responseLargeT	correct	n/a	0.45703	no	n/a	n/a
1163.898438	n/a	297958	largeHSmallH	correct	congruent	0.54688	no	H	H
1164.445312	n/a	298098	responseLargeH	correct	n/a	0.54688	no	n/a	n/a
1165.511719	n/a	298371	largeHSmallH	correct	congruent	0.62891	no	H	H
1166.140625	n/a	298532	responseLargeH	correct	n/a	0.62891	no	n/a	n/a
1167.207031	n/a	298805	largeHSmallT	correct	incongruent	0.68359	no	H	T
1167.890625	n/a	298980	responseLargeH	correct	n/a	0.68359	no	n/a	n/a
1168.964844	n/a	299255	largeTSmallH	correct	incongruent	0.54297	no	T	H
1169.507812	n/a	299394	responseLargeT	correct	n/a	0.54297	no	n/a	n/a
1170.566406	n/a	299665	largeTSmallH	correct	incongruent	0.51953	no	T	H
1171.085938	n/a	299798	responseLargeT	correct	n/a	0.51953	no	n/a	n/a
1172.152344	n/a	300071	largeTSmallH	correct	incongruent	0.55859	no	T	H
1172.710938	n/a	300214	responseLargeT	correct	n/a	0.55859	no	n/a	n/a
1173.792969	n/a	300491	largeTSmallH	correct	incongruent	0.50781	no	T	H
1174.300781	n/a	300621	responseLargeT	correct	n/a	0.50781	no	n/a	n/a
1175.378906	n/a	300897	largeTSmallT	correct	congruent	0.49609	no	T	T
1175.875	n/a	301024	responseLargeT	correct	n/a	0.49609	no	n/a	n/a
1176.9375	n/a	301296	largeTSmallH	correct	incongruent	0.42188	no	T	H
1177.359375	n/a	301404	responseLargeT	correct	n/a	0.42188	no	n/a	n/a
1178.433594	n/a	301679	largeTSmallT	correct	congruent	0.48438	no	T	T
1178.917969	n/a	301803	responseLargeT	correct	n/a	0.48438	no	n/a	n/a
1179.992188	n/a	302078	largeHSmallT	correct	incongruent	0.47656	no	H	T
1180.46875	n/a	302200	responseLargeH	correct	n/a	0.47656	no	n/a	n/a
1181.539062	n/a	302474	largeHSmallH	correct	congruent	0.48047	no	H	H
1182.019531	n/a	302597	responseLargeH	correct	n/a	0.48047	no	n/a	n/a
1183.085938	n/a	302870	largeTSmallT	correct	congruent	0.60547	no	T	T
1183.691406	n/a	303025	responseLargeT	correct	n/a	0.60547	no	n/a	n/a
1184.753906	n/a	303297	largeHSmallH	correct	congruent	0.53906	no	H	H
1185.292969	n/a	303435	responseLargeH	correct	n/a	0.53906	no	n/a	n/a
1186.363281	n/a	303709	largeTSmallT	error	congruent	0.49219	no	T	T
1186.855469	n/a	303835	responseLargeH	error	n/a	0.49219	no	n/a	n/a
1187.925781	n/a	304109	largeHSmallH	correct	congruent	0.48438	no	H	H
1188.410156	n/a	304233	responseLargeH	correct	n/a	0.48438	no	n/a	n/a
1189.484375	n/a	304508	largeHSmallT	correct	incongruent	0.59375	no	H	T
1190.078125	n/a	304660	responseLargeH	correct	n/a	0.59375	no	n/a	n/a
1191.152344	n/a	304935	largeHSmallT	correct	incongruent	0.72266	no	H	T
1191.875	n/a	305120	responseLargeH	correct	n/a	0.72266	no	n/a	n/a
1200.523438	n/a	307334	largeHSmallH	correct	congruent	1.1367	no	H	H
1201.660156	n/a	307625	responseSmallH	correct	n/a	1.1367	no	n/a	n/a
1202.726562	n/a	307898	largeHSmallT	correct	incongruent	0.5625	no	H	T
1203.289062	n/a	308042	responseSmallT	correct	n/a	0.5625	no	n/a	n/a
1204.367188	n/a	308318	largeHSmallT	correct	incongruent	0.54688	no	H	T
1204.914062	n/a	308458	responseSmallT	correct	n/a	0.54688	no	n/a	n/a
1205.976562	n/a	308730	largeTSmallH	correct	incongruent	0.49219	no	T	H
1206.46875	n/a	308856	responseSmallH	correct	n/a	0.49219	no	n/a	n/a
1207.550781	n/a	309133	largeHSmallH	correct	congruent	0.59375	no	H	H
1208.144531	n/a	309285	responseSmallH	correct	n/a	0.59375	no	n/a	n/a
1209.21875	n/a	309560	largeHSmallT	correct	incongruent	0.53906	no	H	T
1209.757812	n/a	309698	responseSmallT	correct	n/a	0.53906	no	n/a	n/a
1210.820312	n/a	309970	largeHSmallH	correct	congruent	0.96875	no	H	H
1211.789062	n/a	310218	responseSmallH	correct	n/a	0.96875	no	n/a	n/a
1212.859375	n/a	310492	largeTSmallT	correct	congruent	0.66406	no	T	T
1213.523438	n/a	310662	responseSmallT	correct	n/a	0.66406	no	n/a	n/a
1214.605469	n/a	310939	largeTSmallH	correct	incongruent	0.87891	no	T	H
1215.484375	n/a	311164	responseSmallH	correct	n/a	0.87891	no	n/a	n/a
1216.566406	n/a	311441	largeTSmallT	correct	congruent	0.79297	no	T	T
1217.359375	n/a	311644	responseSmallT	correct	n/a	0.79297	no	n/a	n/a
1218.433594	n/a	311919	largeHSmallT	correct	incongruent	0.5625	no	H	T
1218.996094	n/a	312063	responseSmallT	correct	n/a	0.5625	no	n/a	n/a
1220.070312	n/a	312338	largeHSmallH	correct	congruent	0.59766	no	H	H
1220.667969	n/a	312491	responseSmallH	correct	n/a	0.59766	no	n/a	n/a
1221.738281	n/a	312765	largeTSmallT	correct	congruent	0.69141	no	T	T
1222.429688	n/a	312942	responseSmallT	correct	n/a	0.69141	no	n/a	n/a
1223.511719	n/a	313219	largeHSmallH	correct	congruent	0.63281	no	H	H
1224.144531	n/a	313381	responseSmallH	correct	n/a	0.63281	no	n/a	n/a
1225.21875	n/a	313656	largeTSmallT	correct	congruent	0.66797	no	T	T
1225.886719	n/a	313827	responseSmallT	correct	n/a	0.66797	no	n/a	n/a
1226.953125	n/a	314100	largeHSmallH	correct	congruent	0.67578	no	H	H
1227.628906	n/a	314273	responseSmallH	correct	n/a	0.67578	no	n/a	n/a
1228.699219	n/a	314547	largeTSmallH	correct	incongruent	0.64062	no	T	H
1229.339844	n/a	314711	responseSmallH	correct	n/a	0.64062	no	n/a	n/a
1230.417969	n/a	314987	largeHSmallT	correct	incongruent	0.59766	no	H	T
1231.015625	n/a	315140	responseSmallT	correct	n/a	0.59766	no	n/a	n/a
1232.085938	n/a	315414	largeHSmallT	correct	incongruent	0.72656	no	H	T
1232.8125	n/a	315600	responseSmallT	correct	n/a	0.72656	no	n/a	n/a
1233.882812	n/a	315874	largeHSmallT	correct	incongruent	0.55469	no	H	T
1234.4375	n/a	316016	responseSmallT	correct	n/a	0.55469	no	n/a	n/a
1235.496094	n/a	316287	largeHSmallH	correct	congruent	0.49609	no	H	H
1235.992188	n/a	316414	responseSmallH	correct	n/a	0.49609	no	n/a	n/a
1237.058594	n/a	316687	largeHSmallH	error	congruent	0.47656	no	H	H
1237.535156	n/a	316809	responseSmallT	error	n/a	0.47656	no	n/a	n/a
1238.605469	n/a	317083	largeTSmallT	correct	congruent	1.6875	yes	T	T
1240.292969	n/a	317515	responseSmallT	correct	n/a	1.6875	yes	n/a	n/a
1241.363281	n/a	317789	largeHSmallT	correct	incongruent	1.125	no	H	T
1242.488281	n/a	318077	responseSmallT	correct	n/a	1.125	no	n/a	n/a
1243.5625	n/a	318352	largeHSmallH	correct	congruent	1.0742	no	H	H
1244.636719	n/a	318627	responseSmallH	correct	n/a	1.0742	no	n/a	n/a
1245.699219	n/a	318899	largeTSmallT	correct	congruent	0.64062	no	T	T
1246.339844	n/a	319063	responseSmallT	correct	n/a	0.64062	no	n/a	n/a
1247.402344	n/a	319335	largeTSmallH	correct	incongruent	1.2734	no	T	H
1248.675781	n/a	319661	responseSmallH	correct	n/a	1.2734	no	n/a	n/a
1249.75	n/a	319936	largeHSmallH	correct	congruent	0.84766	no	H	H
1250.597656	n/a	320153	responseSmallH	correct	n/a	0.84766	no	n/a	n/a
1251.671875	n/a	320428	largeHSmallT	correct	incongruent	0.63672	no	H	T
1252.308594	n/a	320591	responseSmallT	correct	n/a	0.63672	no	n/a	n/a
1253.378906	n/a	320865	largeTSmallH	correct	incongruent	0.45312	no	T	H
1253.832031	n/a	320981	responseSmallH	correct	n/a	0.45312	no	n/a	n/a
1254.910156	n/a	321257	largeTSmallH	correct	incongruent	0.78516	no	T	H
1255.695312	n/a	321458	responseSmallH	correct	n/a	0.78516	no	n/a	n/a
1256.765625	n/a	321732	largeHSmallT	correct	incongruent	0.71484	no	H	T
1257.480469	n/a	321915	responseSmallT	correct	n/a	0.71484	no	n/a	n/a
1258.550781	n/a	322189	largeHSmallT	correct	incongruent	0.6875	no	H	T
1259.238281	n/a	322365	responseSmallT	correct	n/a	0.6875	no	n/a	n/a
1260.3125	n/a	322640	largeHSmallT	correct	incongruent	0.51953	no	H	T
1260.832031	n/a	322773	responseSmallT	correct	n/a	0.51953	no	n/a	n/a
1261.898438	n/a	323046	largeTSmallT	correct	congruent	0.55859	no	T	T
1262.457031	n/a	323189	responseSmallT	correct	n/a	0.55859	no	n/a	n/a
1263.539062	n/a	323466	largeTSmallH	correct	incongruent	0.55859	no	T	H
1264.097656	n/a	323609	responseSmallH	correct	n/a	0.55859	no	n/a	n/a
1265.175781	n/a	323885	largeHSmallH	correct	congruent	0.64844	no	H	H
1265.824219	n/a	324051	responseSmallH	correct	n/a	0.64844	no	n/a	n/a
1266.882812	n/a	324322	largeTSmallT	correct	congruent	1.2031	no	T	T
1268.085938	n/a	324630	responseSmallT	correct	n/a	1.2031	no	n/a	n/a
1269.152344	n/a	324903	largeHSmallH	correct	congruent	0.62109	no	H	H
1269.773438	n/a	325062	responseSmallH	correct	n/a	0.62109	no	n/a	n/a
1270.855469	n/a	325339	largeTSmallH	correct	incongruent	1.0234	no	T	H
1271.878906	n/a	325601	responseSmallH	correct	n/a	1.0234	no	n/a	n/a
1272.964844	n/a	325879	largeHSmallT	correct	incongruent	0.60938	no	H	T
1273.574219	n/a	326035	responseSmallT	correct	n/a	0.60938	no	n/a	n/a
1274.644531	n/a	326309	largeHSmallT	correct	incongruent	0.51562	no	H	T
1275.160156	n/a	326441	responseSmallT	correct	n/a	0.51562	no	n/a	n/a
1276.230469	n/a	326715	largeTSmallH	correct	incongruent	0.51953	no	T	H
1276.75	n/a	326848	responseSmallH	correct	n/a	0.51953	no	n/a	n/a
1277.832031	n/a	327125	largeHSmallH	correct	congruent	0.49609	no	H	H
1278.328125	n/a	327252	responseSmallH	correct	n/a	0.49609	no	n/a	n/a
1279.402344	n/a	327527	largeHSmallT	correct	incongruent	0.53906	no	H	T
1279.941406	n/a	327665	responseSmallT	correct	n/a	0.53906	no	n/a	n/a
1281.003906	n/a	327937	largeTSmallT	correct	congruent	0.62891	no	T	T
1281.632812	n/a	328098	responseSmallT	correct	n/a	0.62891	no	n/a	n/a
1282.710938	n/a	328374	largeTSmallH	correct	incongruent	0.49219	no	T	H
1283.203125	n/a	328500	responseSmallH	correct	n/a	0.49219	no	n/a	n/a
1284.269531	n/a	328773	largeHSmallH	correct	congruent	0.63672	no	H	H
1284.90625	n/a	328936	responseSmallH	correct	n/a	0.63672	no	n/a	n/a
1285.988281	n/a	329213	largeTSmallH	correct	incongruent	0.63281	no	T	H
1286.621094	n/a	329375	responseSmallH	correct	n/a	0.63281	no	n/a	n/a
1287.695312	n/a	329650	largeTSmallT	correct	congruent	0.49609	no	T	T
1288.191406	n/a	329777	responseSmallT	correct	n/a	0.49609	no	n/a	n/a
1289.257812	n/a	330050	largeTSmallH	correct	incongruent	0.54688	no	T	H
1289.804688	n/a	330190	responseSmallH	correct	n/a	0.54688	no	n/a	n/a
1290.882812	n/a	330466	largeTSmallH	correct	incongruent	0.57422	no	T	H
1291.457031	n/a	330613	responseSmallH	correct	n/a	0.57422	no	n/a	n/a
1292.535156	n/a	330889	largeTSmallT	correct	congruent	0.57031	no	T	T
1293.105469	n/a	331035	responseSmallT	correct	n/a	0.57031	no	n/a	n/a
1294.175781	n/a	331309	largeHSmallH	correct	congruent	0.58594	no	H	H
1294.761719	n/a	331459	responseSmallH	correct	n/a	0.58594	no	n/a	n/a
1295.828125	n/a	331732	largeTSmallT	correct	congruent	0.61719	no	T	T
1296.445312	n/a	331890	responseSmallT	correct	n/a	0.61719	no	n/a	n/a
1297.507812	n/a	332162	largeHSmallH	correct	congruent	0.61328	no	H	H
1298.121094	n/a	332319	responseSmallH	correct	n/a	0.61328	no	n/a	n/a
1299.203125	n/a	332596	largeHSmallH	error	congruent	0.92969	no	H	H
1300.132812	n/a	332834	responseSmallT	error	n/a	0.92969	no	n/a	n/a
1301.203125	n/a	333108	largeTSmallH	correct	incongruent	0.5625	no	T	H
1301.765625	n/a	333252	responseSmallH	correct	n/a	0.5625	no	n/a	n/a
1302.828125	n/a	333524	largeHSmallH	correct	congruent	0.97656	no	H	H
1303.804688	n/a	333774	responseSmallH	correct	n/a	0.97656	no	n/a	n/a
1304.871094	n/a	334047	largeHSmallH	correct	congruent	0.83984	no	H	H
1305.710938	n/a	334262	responseSmallH	correct	n/a	0.83984	no	n/a	n/a
1306.777344	n/a	334535	largeHSmallH	correct	congruent	0.53516	no	H	H
1307.3125	n/a	334672	responseSmallH	correct	n/a	0.53516	no	n/a	n/a
1308.390625	n/a	334948	largeTSmallT	correct	congruent	0.73047	no	T	T
1309.121094	n/a	335135	responseSmallT	correct	n/a	0.73047	no	n/a	n/a
1310.1875	n/a	335408	largeTSmallT	correct	congruent	0.54688	no	T	T
1310.734375	n/a	335548	responseSmallT	correct	n/a	0.54688	no	n/a	n/a
1311.800781	n/a	335821	largeHSmallT	correct	incongruent	0.67969	no	H	T
1312.480469	n/a	335995	responseSmallT	correct	n/a	0.67969	no	n/a	n/a
1313.550781	n/a	336269	largeHSmallT	correct	incongruent	0.57422	no	H	T
1314.125	n/a	336416	responseSmallT	correct	n/a	0.57422	no	n/a	n/a
1315.203125	n/a	336692	largeTSmallT	correct	congruent	0.80859	no	T	T
1316.011719	n/a	336899	responseSmallT	correct	n/a	0.80859	no	n/a	n/a
1317.070312	n/a	337170	largeHSmallT	correct	incongruent	0.58984	no	H	T
1317.660156	n/a	337321	responseSmallT	correct	n/a	0.58984	no	n/a	n/a
1318.722656	n/a	337593	largeHSmallH	correct	congruent	0.63281	no	H	H
1319.355469	n/a	337755	responseSmallH	correct	n/a	0.63281	no	n/a	n/a
1320.429688	n/a	338030	largeHSmallT	correct	incongruent	0.65625	no	H	T
1321.085938	n/a	338198	responseSmallT	correct	n/a	0.65625	no	n/a	n/a
1322.164062	n/a	338474	largeTSmallT	correct	congruent	0.88281	no	T	T
1323.046875	n/a	338700	responseSmallT	correct	n/a	0.88281	no	n/a	n/a
1324.121094	n/a	338975	largeHSmallH	correct	congruent	0.60547	no	H	H
1324.726562	n/a	339130	responseSmallH	correct	n/a	0.60547	no	n/a	n/a
1325.789062	n/a	339402	largeHSmallH	correct	congruent	0.64453	no	H	H
1326.433594	n/a	339567	responseSmallH	correct	n/a	0.64453	no	n/a	n/a
1327.507812	n/a	339842	largeTSmallH	correct	incongruent	0.73047	no	T	H
1328.238281	n/a	340029	responseSmallH	correct	n/a	0.73047	no	n/a	n/a
1329.308594	n/a	340303	largeHSmallT	correct	incongruent	1.2656	no	H	T
1330.574219	n/a	340627	responseSmallT	correct	n/a	1.2656	no	n/a	n/a
1331.640625	n/a	340900	largeHSmallT	correct	incongruent	0.64062	no	H	T
1332.28125	n/a	341064	responseSmallT	correct	n/a	0.64062	no	n/a	n/a
1333.363281	n/a	341341	largeTSmallH	correct	incongruent	0.5625	no	T	H
1333.925781	n/a	341485	responseSmallH	correct	n/a	0.5625	no	n/a	n/a
1335.003906	n/a	341761	largeTSmallT	correct	congruent	0.71875	no	T	T
1335.722656	n/a	341945	responseSmallT	correct	n/a	0.71875	no	n/a	n/a
1336.789062	n/a	342218	largeHSmallT	correct	incongruent	0.55469	no	H	T
1337.34375	n/a	342360	responseSmallT	correct	n/a	0.55469	no	n/a	n/a
1338.414062	n/a	342634	largeTSmallH	correct	incongruent	0.96484	no	T	H
1339.378906	n/a	342881	responseSmallH	correct	n/a	0.96484	no	n/a	n/a
1340.441406	n/a	343153	largeHSmallH	correct	congruent	0.76953	no	H	H
1341.210938	n/a	343350	responseSmallH	correct	n/a	0.76953	no	n/a	n/a
1342.28125	n/a	343624	largeTSmallT	correct	congruent	0.70312	no	T	T
1342.984375	n/a	343804	responseSmallT	correct	n/a	0.70312	no	n/a	n/a
1344.070312	n/a	344082	largeTSmallH	correct	incongruent	0.66406	no	T	H
1344.734375	n/a	344252	responseSmallH	correct	n/a	0.66406	no	n/a	n/a
1345.816406	n/a	344529	largeTSmallT	correct	congruent	0.63672	no	T	T
1346.453125	n/a	344692	responseSmallT	correct	n/a	0.63672	no	n/a	n/a
1347.523438	n/a	344966	largeHSmallH	correct	congruent	0.67969	no	H	H
1348.203125	n/a	345140	responseSmallH	correct	n/a	0.67969	no	n/a	n/a
1349.269531	n/a	345413	largeTSmallH	correct	incongruent	0.91016	no	T	H
1350.179688	n/a	345646	responseSmallH	correct	n/a	0.91016	no	n/a	n/a
1351.253906	n/a	345921	largeTSmallH	correct	incongruent	0.70312	no	T	H
1351.957031	n/a	346101	responseSmallH	correct	n/a	0.70312	no	n/a	n/a
1353.027344	n/a	346375	largeTSmallT	correct	congruent	0.64062	no	T	T
1353.667969	n/a	346539	responseSmallT	correct	n/a	0.64062	no	n/a	n/a
1354.734375	n/a	346812	largeHSmallH	correct	congruent	0.61719	no	H	H
1355.351562	n/a	346970	responseSmallH	correct	n/a	0.61719	no	n/a	n/a
1356.414062	n/a	347242	largeTSmallT	correct	congruent	0.63672	no	T	T
1357.050781	n/a	347405	responseSmallT	correct	n/a	0.63672	no	n/a	n/a
1358.121094	n/a	347679	largeHSmallT	correct	incongruent	0.71875	no	H	T
1358.839844	n/a	347863	responseSmallT	correct	n/a	0.71875	no	n/a	n/a
1359.90625	n/a	348136	largeHSmallH	correct	congruent	0.94141	no	H	H
1360.847656	n/a	348377	responseSmallH	correct	n/a	0.94141	no	n/a	n/a
1361.921875	n/a	348652	largeHSmallH	correct	congruent	0.51172	no	H	H
1362.433594	n/a	348783	responseSmallH	correct	n/a	0.51172	no	n/a	n/a
1363.496094	n/a	349055	largeHSmallT	correct	incongruent	0.79688	no	H	T
1364.292969	n/a	349259	responseSmallT	correct	n/a	0.79688	no	n/a	n/a
1365.359375	n/a	349532	largeHSmallT	correct	incongruent	0.625	no	H	T
1365.984375	n/a	349692	responseSmallT	correct	n/a	0.625	no	n/a	n/a
1367.054688	n/a	349966	largeTSmallT	correct	congruent	0.57812	no	T	T
1367.632812	n/a	350114	responseSmallT	correct	n/a	0.57812	no	n/a	n/a
1368.707031	n/a	350389	largeHSmallT	correct	incongruent	0.52734	no	H	T
1369.234375	n/a	350524	responseSmallT	correct	n/a	0.52734	no	n/a	n/a
1370.292969	n/a	350795	largeTSmallT	correct	congruent	0.49609	no	T	T
1370.789062	n/a	350922	responseSmallT	correct	n/a	0.49609	no	n/a	n/a
1371.855469	n/a	351195	largeTSmallT	correct	congruent	0.51953	no	T	T
1372.375	n/a	351328	responseSmallT	correct	n/a	0.51953	no	n/a	n/a
1373.453125	n/a	351604	largeHSmallH	correct	congruent	0.57031	no	H	H
1374.023438	n/a	351750	responseSmallH	correct	n/a	0.57031	no	n/a	n/a
1375.09375	n/a	352024	largeHSmallT	correct	incongruent	0.66016	no	H	T
1375.753906	n/a	352193	responseSmallT	correct	n/a	0.66016	no	n/a	n/a
1376.828125	n/a	352468	largeTSmallH	correct	incongruent	1.3438	no	T	H
1378.171875	n/a	352812	responseSmallH	correct	n/a	1.3438	no	n/a	n/a
1379.242188	n/a	353086	largeTSmallH	correct	incongruent	0.74609	no	T	H
1379.988281	n/a	353277	responseSmallH	correct	n/a	0.74609	no	n/a	n/a
1381.066406	n/a	353553	largeTSmallH	correct	incongruent	0.66797	no	T	H
1381.734375	n/a	353724	responseSmallH	correct	n/a	0.66797	no	n/a	n/a
1382.8125	n/a	354000	largeTSmallH	correct	incongruent	0.5	no	T	H
1383.3125	n/a	354128	responseSmallH	correct	n/a	0.5	no	n/a	n/a
1384.386719	n/a	354403	largeHSmallH	correct	congruent	0.55859	no	H	H
1384.945312	n/a	354546	responseSmallH	correct	n/a	0.55859	no	n/a	n/a
1386.015625	n/a	354820	largeHSmallH	correct	congruent	0.49609	no	H	H
1386.511719	n/a	354947	responseSmallH	correct	n/a	0.49609	no	n/a	n/a
1387.585938	n/a	355222	largeHSmallT	correct	incongruent	0.67578	no	H	T
1388.261719	n/a	355395	responseSmallT	correct	n/a	0.67578	no	n/a	n/a
1389.332031	n/a	355669	largeHSmallT	correct	incongruent	0.60547	no	H	T
1389.9375	n/a	355824	responseSmallT	correct	n/a	0.60547	no	n/a	n/a
1391	n/a	356096	largeHSmallT	correct	incongruent	0.56641	no	H	T
1391.566406	n/a	356241	responseSmallT	correct	n/a	0.56641	no	n/a	n/a
1392.640625	n/a	356516	largeTSmallH	correct	incongruent	0.61328	no	T	H
1393.253906	n/a	356673	responseSmallH	correct	n/a	0.61328	no	n/a	n/a
1394.320312	n/a	356946	largeHSmallT	correct	incongruent	0.64844	no	H	T
1394.96875	n/a	357112	responseSmallT	correct	n/a	0.64844	no	n/a	n/a
1396.039062	n/a	357386	largeHSmallT	correct	incongruent	0.51562	no	H	T
1396.554688	n/a	357518	responseSmallT	correct	n/a	0.51562	no	n/a	n/a
1397.640625	n/a	357796	largeTSmallH	correct	incongruent	0.51953	no	T	H
1398.160156	n/a	357929	responseSmallH	correct	n/a	0.51953	no	n/a	n/a
1399.242188	n/a	358206	largeHSmallT	correct	incongruent	0.625	no	H	T
1399.867188	n/a	358366	responseSmallT	correct	n/a	0.625	no	n/a	n/a
1400.933594	n/a	358639	largeTSmallH	correct	incongruent	0.53516	no	T	H
1401.46875	n/a	358776	responseSmallH	correct	n/a	0.53516	no	n/a	n/a
1402.546875	n/a	359052	largeHSmallT	correct	incongruent	0.48047	no	H	T
1403.027344	n/a	359175	responseSmallT	correct	n/a	0.48047	no	n/a	n/a
1404.09375	n/a	359448	largeHSmallH	correct	congruent	0.57031	no	H	H
1404.664062	n/a	359594	responseSmallH	correct	n/a	0.57031	no	n/a	n/a
1405.734375	n/a	359868	largeHSmallH	correct	congruent	1.1289	no	H	H
1406.863281	n/a	360157	responseSmallH	correct	n/a	1.1289	no	n/a	n/a
1407.933594	n/a	360431	largeTSmallT	correct	congruent	0.55078	no	T	T
1408.484375	n/a	360572	responseSmallT	correct	n/a	0.55078	no	n/a	n/a
1409.546875	n/a	360844	largeTSmallT	correct	congruent	0.51953	no	T	T
1410.066406	n/a	360977	responseSmallT	correct	n/a	0.51953	no	n/a	n/a
1411.148438	n/a	361254	largeTSmallH	correct	incongruent	0.52734	no	T	H
1411.675781	n/a	361389	responseSmallH	correct	n/a	0.52734	no	n/a	n/a
1412.746094	n/a	361663	largeHSmallT	correct	incongruent	0.47266	no	H	T
1413.21875	n/a	361784	responseSmallT	correct	n/a	0.47266	no	n/a	n/a
1414.292969	n/a	362059	largeTSmallH	correct	incongruent	0.61328	no	T	H
1414.90625	n/a	362216	responseSmallH	correct	n/a	0.61328	no	n/a	n/a
1415.972656	n/a	362489	largeTSmallH	correct	incongruent	0.49609	no	T	H
1416.46875	n/a	362616	responseSmallH	correct	n/a	0.49609	no	n/a	n/a
1417.53125	n/a	362888	largeTSmallT	correct	congruent	0.58594	no	T	T
1418.117188	n/a	363038	responseSmallT	correct	n/a	0.58594	no	n/a	n/a
1419.1875	n/a	363312	largeTSmallH	correct	incongruent	0.57031	no	T	H
1419.757812	n/a	363458	responseSmallH	correct	n/a	0.57031	no	n/a	n/a
1420.824219	n/a	363731	largeTSmallT	correct	congruent	0.55859	no	T	T
