onset	duration	sample	value	stimulus	response_type	response_time
30.140625	n/a	7716	A	nontarget	n/a	n/a
31.72265625	n/a	8121	B	nontarget	n/a	n/a
33.4296875	n/a	8558	B	nontarget	n/a	n/a
35.0625	n/a	8976	A	target	hit	488.2812
35.55078125	n/a	9101	rt	n/a	hit	488.2812
36.63671875	n/a	9379	C	nontarget	n/a	n/a
38.265625	n/a	9796	D	nontarget	n/a	n/a
39.83984375	n/a	10199	D	nontarget	false_alarm	656.25
40.49609375	n/a	10367	rt	n/a	false_alarm	656.25
41.41015625	n/a	10601	A	nontarget	n/a	n/a
42.984375	n/a	11004	D	target	miss	n/a
44.609375	n/a	11420	B	nontarget	miss	n/a
46.18359375	n/a	11823	B	nontarget	n/a	n/a
47.7578125	n/a	12226	B	nontarget	n/a	n/a
49.4453125	n/a	12658	D	nontarget	n/a	n/a
51.0234375	n/a	13062	A	nontarget	n/a	n/a
52.59765625	n/a	13465	D	nontarget	n/a	n/a
54.171875	n/a	13868	D	target	miss	n/a
55.7421875	n/a	14270	C	nontarget	miss	n/a
57.43359375	n/a	14703	C	nontarget	n/a	n/a
59.01171875	n/a	15107	A	nontarget	n/a	n/a
60.5859375	n/a	15510	A	nontarget	n/a	n/a
62.15625	n/a	15912	A	nontarget	n/a	n/a
63.73046875	n/a	16315	C	nontarget	n/a	n/a
65.3046875	n/a	16718	C	nontarget	n/a	n/a
66.890625	n/a	17124	D	nontarget	n/a	n/a
68.46484375	n/a	17527	B	nontarget	n/a	n/a
70.0390625	n/a	17930	A	nontarget	n/a	n/a
71.609375	n/a	18332	C	nontarget	n/a	n/a
73.18359375	n/a	18735	D	nontarget	n/a	n/a
74.7578125	n/a	19138	B	nontarget	n/a	n/a
76.328125	n/a	19540	A	nontarget	n/a	n/a
78.0234375	n/a	19974	D	target	miss	n/a
79.59765625	n/a	20377	B	target	miss	n/a
81.16796875	n/a	20779	A	target	hit	945.3125
82.11328125	n/a	21021	rt	n/a	hit	945.3125
82.7578125	n/a	21186	C	nontarget	n/a	n/a
84.43359375	n/a	21615	B	target	miss	n/a
86.0078125	n/a	22018	D	nontarget	miss	n/a
87.63671875	n/a	22435	C	target	miss	n/a
89.2109375	n/a	22838	D	nontarget	miss	n/a
90.78515625	n/a	23241	B	nontarget	n/a	n/a
92.35546875	n/a	23643	D	nontarget	n/a	n/a
93.9296875	n/a	24046	B	nontarget	n/a	n/a
95.48828125	n/a	24445	D	nontarget	n/a	n/a
97.05078125	n/a	24845	C	nontarget	n/a	n/a
98.61328125	n/a	25245	D	nontarget	n/a	n/a
100.1953125	n/a	25650	D	target	miss	n/a
101.7695312	n/a	26053	D	nontarget	miss	n/a
103.34375	n/a	26456	A	nontarget	n/a	n/a
104.9179688	n/a	26859	D	target	miss	n/a
106.4882812	n/a	27261	A	nontarget	miss	n/a
108.0625	n/a	27664	B	nontarget	n/a	n/a
109.625	n/a	28064	D	target	miss	n/a
111.2070312	n/a	28469	B	nontarget	miss	n/a
112.78125	n/a	28872	A	nontarget	false_alarm	503.9062
113.2851562	n/a	29001	rt	n/a	false_alarm	503.9062
114.4296875	n/a	29294	D	target	miss	n/a
116.0625	n/a	29712	B	target	miss	n/a
117.6367188	n/a	30115	A	target	hit	617.1875
118.2539062	n/a	30273	rt	n/a	hit	617.1875
119.3164062	n/a	30545	B	nontarget	n/a	n/a
120.890625	n/a	30948	A	nontarget	n/a	n/a
122.4609375	n/a	31350	C	nontarget	n/a	n/a
124.0234375	n/a	31750	C	nontarget	n/a	n/a
125.6484375	n/a	32166	A	target	miss	n/a
127.2226562	n/a	32569	C	target	hit	410.1562
127.6328125	n/a	32674	rt	n/a	hit	410.1562
128.796875	n/a	32972	C	target	miss	n/a
130.3554688	n/a	33371	B	nontarget	miss	n/a
131.9296875	n/a	33774	A	nontarget	n/a	n/a
133.5039062	n/a	34177	B	nontarget	n/a	n/a
135.1796875	n/a	34606	C	nontarget	n/a	n/a
136.7539062	n/a	35009	C	nontarget	n/a	n/a
138.4257812	n/a	35437	C	nontarget	n/a	n/a
140.0625	n/a	35856	A	nontarget	n/a	n/a
141.6367188	n/a	36259	A	nontarget	false_alarm	441.4062
142.078125	n/a	36372	rt	n/a	false_alarm	441.4062
143.2226562	n/a	36665	A	nontarget	n/a	n/a
144.796875	n/a	37068	A	target	miss	n/a
146.3671875	n/a	37470	D	nontarget	miss	n/a
147.9414062	n/a	37873	C	nontarget	n/a	n/a
149.515625	n/a	38276	B	nontarget	n/a	n/a
151.0859375	n/a	38678	D	target	hit	558.5938
151.6445312	n/a	38821	rt	n/a	hit	558.5938
152.78125	n/a	39112	D	nontarget	n/a	n/a
154.3554688	n/a	39515	B	target	miss	n/a
155.9296875	n/a	39918	C	nontarget	miss	n/a
157.5039062	n/a	40321	A	nontarget	n/a	n/a
159.0742188	n/a	40723	D	nontarget	n/a	n/a
160.6328125	n/a	41122	D	nontarget	n/a	n/a
162.2070312	n/a	41525	C	nontarget	n/a	n/a
163.78125	n/a	41928	A	nontarget	n/a	n/a
165.421875	n/a	42348	A	nontarget	n/a	n/a
167.0625	n/a	42768	A	nontarget	n/a	n/a
168.6328125	n/a	43170	B	nontarget	n/a	n/a
170.2070312	n/a	43573	C	nontarget	n/a	n/a
171.78125	n/a	43976	A	target	miss	n/a
173.3554688	n/a	44379	D	nontarget	miss	n/a
174.9296875	n/a	44782	D	nontarget	n/a	n/a
176.5	n/a	45184	D	nontarget	n/a	n/a
178.0625	n/a	45584	A	nontarget	n/a	n/a
179.6328125	n/a	45986	D	target	hit	554.6875
180.1875	n/a	46128	rt	n/a	hit	554.6875
181.2070312	n/a	46389	C	nontarget	n/a	n/a
182.78125	n/a	46792	A	target	miss	n/a
184.3554688	n/a	47195	A	nontarget	miss	n/a
185.9296875	n/a	47598	A	nontarget	n/a	n/a
187.5	n/a	48000	A	target	miss	n/a
189.0742188	n/a	48403	A	target	hit	472.6562
189.546875	n/a	48524	rt	n/a	hit	472.6562
190.6484375	n/a	48806	B	nontarget	n/a	n/a
192.2226562	n/a	49209	D	nontarget	n/a	n/a
193.7929688	n/a	49611	D	nontarget	n/a	n/a
195.4257812	n/a	50029	C	nontarget	n/a	n/a
197.0585938	n/a	50447	D	target	miss	n/a
198.6210938	n/a	50847	C	nontarget	miss	n/a
200.1796875	n/a	51246	D	nontarget	n/a	n/a
201.7382812	n/a	51645	B	nontarget	n/a	n/a
203.3007812	n/a	52045	B	nontarget	n/a	n/a
204.8632812	n/a	52445	B	nontarget	n/a	n/a
206.421875	n/a	52844	A	nontarget	n/a	n/a
207.9804688	n/a	53243	D	nontarget	n/a	n/a
209.5546875	n/a	53646	B	target	miss	n/a
211.1289062	n/a	54049	B	nontarget	miss	n/a
212.6992188	n/a	54451	A	nontarget	n/a	n/a
214.2734375	n/a	54854	C	nontarget	n/a	n/a
215.8476562	n/a	55257	C	nontarget	n/a	n/a
217.4179688	n/a	55659	A	target	hit	394.5312
217.8125	n/a	55760	rt	n/a	hit	394.5312
218.9804688	n/a	56059	D	nontarget	n/a	n/a
220.5664062	n/a	56465	A	nontarget	n/a	n/a
222.140625	n/a	56868	B	nontarget	n/a	n/a
223.7148438	n/a	57271	D	target	miss	n/a
225.2851562	n/a	57673	A	target	miss	n/a
226.9414062	n/a	58097	D	nontarget	miss	n/a
228.5117188	n/a	58499	B	nontarget	n/a	n/a
230.2070312	n/a	58933	A	target	miss	n/a
231.78125	n/a	59336	D	target	hit	417.9688
232.1992188	n/a	59443	rt	n/a	hit	417.9688
233.3515625	n/a	59738	B	target	miss	n/a
234.9257812	n/a	60141	B	nontarget	miss	n/a
236.5507812	n/a	60557	B	nontarget	n/a	n/a
238.1289062	n/a	60961	D	nontarget	n/a	n/a
239.6992188	n/a	61363	B	target	miss	n/a
241.2734375	n/a	61766	C	nontarget	miss	n/a
242.8984375	n/a	62182	C	nontarget	n/a	n/a
244.4726562	n/a	62585	C	nontarget	n/a	n/a
246.046875	n/a	62988	B	nontarget	false_alarm	933.5938
246.9804688	n/a	63227	rt	n/a	false_alarm	933.5938
247.6054688	n/a	63387	D	nontarget	n/a	n/a
249.2304688	n/a	63803	A	nontarget	n/a	n/a
250.8085938	n/a	64207	A	nontarget	n/a	n/a
252.421875	n/a	64620	A	nontarget	n/a	n/a
253.9921875	n/a	65022	A	target	miss	n/a
255.6171875	n/a	65438	B	nontarget	miss	n/a
257.1914062	n/a	65841	A	target	miss	n/a
258.765625	n/a	66244	B	nontarget	miss	n/a
260.3398438	n/a	66647	B	target	hit	476.5625
260.8164062	n/a	66769	rt	n/a	hit	476.5625
261.9140625	n/a	67050	A	target	miss	n/a
263.5	n/a	67456	C	nontarget	miss	n/a
265.125	n/a	67872	D	nontarget	n/a	n/a
266.7109375	n/a	68278	A	target	miss	n/a
268.2851562	n/a	68681	A	nontarget	miss	n/a
269.859375	n/a	69084	B	nontarget	n/a	n/a
271.4335938	n/a	69487	C	nontarget	n/a	n/a
273.0039062	n/a	69889	C	nontarget	n/a	n/a
274.578125	n/a	70292	B	target	hit	445.3125
275.0234375	n/a	70406	rt	n/a	hit	445.3125
276.1640625	n/a	70698	C	target	miss	n/a
277.7382812	n/a	71101	D	nontarget	miss	n/a
279.421875	n/a	71532	A	nontarget	n/a	n/a
281.0585938	n/a	71951	A	nontarget	n/a	n/a
282.6328125	n/a	72354	B	nontarget	n/a	n/a
284.2070312	n/a	72757	B	nontarget	n/a	n/a
285.7929688	n/a	73163	A	target	miss	n/a
287.3671875	n/a	73566	B	target	miss	n/a
288.9375	n/a	73968	A	nontarget	miss	n/a
290.5117188	n/a	74371	A	target	miss	n/a
292.0859375	n/a	74774	D	nontarget	miss	n/a
293.65625	n/a	75176	A	target	hit	453.125
294.109375	n/a	75292	rt	n/a	hit	453.125
295.234375	n/a	75580	D	nontarget	n/a	n/a
296.8046875	n/a	75982	D	target	miss	n/a
298.3789062	n/a	76385	D	nontarget	miss	n/a
299.953125	n/a	76788	A	nontarget	n/a	n/a
301.5234375	n/a	77190	A	nontarget	n/a	n/a
303.0976562	n/a	77593	D	target	hit	441.4062
303.5390625	n/a	77706	rt	n/a	hit	441.4062
304.671875	n/a	77996	A	target	miss	n/a
306.2578125	n/a	78402	D	nontarget	miss	n/a
307.9257812	n/a	78829	A	nontarget	n/a	n/a
309.5390625	n/a	79242	D	nontarget	n/a	n/a
311.125	n/a	79648	B	nontarget	n/a	n/a
312.6992188	n/a	80051	C	nontarget	n/a	n/a
314.2695312	n/a	80453	D	target	miss	n/a
315.8476562	n/a	80857	A	nontarget	miss	n/a
317.4179688	n/a	81259	D	nontarget	false_alarm	488.2812
317.90625	n/a	81384	rt	n/a	false_alarm	488.2812
319.0039062	n/a	81665	B	nontarget	n/a	n/a
320.578125	n/a	82068	A	target	miss	n/a
322.1523438	n/a	82471	C	nontarget	miss	n/a
323.7773438	n/a	82887	D	nontarget	n/a	n/a
325.3515625	n/a	83290	C	nontarget	n/a	n/a
326.9765625	n/a	83706	C	target	hit	445.3125
327.421875	n/a	83820	rt	n/a	hit	445.3125
328.5507812	n/a	84109	D	target	miss	n/a
330.125	n/a	84512	D	nontarget	miss	n/a
331.75	n/a	84928	C	target	hit	453.125
332.203125	n/a	85044	rt	n/a	hit	453.125
333.4140625	n/a	85354	D	target	miss	n/a
335.0546875	n/a	85774	C	nontarget	miss	n/a
336.6171875	n/a	86174	B	nontarget	n/a	n/a
338.1914062	n/a	86577	C	nontarget	n/a	n/a
339.765625	n/a	86980	A	nontarget	n/a	n/a
341.3359375	n/a	87382	A	nontarget	n/a	n/a
342.9101562	n/a	87785	D	nontarget	n/a	n/a
344.484375	n/a	88188	B	nontarget	n/a	n/a
346.0546875	n/a	88590	C	nontarget	n/a	n/a
347.6171875	n/a	88990	D	target	miss	n/a
349.1757812	n/a	89389	A	nontarget	miss	n/a
350.7382812	n/a	89789	C	target	hit	433.5938
351.171875	n/a	89900	rt	n/a	hit	433.5938
352.3085938	n/a	90191	C	nontarget	n/a	n/a
353.8828125	n/a	90594	A	target	miss	n/a
355.4570312	n/a	90997	C	target	hit	457.0312
355.9140625	n/a	91114	rt	n/a	hit	457.0312
357.03125	n/a	91400	A	nontarget	n/a	n/a
358.65625	n/a	91816	A	target	miss	n/a
360.2304688	n/a	92219	C	target	hit	472.6562
360.703125	n/a	92340	rt	n/a	hit	472.6562
361.8046875	n/a	92622	C	nontarget	n/a	n/a
363.4140625	n/a	93034	B	nontarget	n/a	n/a
365.0546875	n/a	93454	C	target	hit	476.5625
365.53125	n/a	93576	rt	n/a	hit	476.5625
366.6289062	n/a	93857	D	nontarget	n/a	n/a
368.203125	n/a	94260	C	nontarget	n/a	n/a
369.7773438	n/a	94663	D	nontarget	n/a	n/a
371.3476562	n/a	95065	D	target	miss	n/a
372.921875	n/a	95468	A	nontarget	miss	n/a
374.4960938	n/a	95871	C	nontarget	n/a	n/a
376.0820312	n/a	96277	B	nontarget	n/a	n/a
377.65625	n/a	96680	B	nontarget	n/a	n/a
379.2304688	n/a	97083	A	nontarget	n/a	n/a
380.8007812	n/a	97485	D	nontarget	n/a	n/a
382.375	n/a	97888	A	nontarget	n/a	n/a
383.9609375	n/a	98294	D	nontarget	n/a	n/a
385.5351562	n/a	98697	D	target	miss	n/a
387.109375	n/a	99100	A	target	miss	n/a
388.734375	n/a	99516	A	nontarget	miss	n/a
390.4140625	n/a	99946	A	nontarget	n/a	n/a
392.0429688	n/a	100363	C	nontarget	n/a	n/a
393.6171875	n/a	100766	A	target	miss	n/a
395.1875	n/a	101168	C	nontarget	miss	n/a
396.7617188	n/a	101571	B	nontarget	n/a	n/a
398.3359375	n/a	101974	C	nontarget	n/a	n/a
399.9101562	n/a	102377	D	nontarget	n/a	n/a
401.4960938	n/a	102783	A	nontarget	n/a	n/a
403.0703125	n/a	103186	A	nontarget	n/a	n/a
404.6445312	n/a	103589	A	nontarget	n/a	n/a
406.2148438	n/a	103991	D	nontarget	n/a	n/a
407.7890625	n/a	104394	A	target	miss	n/a
409.3632812	n/a	104797	B	nontarget	miss	n/a
410.921875	n/a	105196	B	nontarget	n/a	n/a
412.546875	n/a	105612	B	nontarget	n/a	n/a
414.125	n/a	106016	D	nontarget	n/a	n/a
415.7070312	n/a	106421	B	target	hit	730.4688
416.4375	n/a	106608	rt	n/a	hit	730.4688
417.28125	n/a	106824	C	nontarget	n/a	n/a
418.90625	n/a	107240	A	nontarget	n/a	n/a
420.5351562	n/a	107657	D	nontarget	n/a	n/a
422.109375	n/a	108060	A	nontarget	n/a	n/a
423.6953125	n/a	108466	B	nontarget	n/a	n/a
425.2695312	n/a	108869	D	target	miss	n/a
426.8398438	n/a	109271	B	nontarget	miss	n/a
428.4140625	n/a	109674	D	nontarget	n/a	n/a
429.9882812	n/a	110077	A	nontarget	n/a	n/a
431.5625	n/a	110480	B	target	hit	1312.5
432.875	n/a	110816	rt	n/a	hit	1312.5
433.1210938	n/a	110879	D	target	miss	n/a
434.7070312	n/a	111285	B	nontarget	miss	n/a
436.3359375	n/a	111702	B	target	miss	n/a
437.8945312	n/a	112101	B	nontarget	miss	n/a
439.4570312	n/a	112501	B	target	miss	n/a
441.015625	n/a	112900	B	target	miss	n/a
442.7070312	n/a	113333	D	nontarget	miss	n/a
444.28125	n/a	113736	B	target	miss	n/a
445.921875	n/a	114156	B	target	miss	n/a
447.5351562	n/a	114569	B	nontarget	miss	n/a
449.109375	n/a	114972	B	target	hit	421.875
449.53125	n/a	115080	rt	n/a	hit	421.875
450.6835938	n/a	115375	A	nontarget	n/a	n/a
452.2539062	n/a	115777	B	target	miss	n/a
453.828125	n/a	116180	A	nontarget	miss	n/a
455.4023438	n/a	116583	A	target	hit	691.4062
456.09375	n/a	116760	rt	n/a	hit	691.4062
456.9765625	n/a	116986	D	nontarget	n/a	n/a
458.5585938	n/a	117391	D	nontarget	n/a	n/a
460.1875	n/a	117808	D	nontarget	n/a	n/a
461.7460938	n/a	118207	B	nontarget	n/a	n/a
463.3203125	n/a	118610	C	nontarget	n/a	n/a
464.8945312	n/a	119013	B	nontarget	n/a	n/a
466.5742188	n/a	119443	C	nontarget	n/a	n/a
468.1484375	n/a	119846	C	target	miss	n/a
469.71875	n/a	120248	D	nontarget	miss	n/a
471.28125	n/a	120648	C	target	miss	n/a
472.9335938	n/a	121071	D	nontarget	miss	n/a
