onset	duration	sample	value	response_type	congruence	response_time	response_out_of_range	largeletter	smallletter
42.5625	n/a	10896	largeTSmallT	correct	congruent	1.9727	yes	T	T
44.53515625	n/a	11401	responseLargeT	correct	n/a	1.9727	yes	n/a	n/a
45.61328125	n/a	11677	largeHSmallH	correct	congruent	0.67188	no	H	H
46.28515625	n/a	11849	responseLargeH	correct	n/a	0.67188	no	n/a	n/a
47.36328125	n/a	12125	largeTSmallH	error	incongruent	0.48828	no	T	H
47.8515625	n/a	12250	responseLargeH	error	n/a	0.48828	no	n/a	n/a
48.921875	n/a	12524	largeHSmallT	correct	incongruent	0.82812	no	H	T
49.75	n/a	12736	responseLargeH	correct	n/a	0.82812	no	n/a	n/a
50.81640625	n/a	13009	largeTSmallH	correct	incongruent	0.66797	no	T	H
51.484375	n/a	13180	responseLargeT	correct	n/a	0.66797	no	n/a	n/a
52.546875	n/a	13452	largeTSmallH	correct	incongruent	0.67969	no	T	H
53.2265625	n/a	13626	responseLargeT	correct	n/a	0.67969	no	n/a	n/a
54.29296875	n/a	13899	largeHSmallH	correct	congruent	0.78516	no	H	H
55.078125	n/a	14100	responseLargeH	correct	n/a	0.78516	no	n/a	n/a
56.1328125	n/a	14370	largeTSmallH	correct	incongruent	0.51562	no	T	H
56.6484375	n/a	14502	responseLargeT	correct	n/a	0.51562	no	n/a	n/a
57.72265625	n/a	14777	largeHSmallT	correct	incongruent	0.5	no	H	T
58.22265625	n/a	14905	responseLargeH	correct	n/a	0.5	no	n/a	n/a
59.29296875	n/a	15179	largeTSmallT	correct	congruent	0.51562	no	T	T
59.80859375	n/a	15311	responseLargeT	correct	n/a	0.51562	no	n/a	n/a
60.8828125	n/a	15586	largeTSmallT	correct	congruent	0.69922	no	T	T
61.58203125	n/a	15765	responseLargeT	correct	n/a	0.69922	no	n/a	n/a
62.640625	n/a	16036	largeHSmallH	correct	congruent	0.55469	no	H	H
63.1953125	n/a	16178	responseLargeH	correct	n/a	0.55469	no	n/a	n/a
64.26953125	n/a	16453	largeTSmallT	correct	congruent	0.67578	no	T	T
64.9453125	n/a	16626	responseLargeT	correct	n/a	0.67578	no	n/a	n/a
66.015625	n/a	16900	largeTSmallT	correct	congruent	0.53516	no	T	T
66.55078125	n/a	17037	responseLargeT	correct	n/a	0.53516	no	n/a	n/a
67.62890625	n/a	17313	largeTSmallT	correct	congruent	0.47656	no	T	T
68.10546875	n/a	17435	responseLargeT	correct	n/a	0.47656	no	n/a	n/a
69.16015625	n/a	17705	largeTSmallT	correct	congruent	0.54297	no	T	T
69.703125	n/a	17844	responseLargeT	correct	n/a	0.54297	no	n/a	n/a
70.7734375	n/a	18118	largeHSmallT	correct	incongruent	0.49609	no	H	T
71.26953125	n/a	18245	responseLargeH	correct	n/a	0.49609	no	n/a	n/a
72.3359375	n/a	18518	largeHSmallT	correct	incongruent	0.50391	no	H	T
72.83984375	n/a	18647	responseLargeH	correct	n/a	0.50391	no	n/a	n/a
73.90625	n/a	18920	largeHSmallT	correct	incongruent	0.47266	no	H	T
74.37890625	n/a	19041	responseLargeH	correct	n/a	0.47266	no	n/a	n/a
75.453125	n/a	19316	largeTSmallT	correct	congruent	0.48438	no	T	T
75.9375	n/a	19440	responseLargeT	correct	n/a	0.48438	no	n/a	n/a
77.015625	n/a	19716	largeTSmallT	correct	congruent	0.58984	no	T	T
77.60546875	n/a	19867	responseLargeT	correct	n/a	0.58984	no	n/a	n/a
78.66796875	n/a	20139	largeTSmallT	correct	congruent	0.47266	no	T	T
79.140625	n/a	20260	responseLargeT	correct	n/a	0.47266	no	n/a	n/a
80.21484375	n/a	20535	largeHSmallT	correct	incongruent	0.55469	no	H	T
80.76953125	n/a	20677	responseLargeH	correct	n/a	0.55469	no	n/a	n/a
81.83984375	n/a	20951	largeHSmallH	correct	congruent	0.48828	no	H	H
82.328125	n/a	21076	responseLargeH	correct	n/a	0.48828	no	n/a	n/a
83.38671875	n/a	21347	largeTSmallT	correct	congruent	0.46094	no	T	T
83.84765625	n/a	21465	responseLargeT	correct	n/a	0.46094	no	n/a	n/a
84.921875	n/a	21740	largeTSmallH	correct	incongruent	0.44922	no	T	H
85.37109375	n/a	21855	responseLargeT	correct	n/a	0.44922	no	n/a	n/a
86.44140625	n/a	22129	largeTSmallT	correct	congruent	0.43359	no	T	T
86.875	n/a	22240	responseLargeT	correct	n/a	0.43359	no	n/a	n/a
87.94921875	n/a	22515	largeHSmallT	correct	incongruent	0.51562	no	H	T
88.46484375	n/a	22647	responseLargeH	correct	n/a	0.51562	no	n/a	n/a
89.53515625	n/a	22921	largeHSmallH	correct	congruent	0.45312	no	H	H
89.98828125	n/a	23037	responseLargeH	correct	n/a	0.45312	no	n/a	n/a
91.0546875	n/a	23310	largeHSmallH	correct	congruent	0.44531	no	H	H
91.5	n/a	23424	responseLargeH	correct	n/a	0.44531	no	n/a	n/a
92.57421875	n/a	23699	largeTSmallT	correct	congruent	0.47656	no	T	T
93.05078125	n/a	23821	responseLargeT	correct	n/a	0.47656	no	n/a	n/a
94.1328125	n/a	24098	largeHSmallH	correct	congruent	0.51953	no	H	H
94.65234375	n/a	24231	responseLargeH	correct	n/a	0.51953	no	n/a	n/a
95.71875	n/a	24504	largeHSmallH	correct	congruent	0.53906	no	H	H
96.2578125	n/a	24642	responseLargeH	correct	n/a	0.53906	no	n/a	n/a
97.3203125	n/a	24914	largeTSmallT	correct	congruent	0.55078	no	T	T
97.87109375	n/a	25055	responseLargeT	correct	n/a	0.55078	no	n/a	n/a
98.9453125	n/a	25330	largeHSmallT	correct	incongruent	0.53125	no	H	T
99.4765625	n/a	25466	responseLargeH	correct	n/a	0.53125	no	n/a	n/a
100.5351562	n/a	25737	largeTSmallH	correct	incongruent	0.56641	no	T	H
101.1015625	n/a	25882	responseLargeT	correct	n/a	0.56641	no	n/a	n/a
102.171875	n/a	26156	largeTSmallT	correct	congruent	0.56641	no	T	T
102.7382812	n/a	26301	responseLargeT	correct	n/a	0.56641	no	n/a	n/a
103.8125	n/a	26576	largeTSmallH	correct	incongruent	0.58984	no	T	H
104.4023438	n/a	26727	responseLargeT	correct	n/a	0.58984	no	n/a	n/a
105.46875	n/a	27000	largeTSmallH	correct	incongruent	0.51953	no	T	H
105.9882812	n/a	27133	responseLargeT	correct	n/a	0.51953	no	n/a	n/a
107.0664062	n/a	27409	largeHSmallT	correct	incongruent	0.5	no	H	T
107.5664062	n/a	27537	responseLargeH	correct	n/a	0.5	no	n/a	n/a
108.640625	n/a	27812	largeHSmallT	correct	incongruent	0.45703	no	H	T
109.0976562	n/a	27929	responseLargeH	correct	n/a	0.45703	no	n/a	n/a
110.1601562	n/a	28201	largeHSmallT	correct	incongruent	0.51953	no	H	T
110.6796875	n/a	28334	responseLargeH	correct	n/a	0.51953	no	n/a	n/a
111.7617188	n/a	28611	largeTSmallH	correct	incongruent	0.42969	no	T	H
112.1914062	n/a	28721	responseLargeT	correct	n/a	0.42969	no	n/a	n/a
113.2539062	n/a	28993	largeHSmallH	error	congruent	0.48828	no	H	H
113.7421875	n/a	29118	responseLargeT	error	n/a	0.48828	no	n/a	n/a
114.8125	n/a	29392	largeHSmallH	correct	congruent	1.082	no	H	H
115.8945312	n/a	29669	responseLargeH	correct	n/a	1.082	no	n/a	n/a
116.9609375	n/a	29942	largeHSmallT	correct	incongruent	0.52344	no	H	T
117.484375	n/a	30076	responseLargeH	correct	n/a	0.52344	no	n/a	n/a
118.5585938	n/a	30351	largeHSmallT	correct	incongruent	0.45703	no	H	T
119.015625	n/a	30468	responseLargeH	correct	n/a	0.45703	no	n/a	n/a
120.078125	n/a	30740	largeTSmallT	correct	congruent	0.62891	no	T	T
120.7070312	n/a	30901	responseLargeT	correct	n/a	0.62891	no	n/a	n/a
121.7734375	n/a	31174	largeTSmallT	correct	congruent	0.49219	no	T	T
122.265625	n/a	31300	responseLargeT	correct	n/a	0.49219	no	n/a	n/a
123.3320312	n/a	31573	largeTSmallH	correct	incongruent	0.51562	no	T	H
123.8476562	n/a	31705	responseLargeT	correct	n/a	0.51562	no	n/a	n/a
124.9179688	n/a	31979	largeHSmallH	correct	congruent	0.5625	no	H	H
125.4804688	n/a	32123	responseLargeH	correct	n/a	0.5625	no	n/a	n/a
126.546875	n/a	32396	largeTSmallH	correct	incongruent	0.53516	no	T	H
127.0820312	n/a	32533	responseLargeT	correct	n/a	0.53516	no	n/a	n/a
128.1484375	n/a	32806	largeHSmallT	correct	incongruent	0.53516	no	H	T
128.6835938	n/a	32943	responseLargeH	correct	n/a	0.53516	no	n/a	n/a
129.7578125	n/a	33218	largeTSmallH	correct	incongruent	0.57812	no	T	H
130.3359375	n/a	33366	responseLargeT	correct	n/a	0.57812	no	n/a	n/a
131.4140625	n/a	33642	largeHSmallH	correct	congruent	0.66406	no	H	H
132.078125	n/a	33812	responseLargeH	correct	n/a	0.66406	no	n/a	n/a
133.1445312	n/a	34085	largeHSmallT	correct	incongruent	0.48828	no	H	T
133.6328125	n/a	34210	responseLargeH	correct	n/a	0.48828	no	n/a	n/a
134.7070312	n/a	34485	largeHSmallH	correct	congruent	0.50391	no	H	H
135.2109375	n/a	34614	responseLargeH	correct	n/a	0.50391	no	n/a	n/a
136.28125	n/a	34888	largeHSmallT	correct	incongruent	0.5	no	H	T
136.78125	n/a	35016	responseLargeH	correct	n/a	0.5	no	n/a	n/a
137.8515625	n/a	35290	largeHSmallH	correct	congruent	0.51953	no	H	H
138.3710938	n/a	35423	responseLargeH	correct	n/a	0.51953	no	n/a	n/a
139.453125	n/a	35700	largeTSmallH	correct	incongruent	0.60938	no	T	H
140.0625	n/a	35856	responseLargeT	correct	n/a	0.60938	no	n/a	n/a
141.1328125	n/a	36130	largeHSmallT	correct	incongruent	0.48438	no	H	T
141.6171875	n/a	36254	responseLargeH	correct	n/a	0.48438	no	n/a	n/a
142.6914062	n/a	36529	largeHSmallH	correct	congruent	0.69141	no	H	H
143.3828125	n/a	36706	responseLargeH	correct	n/a	0.69141	no	n/a	n/a
144.453125	n/a	36980	largeTSmallH	correct	incongruent	0.53906	no	T	H
144.9921875	n/a	37118	responseLargeT	correct	n/a	0.53906	no	n/a	n/a
146.0664062	n/a	37393	largeHSmallT	correct	incongruent	0.54688	no	H	T
146.6132812	n/a	37533	responseLargeH	correct	n/a	0.54688	no	n/a	n/a
147.6796875	n/a	37806	largeHSmallH	correct	congruent	0.72656	no	H	H
148.40625	n/a	37992	responseLargeH	correct	n/a	0.72656	no	n/a	n/a
149.4804688	n/a	38267	largeTSmallH	correct	incongruent	0.51953	no	T	H
150	n/a	38400	responseLargeT	correct	n/a	0.51953	no	n/a	n/a
151.0664062	n/a	38673	largeHSmallT	correct	incongruent	0.53125	no	H	T
151.5976562	n/a	38809	responseLargeH	correct	n/a	0.53125	no	n/a	n/a
152.6796875	n/a	39086	largeHSmallT	correct	incongruent	0.45703	no	H	T
153.1367188	n/a	39203	responseLargeH	correct	n/a	0.45703	no	n/a	n/a
154.1992188	n/a	39475	largeTSmallT	correct	congruent	0.5	no	T	T
154.6992188	n/a	39603	responseLargeT	correct	n/a	0.5	no	n/a	n/a
155.7578125	n/a	39874	largeHSmallT	correct	incongruent	0.49609	no	H	T
156.2539062	n/a	40001	responseLargeH	correct	n/a	0.49609	no	n/a	n/a
157.3203125	n/a	40274	largeHSmallT	correct	incongruent	0.44922	no	H	T
157.7695312	n/a	40389	responseLargeH	correct	n/a	0.44922	no	n/a	n/a
158.8398438	n/a	40663	largeTSmallH	correct	incongruent	0.53906	no	T	H
159.3789062	n/a	40801	responseLargeT	correct	n/a	0.53906	no	n/a	n/a
160.4375	n/a	41072	largeTSmallT	correct	congruent	0.64062	no	T	T
161.078125	n/a	41236	responseLargeT	correct	n/a	0.64062	no	n/a	n/a
162.1445312	n/a	41509	largeHSmallT	correct	incongruent	0.55469	no	H	T
162.6992188	n/a	41651	responseLargeH	correct	n/a	0.55469	no	n/a	n/a
163.7734375	n/a	41926	largeHSmallH	correct	congruent	0.56641	no	H	H
164.3398438	n/a	42071	responseLargeH	correct	n/a	0.56641	no	n/a	n/a
165.3984375	n/a	42342	largeHSmallT	correct	incongruent	0.62109	no	H	T
166.0195312	n/a	42501	responseLargeH	correct	n/a	0.62109	no	n/a	n/a
167.09375	n/a	42776	largeHSmallH	correct	congruent	0.49609	no	H	H
167.5898438	n/a	42903	responseLargeH	correct	n/a	0.49609	no	n/a	n/a
168.6640625	n/a	43178	largeHSmallH	correct	congruent	0.49609	no	H	H
169.1601562	n/a	43305	responseLargeH	correct	n/a	0.49609	no	n/a	n/a
170.2265625	n/a	43578	largeHSmallH	correct	congruent	0.46094	no	H	H
170.6875	n/a	43696	responseLargeH	correct	n/a	0.46094	no	n/a	n/a
171.7460938	n/a	43967	largeHSmallH	correct	congruent	0.44531	no	H	H
172.1914062	n/a	44081	responseLargeH	correct	n/a	0.44531	no	n/a	n/a
173.265625	n/a	44356	largeHSmallT	correct	incongruent	0.44531	no	H	T
173.7109375	n/a	44470	responseLargeH	correct	n/a	0.44531	no	n/a	n/a
174.7851562	n/a	44745	largeHSmallH	correct	congruent	0.42578	no	H	H
175.2109375	n/a	44854	responseLargeH	correct	n/a	0.42578	no	n/a	n/a
176.2773438	n/a	45127	largeHSmallH	correct	congruent	0.41406	no	H	H
176.6914062	n/a	45233	responseLargeH	correct	n/a	0.41406	no	n/a	n/a
177.7578125	n/a	45506	largeTSmallH	correct	incongruent	0.53906	no	T	H
178.296875	n/a	45644	responseLargeT	correct	n/a	0.53906	no	n/a	n/a
179.3710938	n/a	45919	largeHSmallT	error	incongruent	0.5	no	H	T
179.8710938	n/a	46047	responseLargeT	error	n/a	0.5	no	n/a	n/a
180.9453125	n/a	46322	largeTSmallT	correct	congruent	0.65234	no	T	T
181.5976562	n/a	46489	responseLargeT	correct	n/a	0.65234	no	n/a	n/a
182.6796875	n/a	46766	largeTSmallT	correct	congruent	0.57812	no	T	T
183.2578125	n/a	46914	responseLargeT	correct	n/a	0.57812	no	n/a	n/a
184.3320312	n/a	47189	largeTSmallH	correct	incongruent	0.50391	no	T	H
184.8359375	n/a	47318	responseLargeT	correct	n/a	0.50391	no	n/a	n/a
185.90625	n/a	47592	largeTSmallH	correct	incongruent	0.46094	no	T	H
186.3671875	n/a	47710	responseLargeT	correct	n/a	0.46094	no	n/a	n/a
187.453125	n/a	47988	largeHSmallT	correct	incongruent	0.52344	no	H	T
187.9765625	n/a	48122	responseLargeH	correct	n/a	0.52344	no	n/a	n/a
189.0507812	n/a	48397	largeTSmallH	correct	incongruent	0.57031	no	T	H
189.6210938	n/a	48543	responseLargeT	correct	n/a	0.57031	no	n/a	n/a
190.6914062	n/a	48817	largeHSmallH	correct	congruent	0.51172	no	H	H
191.203125	n/a	48948	responseLargeH	correct	n/a	0.51172	no	n/a	n/a
192.265625	n/a	49220	largeTSmallH	correct	incongruent	0.69141	no	T	H
192.9570312	n/a	49397	responseLargeT	correct	n/a	0.69141	no	n/a	n/a
194.0234375	n/a	49670	largeTSmallT	correct	congruent	0.62109	no	T	T
194.6445312	n/a	49829	responseLargeT	correct	n/a	0.62109	no	n/a	n/a
195.71875	n/a	50104	largeHSmallT	correct	incongruent	0.52344	no	H	T
196.2421875	n/a	50238	responseLargeH	correct	n/a	0.52344	no	n/a	n/a
197.3046875	n/a	50510	largeTSmallT	correct	congruent	0.53516	no	T	T
197.8398438	n/a	50647	responseLargeT	correct	n/a	0.53516	no	n/a	n/a
198.9179688	n/a	50923	largeHSmallH	correct	congruent	0.67969	no	H	H
199.5976562	n/a	51097	responseLargeH	correct	n/a	0.67969	no	n/a	n/a
200.6796875	n/a	51374	largeTSmallH	correct	incongruent	0.61328	no	T	H
201.2929688	n/a	51531	responseLargeT	correct	n/a	0.61328	no	n/a	n/a
202.359375	n/a	51804	largeTSmallH	correct	incongruent	0.86719	no	T	H
203.2265625	n/a	52026	responseLargeT	correct	n/a	0.86719	no	n/a	n/a
204.2929688	n/a	52299	largeTSmallH	correct	incongruent	0.46875	no	T	H
204.7617188	n/a	52419	responseLargeT	correct	n/a	0.46875	no	n/a	n/a
205.8359375	n/a	52694	largeHSmallH	correct	congruent	0.52344	no	H	H
206.359375	n/a	52828	responseLargeH	correct	n/a	0.52344	no	n/a	n/a
207.4257812	n/a	53101	largeHSmallT	correct	incongruent	0.50391	no	H	T
207.9296875	n/a	53230	responseLargeH	correct	n/a	0.50391	no	n/a	n/a
209.0117188	n/a	53507	largeTSmallT	correct	congruent	0.57812	no	T	T
209.5898438	n/a	53655	responseLargeT	correct	n/a	0.57812	no	n/a	n/a
210.6640625	n/a	53930	largeHSmallH	correct	congruent	0.60547	no	H	H
211.2695312	n/a	54085	responseLargeH	correct	n/a	0.60547	no	n/a	n/a
212.34375	n/a	54360	largeHSmallT	correct	incongruent	0.62891	no	H	T
212.9726562	n/a	54521	responseLargeH	correct	n/a	0.62891	no	n/a	n/a
214.0390625	n/a	54794	largeHSmallH	correct	congruent	0.56641	no	H	H
214.6054688	n/a	54939	responseLargeH	correct	n/a	0.56641	no	n/a	n/a
215.6757812	n/a	55213	largeTSmallH	correct	incongruent	0.625	no	T	H
216.3007812	n/a	55373	responseLargeT	correct	n/a	0.625	no	n/a	n/a
217.3710938	n/a	55647	largeHSmallT	correct	incongruent	0.58594	no	H	T
217.9570312	n/a	55797	responseLargeH	correct	n/a	0.58594	no	n/a	n/a
219.0234375	n/a	56070	largeHSmallH	correct	congruent	0.55078	no	H	H
219.5742188	n/a	56211	responseLargeH	correct	n/a	0.55078	no	n/a	n/a
220.6367188	n/a	56483	largeHSmallH	correct	congruent	0.51562	no	H	H
221.1523438	n/a	56615	responseLargeH	correct	n/a	0.51562	no	n/a	n/a
222.2109375	n/a	56886	largeHSmallT	correct	incongruent	0.47656	no	H	T
222.6875	n/a	57008	responseLargeH	correct	n/a	0.47656	no	n/a	n/a
223.7695312	n/a	57285	largeHSmallH	correct	congruent	0.49219	no	H	H
224.2617188	n/a	57411	responseLargeH	correct	n/a	0.49219	no	n/a	n/a
225.34375	n/a	57688	largeTSmallH	correct	incongruent	0.58594	no	T	H
225.9296875	n/a	57838	responseLargeT	correct	n/a	0.58594	no	n/a	n/a
226.9960938	n/a	58111	largeHSmallH	correct	congruent	0.51562	no	H	H
227.5117188	n/a	58243	responseLargeH	correct	n/a	0.51562	no	n/a	n/a
228.5859375	n/a	58518	largeTSmallH	correct	incongruent	0.5625	no	T	H
229.1484375	n/a	58662	responseLargeT	correct	n/a	0.5625	no	n/a	n/a
230.2226562	n/a	58937	largeHSmallH	correct	congruent	0.54688	no	H	H
230.7695312	n/a	59077	responseLargeH	correct	n/a	0.54688	no	n/a	n/a
231.8515625	n/a	59354	largeTSmallH	correct	incongruent	0.58594	no	T	H
232.4375	n/a	59504	responseLargeT	correct	n/a	0.58594	no	n/a	n/a
233.515625	n/a	59780	largeTSmallH	correct	incongruent	0.65234	no	T	H
234.1679688	n/a	59947	responseLargeT	correct	n/a	0.65234	no	n/a	n/a
235.25	n/a	60224	largeHSmallH	correct	congruent	0.48828	no	H	H
235.7382812	n/a	60349	responseLargeH	correct	n/a	0.48828	no	n/a	n/a
236.8085938	n/a	60623	largeHSmallT	correct	incongruent	0.49219	no	H	T
237.3007812	n/a	60749	responseLargeH	correct	n/a	0.49219	no	n/a	n/a
238.3710938	n/a	61023	largeHSmallT	correct	incongruent	0.50391	no	H	T
238.875	n/a	61152	responseLargeH	correct	n/a	0.50391	no	n/a	n/a
239.9453125	n/a	61426	largeHSmallT	correct	incongruent	0.48047	no	H	T
240.4257812	n/a	61549	responseLargeH	correct	n/a	0.48047	no	n/a	n/a
241.5039062	n/a	61825	largeTSmallH	correct	incongruent	0.49219	no	T	H
241.9960938	n/a	61951	responseLargeT	correct	n/a	0.49219	no	n/a	n/a
243.0625	n/a	62224	largeTSmallH	correct	incongruent	0.56641	no	T	H
243.6289062	n/a	62369	responseLargeT	correct	n/a	0.56641	no	n/a	n/a
244.703125	n/a	62644	largeHSmallT	correct	incongruent	0.53516	no	H	T
245.2382812	n/a	62781	responseLargeH	correct	n/a	0.53516	no	n/a	n/a
246.3046875	n/a	63054	largeHSmallT	correct	incongruent	0.53125	no	H	T
246.8359375	n/a	63190	responseLargeH	correct	n/a	0.53125	no	n/a	n/a
247.9179688	n/a	63467	largeTSmallT	correct	congruent	0.53125	no	T	T
248.4492188	n/a	63603	responseLargeT	correct	n/a	0.53125	no	n/a	n/a
249.515625	n/a	63876	largeTSmallH	correct	incongruent	0.50391	no	T	H
250.0195312	n/a	64005	responseLargeT	correct	n/a	0.50391	no	n/a	n/a
251.0898438	n/a	64279	largeHSmallH	correct	congruent	0.52344	no	H	H
251.6132812	n/a	64413	responseLargeH	correct	n/a	0.52344	no	n/a	n/a
252.6914062	n/a	64689	largeHSmallH	correct	congruent	0.5625	no	H	H
253.2539062	n/a	64833	responseLargeH	correct	n/a	0.5625	no	n/a	n/a
254.328125	n/a	65108	largeHSmallH	correct	congruent	0.48828	no	H	H
254.8164062	n/a	65233	responseLargeH	correct	n/a	0.48828	no	n/a	n/a
255.8789062	n/a	65505	largeHSmallH	correct	congruent	0.49609	no	H	H
256.375	n/a	65632	responseLargeH	correct	n/a	0.49609	no	n/a	n/a
257.4492188	n/a	65907	largeTSmallT	correct	congruent	0.59375	no	T	T
258.0429688	n/a	66059	responseLargeT	correct	n/a	0.59375	no	n/a	n/a
259.1171875	n/a	66334	largeHSmallT	correct	incongruent	0.53516	no	H	T
259.6523438	n/a	66471	responseLargeH	correct	n/a	0.53516	no	n/a	n/a
260.7148438	n/a	66743	largeTSmallT	correct	congruent	0.53906	no	T	T
261.2539062	n/a	66881	responseLargeT	correct	n/a	0.53906	no	n/a	n/a
262.328125	n/a	67156	largeTSmallT	correct	congruent	0.58984	no	T	T
262.9179688	n/a	67307	responseLargeT	correct	n/a	0.58984	no	n/a	n/a
263.984375	n/a	67580	largeTSmallT	correct	congruent	0.52734	no	T	T
264.5117188	n/a	67715	responseLargeT	correct	n/a	0.52734	no	n/a	n/a
265.5820312	n/a	67989	largeTSmallH	correct	incongruent	0.44922	no	T	H
266.03125	n/a	68104	responseLargeT	correct	n/a	0.44922	no	n/a	n/a
267.1015625	n/a	68378	largeTSmallH	correct	incongruent	0.52344	no	T	H
267.625	n/a	68512	responseLargeT	correct	n/a	0.52344	no	n/a	n/a
268.6914062	n/a	68785	largeTSmallH	correct	incongruent	0.46484	no	T	H
269.15625	n/a	68904	responseLargeT	correct	n/a	0.46484	no	n/a	n/a
270.2226562	n/a	69177	largeHSmallH	correct	congruent	0.53906	no	H	H
270.7617188	n/a	69315	responseLargeH	correct	n/a	0.53906	no	n/a	n/a
271.8242188	n/a	69587	largeTSmallT	correct	congruent	0.43359	no	T	T
272.2578125	n/a	69698	responseLargeT	correct	n/a	0.43359	no	n/a	n/a
273.328125	n/a	69972	largeTSmallT	correct	congruent	0.73047	no	T	T
274.0585938	n/a	70159	responseLargeT	correct	n/a	0.73047	no	n/a	n/a
275.1289062	n/a	70433	largeHSmallT	correct	incongruent	0.58984	no	H	T
275.71875	n/a	70584	responseLargeH	correct	n/a	0.58984	no	n/a	n/a
276.796875	n/a	70860	largeTSmallH	correct	incongruent	0.5625	no	T	H
277.359375	n/a	71004	responseLargeT	correct	n/a	0.5625	no	n/a	n/a
278.421875	n/a	71276	largeHSmallT	correct	incongruent	0.56641	no	H	T
278.9882812	n/a	71421	responseLargeH	correct	n/a	0.56641	no	n/a	n/a
280.0625	n/a	71696	largeTSmallT	correct	congruent	0.53516	no	T	T
280.5976562	n/a	71833	responseLargeT	correct	n/a	0.53516	no	n/a	n/a
281.6757812	n/a	72109	largeTSmallT	correct	congruent	0.45312	no	T	T
282.1289062	n/a	72225	responseLargeT	correct	n/a	0.45312	no	n/a	n/a
283.1953125	n/a	72498	largeHSmallH	correct	congruent	0.53125	no	H	H
283.7265625	n/a	72634	responseLargeH	correct	n/a	0.53125	no	n/a	n/a
284.796875	n/a	72908	largeHSmallH	correct	congruent	0.52344	no	H	H
285.3203125	n/a	73042	responseLargeH	correct	n/a	0.52344	no	n/a	n/a
286.3828125	n/a	73314	largeHSmallH	correct	congruent	0.48828	no	H	H
286.8710938	n/a	73439	responseLargeH	correct	n/a	0.48828	no	n/a	n/a
287.9414062	n/a	73713	largeTSmallT	correct	congruent	0.61328	no	T	T
288.5546875	n/a	73870	responseLargeT	correct	n/a	0.61328	no	n/a	n/a
289.6210938	n/a	74143	largeTSmallT	correct	congruent	0.46484	no	T	T
290.0859375	n/a	74262	responseLargeT	correct	n/a	0.46484	no	n/a	n/a
291.15625	n/a	74536	largeHSmallH	correct	congruent	0.5625	no	H	H
291.71875	n/a	74680	responseLargeH	correct	n/a	0.5625	no	n/a	n/a
292.796875	n/a	74956	largeHSmallT	correct	incongruent	0.48438	no	H	T
293.28125	n/a	75080	responseLargeH	correct	n/a	0.48438	no	n/a	n/a
294.3554688	n/a	75355	largeTSmallT	correct	congruent	0.66016	no	T	T
295.015625	n/a	75524	responseLargeT	correct	n/a	0.66016	no	n/a	n/a
296.0898438	n/a	75799	largeTSmallH	correct	incongruent	0.43359	no	T	H
296.5234375	n/a	75910	responseLargeT	correct	n/a	0.43359	no	n/a	n/a
297.59375	n/a	76184	largeHSmallH	correct	congruent	0.55078	no	H	H
298.1445312	n/a	76325	responseLargeH	correct	n/a	0.55078	no	n/a	n/a
299.2226562	n/a	76601	largeHSmallT	correct	incongruent	0.52344	no	H	T
299.7460938	n/a	76735	responseLargeH	correct	n/a	0.52344	no	n/a	n/a
300.8085938	n/a	77007	largeTSmallH	correct	incongruent	0.51562	no	T	H
301.3242188	n/a	77139	responseLargeT	correct	n/a	0.51562	no	n/a	n/a
302.4101562	n/a	77417	largeTSmallT	correct	congruent	0.47266	no	T	T
302.8828125	n/a	77538	responseLargeT	correct	n/a	0.47266	no	n/a	n/a
303.9414062	n/a	77809	largeHSmallT	correct	incongruent	0.52344	no	H	T
304.4648438	n/a	77943	responseLargeH	correct	n/a	0.52344	no	n/a	n/a
305.5429688	n/a	78219	largeTSmallH	correct	incongruent	0.47656	no	T	H
306.0195312	n/a	78341	responseLargeT	correct	n/a	0.47656	no	n/a	n/a
307.0898438	n/a	78615	largeTSmallH	correct	incongruent	0.4375	no	T	H
307.5273438	n/a	78727	responseLargeT	correct	n/a	0.4375	no	n/a	n/a
308.59375	n/a	79000	largeTSmallT	correct	congruent	0.44922	no	T	T
309.0429688	n/a	79115	responseLargeT	correct	n/a	0.44922	no	n/a	n/a
310.1132812	n/a	79389	largeHSmallH	correct	congruent	0.55078	no	H	H
310.6640625	n/a	79530	responseLargeH	correct	n/a	0.55078	no	n/a	n/a
311.7265625	n/a	79802	largeTSmallH	correct	incongruent	0.54688	no	T	H
312.2734375	n/a	79942	responseLargeT	correct	n/a	0.54688	no	n/a	n/a
313.3398438	n/a	80215	largeHSmallH	correct	congruent	0.42969	no	H	H
313.7695312	n/a	80325	responseLargeH	correct	n/a	0.42969	no	n/a	n/a
314.8359375	n/a	80598	largeTSmallT	correct	congruent	0.41016	no	T	T
315.2460938	n/a	80703	responseLargeT	correct	n/a	0.41016	no	n/a	n/a
316.3164062	n/a	80977	largeHSmallH	correct	congruent	0.43359	no	H	H
316.75	n/a	81088	responseLargeH	correct	n/a	0.43359	no	n/a	n/a
317.8203125	n/a	81362	largeTSmallT	error	congruent	0.48828	no	T	T
318.3085938	n/a	81487	responseLargeH	error	n/a	0.48828	no	n/a	n/a
319.3828125	n/a	81762	largeTSmallT	correct	congruent	0.55078	no	T	T
319.9335938	n/a	81903	responseLargeT	correct	n/a	0.55078	no	n/a	n/a
321.0078125	n/a	82178	largeTSmallT	correct	congruent	0.51172	no	T	T
321.5195312	n/a	82309	responseLargeT	correct	n/a	0.51172	no	n/a	n/a
322.59375	n/a	82584	largeHSmallH	correct	congruent	0.58984	no	H	H
323.1835938	n/a	82735	responseLargeH	correct	n/a	0.58984	no	n/a	n/a
324.2617188	n/a	83011	largeTSmallH	correct	incongruent	0.45703	no	T	H
324.71875	n/a	83128	responseLargeT	correct	n/a	0.45703	no	n/a	n/a
325.78125	n/a	83400	largeTSmallH	correct	incongruent	0.48438	no	T	H
326.265625	n/a	83524	responseLargeT	correct	n/a	0.48438	no	n/a	n/a
327.328125	n/a	83796	largeTSmallH	correct	incongruent	0.43359	no	T	H
327.7617188	n/a	83907	responseLargeT	correct	n/a	0.43359	no	n/a	n/a
328.8359375	n/a	84182	largeTSmallT	correct	congruent	0.50781	no	T	T
329.34375	n/a	84312	responseLargeT	correct	n/a	0.50781	no	n/a	n/a
330.40625	n/a	84584	largeTSmallH	correct	incongruent	0.49609	no	T	H
330.9023438	n/a	84711	responseLargeT	correct	n/a	0.49609	no	n/a	n/a
331.96875	n/a	84984	largeTSmallT	correct	congruent	0.42969	no	T	T
332.3984375	n/a	85094	responseLargeT	correct	n/a	0.42969	no	n/a	n/a
333.4609375	n/a	85366	largeTSmallH	correct	incongruent	0.45312	no	T	H
333.9140625	n/a	85482	responseLargeT	correct	n/a	0.45312	no	n/a	n/a
334.9960938	n/a	85759	largeHSmallT	correct	incongruent	0.61719	no	H	T
335.6132812	n/a	85917	responseLargeH	correct	n/a	0.61719	no	n/a	n/a
336.6875	n/a	86192	largeHSmallT	correct	incongruent	0.52344	no	H	T
337.2109375	n/a	86326	responseLargeH	correct	n/a	0.52344	no	n/a	n/a
338.2890625	n/a	86602	largeTSmallT	correct	congruent	0.52344	no	T	T
338.8125	n/a	86736	responseLargeT	correct	n/a	0.52344	no	n/a	n/a
339.8867188	n/a	87011	largeTSmallT	correct	congruent	0.65234	no	T	T
340.5390625	n/a	87178	responseLargeT	correct	n/a	0.65234	no	n/a	n/a
341.609375	n/a	87452	largeHSmallT	correct	incongruent	0.56641	no	H	T
342.1757812	n/a	87597	responseLargeH	correct	n/a	0.56641	no	n/a	n/a
343.2460938	n/a	87871	largeTSmallT	correct	congruent	0.51953	no	T	T
343.765625	n/a	88004	responseLargeT	correct	n/a	0.51953	no	n/a	n/a
344.8359375	n/a	88278	largeHSmallT	correct	incongruent	0.60938	no	H	T
345.4453125	n/a	88434	responseLargeH	correct	n/a	0.60938	no	n/a	n/a
346.515625	n/a	88708	largeTSmallH	correct	incongruent	0.50781	no	T	H
347.0234375	n/a	88838	responseLargeT	correct	n/a	0.50781	no	n/a	n/a
348.1015625	n/a	89114	largeHSmallT	correct	incongruent	0.68359	no	H	T
348.7851562	n/a	89289	responseLargeH	correct	n/a	0.68359	no	n/a	n/a
349.859375	n/a	89564	largeHSmallH	correct	congruent	0.52734	no	H	H
350.3867188	n/a	89699	responseLargeH	correct	n/a	0.52734	no	n/a	n/a
351.4492188	n/a	89971	largeHSmallT	correct	incongruent	0.58594	no	H	T
352.0351562	n/a	90121	responseLargeH	correct	n/a	0.58594	no	n/a	n/a
353.1015625	n/a	90394	largeTSmallH	correct	incongruent	0.51562	no	T	H
353.6171875	n/a	90526	responseLargeT	correct	n/a	0.51562	no	n/a	n/a
354.6992188	n/a	90803	largeTSmallT	correct	congruent	0.46875	no	T	T
355.1679688	n/a	90923	responseLargeT	correct	n/a	0.46875	no	n/a	n/a
356.234375	n/a	91196	largeTSmallT	correct	congruent	0.52344	no	T	T
356.7578125	n/a	91330	responseLargeT	correct	n/a	0.52344	no	n/a	n/a
357.8320312	n/a	91605	largeHSmallH	correct	congruent	0.73828	no	H	H
358.5703125	n/a	91794	responseLargeH	correct	n/a	0.73828	no	n/a	n/a
359.6484375	n/a	92070	largeTSmallH	correct	incongruent	0.57031	no	T	H
360.21875	n/a	92216	responseLargeT	correct	n/a	0.57031	no	n/a	n/a
361.3007812	n/a	92493	largeTSmallT	correct	congruent	0.46875	no	T	T
361.7695312	n/a	92613	responseLargeT	correct	n/a	0.46875	no	n/a	n/a
362.8320312	n/a	92885	largeHSmallT	correct	incongruent	0.69141	no	H	T
363.5234375	n/a	93062	responseLargeH	correct	n/a	0.69141	no	n/a	n/a
364.59375	n/a	93336	largeTSmallH	correct	incongruent	0.47266	no	T	H
365.0664062	n/a	93457	responseLargeT	correct	n/a	0.47266	no	n/a	n/a
374.0585938	n/a	95759	largeTSmallT	correct	congruent	0.50391	no	T	T
374.5625	n/a	95888	responseSmallT	correct	n/a	0.50391	no	n/a	n/a
375.6328125	n/a	96162	largeHSmallT	correct	incongruent	0.58594	no	H	T
376.21875	n/a	96312	responseSmallT	correct	n/a	0.58594	no	n/a	n/a
377.2851562	n/a	96585	largeHSmallT	correct	incongruent	0.45703	no	H	T
377.7421875	n/a	96702	responseSmallT	correct	n/a	0.45703	no	n/a	n/a
378.8046875	n/a	96974	largeTSmallH	correct	incongruent	0.53906	no	T	H
379.34375	n/a	97112	responseSmallH	correct	n/a	0.53906	no	n/a	n/a
380.421875	n/a	97388	largeHSmallH	correct	congruent	0.44922	no	H	H
380.8710938	n/a	97503	responseSmallH	correct	n/a	0.44922	no	n/a	n/a
381.953125	n/a	97780	largeHSmallH	correct	congruent	0.40234	no	H	H
382.3554688	n/a	97883	responseSmallH	correct	n/a	0.40234	no	n/a	n/a
383.4335938	n/a	98159	largeHSmallT	correct	incongruent	0.41406	no	H	T
383.8476562	n/a	98265	responseSmallT	correct	n/a	0.41406	no	n/a	n/a
384.9140625	n/a	98538	largeTSmallT	correct	congruent	0.5	no	T	T
385.4140625	n/a	98666	responseSmallT	correct	n/a	0.5	no	n/a	n/a
386.4882812	n/a	98941	largeTSmallH	error	incongruent	0.40625	no	T	H
386.8945312	n/a	99045	responseSmallT	error	n/a	0.40625	no	n/a	n/a
387.9648438	n/a	99319	largeHSmallT	correct	incongruent	0.62891	no	H	T
388.59375	n/a	99480	responseSmallT	correct	n/a	0.62891	no	n/a	n/a
389.671875	n/a	99756	largeHSmallT	correct	incongruent	0.60156	no	H	T
390.2734375	n/a	99910	responseSmallT	correct	n/a	0.60156	no	n/a	n/a
391.3398438	n/a	100183	largeTSmallH	correct	incongruent	0.46875	no	T	H
391.8085938	n/a	100303	responseSmallH	correct	n/a	0.46875	no	n/a	n/a
392.8867188	n/a	100579	largeHSmallH	correct	congruent	0.42188	no	H	H
393.3085938	n/a	100687	responseSmallH	correct	n/a	0.42188	no	n/a	n/a
394.3789062	n/a	100961	largeTSmallH	correct	incongruent	0.39062	no	T	H
394.7695312	n/a	101061	responseSmallH	correct	n/a	0.39062	no	n/a	n/a
395.8476562	n/a	101337	largeTSmallH	correct	incongruent	0.41797	no	T	H
396.265625	n/a	101444	responseSmallH	correct	n/a	0.41797	no	n/a	n/a
397.328125	n/a	101716	largeTSmallH	correct	incongruent	0.49609	no	T	H
397.8242188	n/a	101843	responseSmallH	correct	n/a	0.49609	no	n/a	n/a
398.8867188	n/a	102115	largeHSmallT	correct	incongruent	0.47266	no	H	T
399.359375	n/a	102236	responseSmallT	correct	n/a	0.47266	no	n/a	n/a
400.4335938	n/a	102511	largeHSmallH	correct	congruent	0.53906	no	H	H
400.9726562	n/a	102649	responseSmallH	correct	n/a	0.53906	no	n/a	n/a
402.03125	n/a	102920	largeTSmallT	correct	congruent	0.66797	no	T	T
402.6992188	n/a	103091	responseSmallT	correct	n/a	0.66797	no	n/a	n/a
403.78125	n/a	103368	largeTSmallT	correct	congruent	0.48828	no	T	T
404.2695312	n/a	103493	responseSmallT	correct	n/a	0.48828	no	n/a	n/a
405.3515625	n/a	103770	largeHSmallH	correct	congruent	0.49219	no	H	H
405.84375	n/a	103896	responseSmallH	correct	n/a	0.49219	no	n/a	n/a
406.9257812	n/a	104173	largeTSmallT	correct	congruent	0.58984	no	T	T
407.515625	n/a	104324	responseSmallT	correct	n/a	0.58984	no	n/a	n/a
408.59375	n/a	104600	largeTSmallH	correct	incongruent	0.48438	no	T	H
409.078125	n/a	104724	responseSmallH	correct	n/a	0.48438	no	n/a	n/a
410.1523438	n/a	104999	largeHSmallT	correct	incongruent	0.43359	no	H	T
410.5859375	n/a	105110	responseSmallT	correct	n/a	0.43359	no	n/a	n/a
411.6445312	n/a	105381	largeHSmallH	correct	congruent	0.41406	no	H	H
412.0585938	n/a	105487	responseSmallH	correct	n/a	0.41406	no	n/a	n/a
413.140625	n/a	105764	largeTSmallT	correct	congruent	0.40625	no	T	T
413.546875	n/a	105868	responseSmallT	correct	n/a	0.40625	no	n/a	n/a
414.6171875	n/a	106142	largeHSmallT	error	incongruent	0.33984	no	H	T
414.9570312	n/a	106229	responseSmallH	error	n/a	0.33984	no	n/a	n/a
416.03125	n/a	106504	largeHSmallH	correct	congruent	0.80078	no	H	H
416.8320312	n/a	106709	responseSmallH	correct	n/a	0.80078	no	n/a	n/a
417.9140625	n/a	106986	largeTSmallH	correct	incongruent	0.65625	no	T	H
418.5703125	n/a	107154	responseSmallH	correct	n/a	0.65625	no	n/a	n/a
419.6445312	n/a	107429	largeTSmallT	correct	congruent	0.39844	no	T	T
420.0429688	n/a	107531	responseSmallT	correct	n/a	0.39844	no	n/a	n/a
421.125	n/a	107808	largeTSmallH	correct	incongruent	0.50781	no	T	H
421.6328125	n/a	107938	responseSmallH	correct	n/a	0.50781	no	n/a	n/a
422.6992188	n/a	108211	largeHSmallH	correct	congruent	0.66016	no	H	H
423.359375	n/a	108380	responseSmallH	correct	n/a	0.66016	no	n/a	n/a
424.4335938	n/a	108655	largeHSmallT	correct	incongruent	0.45312	no	H	T
424.8867188	n/a	108771	responseSmallT	correct	n/a	0.45312	no	n/a	n/a
425.953125	n/a	109044	largeTSmallT	correct	congruent	0.75391	no	T	T
426.7070312	n/a	109237	responseSmallT	correct	n/a	0.75391	no	n/a	n/a
427.7773438	n/a	109511	largeHSmallH	correct	congruent	0.49219	no	H	H
428.2695312	n/a	109637	responseSmallH	correct	n/a	0.49219	no	n/a	n/a
429.3398438	n/a	109911	largeHSmallT	correct	incongruent	0.49609	no	H	T
429.8359375	n/a	110038	responseSmallT	correct	n/a	0.49609	no	n/a	n/a
430.8984375	n/a	110310	largeHSmallH	correct	congruent	0.48438	no	H	H
431.3828125	n/a	110434	responseSmallH	correct	n/a	0.48438	no	n/a	n/a
432.4453125	n/a	110706	largeHSmallH	correct	congruent	0.48438	no	H	H
432.9296875	n/a	110830	responseSmallH	correct	n/a	0.48438	no	n/a	n/a
434.0039062	n/a	111105	largeTSmallT	correct	congruent	0.55859	no	T	T
434.5625	n/a	111248	responseSmallT	correct	n/a	0.55859	no	n/a	n/a
435.6328125	n/a	111522	largeTSmallT	correct	congruent	0.50391	no	T	T
436.1367188	n/a	111651	responseSmallT	correct	n/a	0.50391	no	n/a	n/a
437.2070312	n/a	111925	largeTSmallH	correct	incongruent	0.44531	no	T	H
437.6523438	n/a	112039	responseSmallH	correct	n/a	0.44531	no	n/a	n/a
438.7109375	n/a	112310	largeTSmallH	correct	incongruent	0.41797	no	T	H
439.1289062	n/a	112417	responseSmallH	correct	n/a	0.41797	no	n/a	n/a
440.1914062	n/a	112689	largeTSmallT	correct	congruent	0.61328	no	T	T
440.8046875	n/a	112846	responseSmallT	correct	n/a	0.61328	no	n/a	n/a
441.8710938	n/a	113119	largeHSmallH	correct	congruent	0.48047	no	H	H
442.3515625	n/a	113242	responseSmallH	correct	n/a	0.48047	no	n/a	n/a
443.4335938	n/a	113519	largeHSmallH	correct	congruent	0.52344	no	H	H
443.9570312	n/a	113653	responseSmallH	correct	n/a	0.52344	no	n/a	n/a
445.03125	n/a	113928	largeHSmallT	error	incongruent	0.43359	no	H	T
445.4648438	n/a	114039	responseSmallH	error	n/a	0.43359	no	n/a	n/a
446.5390625	n/a	114314	largeTSmallT	correct	congruent	0.48047	no	T	T
447.0195312	n/a	114437	responseSmallT	correct	n/a	0.48047	no	n/a	n/a
448.0976562	n/a	114713	largeHSmallH	correct	congruent	0.47656	no	H	H
448.5742188	n/a	114835	responseSmallH	correct	n/a	0.47656	no	n/a	n/a
449.6601562	n/a	115113	largeTSmallH	correct	incongruent	0.45703	no	T	H
450.1171875	n/a	115230	responseSmallH	correct	n/a	0.45703	no	n/a	n/a
451.1796875	n/a	115502	largeTSmallT	correct	congruent	0.44141	no	T	T
451.6210938	n/a	115615	responseSmallT	correct	n/a	0.44141	no	n/a	n/a
452.6992188	n/a	115891	largeHSmallH	correct	congruent	0.48047	no	H	H
453.1796875	n/a	116014	responseSmallH	correct	n/a	0.48047	no	n/a	n/a
454.2578125	n/a	116290	largeTSmallT	correct	congruent	0.39844	no	T	T
454.65625	n/a	116392	responseSmallT	correct	n/a	0.39844	no	n/a	n/a
455.7265625	n/a	116666	largeHSmallH	correct	congruent	0.45703	no	H	H
456.1835938	n/a	116783	responseSmallH	correct	n/a	0.45703	no	n/a	n/a
457.2460938	n/a	117055	largeTSmallT	correct	congruent	0.39844	no	T	T
457.6445312	n/a	117157	responseSmallT	correct	n/a	0.39844	no	n/a	n/a
458.7109375	n/a	117430	largeTSmallH	correct	incongruent	0.45312	no	T	H
459.1640625	n/a	117546	responseSmallH	correct	n/a	0.45312	no	n/a	n/a
460.2304688	n/a	117819	largeTSmallH	correct	incongruent	0.51953	no	T	H
460.75	n/a	117952	responseSmallH	correct	n/a	0.51953	no	n/a	n/a
461.8164062	n/a	118225	largeTSmallH	correct	incongruent	0.44531	no	T	H
462.2617188	n/a	118339	responseSmallH	correct	n/a	0.44531	no	n/a	n/a
463.3398438	n/a	118615	largeHSmallT	correct	incongruent	0.44141	no	H	T
463.78125	n/a	118728	responseSmallT	correct	n/a	0.44141	no	n/a	n/a
464.84375	n/a	119000	largeHSmallT	correct	incongruent	0.53906	no	H	T
465.3828125	n/a	119138	responseSmallT	correct	n/a	0.53906	no	n/a	n/a
466.4570312	n/a	119413	largeHSmallH	correct	congruent	0.46875	no	H	H
466.9257812	n/a	119533	responseSmallH	correct	n/a	0.46875	no	n/a	n/a
468.0039062	n/a	119809	largeHSmallT	correct	incongruent	0.61719	no	H	T
468.6210938	n/a	119967	responseSmallT	correct	n/a	0.61719	no	n/a	n/a
469.6992188	n/a	120243	largeHSmallT	correct	incongruent	0.51172	no	H	T
470.2109375	n/a	120374	responseSmallT	correct	n/a	0.51172	no	n/a	n/a
471.2695312	n/a	120645	largeTSmallT	correct	congruent	0.50781	no	T	T
471.7773438	n/a	120775	responseSmallT	correct	n/a	0.50781	no	n/a	n/a
472.84375	n/a	121048	largeTSmallT	correct	congruent	0.45312	no	T	T
473.296875	n/a	121164	responseSmallT	correct	n/a	0.45312	no	n/a	n/a
474.3632812	n/a	121437	largeHSmallH	correct	congruent	0.53516	no	H	H
474.8984375	n/a	121574	responseSmallH	correct	n/a	0.53516	no	n/a	n/a
475.9765625	n/a	121850	largeHSmallH	correct	congruent	0.53906	no	H	H
476.515625	n/a	121988	responseSmallH	correct	n/a	0.53906	no	n/a	n/a
477.5898438	n/a	122263	largeTSmallH	correct	incongruent	0.51562	no	T	H
478.1054688	n/a	122395	responseSmallH	correct	n/a	0.51562	no	n/a	n/a
479.1640625	n/a	122666	largeTSmallH	correct	incongruent	0.42969	no	T	H
479.59375	n/a	122776	responseSmallH	correct	n/a	0.42969	no	n/a	n/a
480.671875	n/a	123052	largeTSmallH	correct	incongruent	0.47266	no	T	H
481.1445312	n/a	123173	responseSmallH	correct	n/a	0.47266	no	n/a	n/a
482.203125	n/a	123444	largeTSmallH	correct	incongruent	0.44922	no	T	H
482.6523438	n/a	123559	responseSmallH	correct	n/a	0.44922	no	n/a	n/a
483.7226562	n/a	123833	largeTSmallH	correct	incongruent	0.46094	no	T	H
484.1835938	n/a	123951	responseSmallH	correct	n/a	0.46094	no	n/a	n/a
485.2578125	n/a	124226	largeTSmallT	correct	congruent	0.58594	no	T	T
485.84375	n/a	124376	responseSmallT	correct	n/a	0.58594	no	n/a	n/a
486.9101562	n/a	124649	largeHSmallH	correct	congruent	0.53906	no	H	H
487.4492188	n/a	124787	responseSmallH	correct	n/a	0.53906	no	n/a	n/a
488.5234375	n/a	125062	largeTSmallT	correct	congruent	0.71484	no	T	T
489.2382812	n/a	125245	responseSmallT	correct	n/a	0.71484	no	n/a	n/a
490.3125	n/a	125520	largeHSmallH	correct	congruent	0.48828	no	H	H
490.8007812	n/a	125645	responseSmallH	correct	n/a	0.48828	no	n/a	n/a
491.8710938	n/a	125919	largeHSmallT	correct	incongruent	0.55078	no	H	T
492.421875	n/a	126060	responseSmallT	correct	n/a	0.55078	no	n/a	n/a
493.484375	n/a	126332	largeTSmallT	correct	congruent	0.57422	no	T	T
494.0585938	n/a	126479	responseSmallT	correct	n/a	0.57422	no	n/a	n/a
495.125	n/a	126752	largeHSmallH	correct	congruent	0.48828	no	H	H
495.6132812	n/a	126877	responseSmallH	correct	n/a	0.48828	no	n/a	n/a
496.6835938	n/a	127151	largeTSmallT	correct	congruent	0.50781	no	T	T
497.1914062	n/a	127281	responseSmallT	correct	n/a	0.50781	no	n/a	n/a
498.2578125	n/a	127554	largeTSmallT	correct	congruent	0.55859	no	T	T
498.8164062	n/a	127697	responseSmallT	correct	n/a	0.55859	no	n/a	n/a
499.8828125	n/a	127970	largeTSmallT	correct	congruent	0.52734	no	T	T
500.4101562	n/a	128105	responseSmallT	correct	n/a	0.52734	no	n/a	n/a
501.46875	n/a	128376	largeTSmallH	correct	incongruent	0.66406	no	T	H
502.1328125	n/a	128546	responseSmallH	correct	n/a	0.66406	no	n/a	n/a
503.203125	n/a	128820	largeTSmallT	correct	congruent	0.49219	no	T	T
503.6953125	n/a	128946	responseSmallT	correct	n/a	0.49219	no	n/a	n/a
504.7617188	n/a	129219	largeTSmallH	correct	incongruent	0.5	no	T	H
505.2617188	n/a	129347	responseSmallH	correct	n/a	0.5	no	n/a	n/a
506.3242188	n/a	129619	largeTSmallH	correct	incongruent	0.53906	no	T	H
506.8632812	n/a	129757	responseSmallH	correct	n/a	0.53906	no	n/a	n/a
507.9375	n/a	130032	largeTSmallT	correct	congruent	0.48047	no	T	T
508.4179688	n/a	130155	responseSmallT	correct	n/a	0.48047	no	n/a	n/a
509.4960938	n/a	130431	largeHSmallT	correct	incongruent	0.54688	no	H	T
510.0429688	n/a	130571	responseSmallT	correct	n/a	0.54688	no	n/a	n/a
511.125	n/a	130848	largeTSmallH	correct	incongruent	0.47656	no	T	H
511.6015625	n/a	130970	responseSmallH	correct	n/a	0.47656	no	n/a	n/a
512.6835938	n/a	131247	largeHSmallT	correct	incongruent	0.49219	no	H	T
513.1757812	n/a	131373	responseSmallT	correct	n/a	0.49219	no	n/a	n/a
514.2578125	n/a	131650	largeHSmallH	correct	congruent	0.46484	no	H	H
514.7226562	n/a	131769	responseSmallH	correct	n/a	0.46484	no	n/a	n/a
515.8046875	n/a	132046	largeHSmallH	correct	congruent	0.50391	no	H	H
516.3085938	n/a	132175	responseSmallH	correct	n/a	0.50391	no	n/a	n/a
517.375	n/a	132448	largeHSmallH	correct	congruent	0.48828	no	H	H
517.8632812	n/a	132573	responseSmallH	correct	n/a	0.48828	no	n/a	n/a
518.9375	n/a	132848	largeTSmallH	correct	incongruent	0.47266	no	T	H
519.4101562	n/a	132969	responseSmallH	correct	n/a	0.47266	no	n/a	n/a
520.484375	n/a	133244	largeTSmallT	correct	congruent	0.55859	no	T	T
521.0429688	n/a	133387	responseSmallT	correct	n/a	0.55859	no	n/a	n/a
522.109375	n/a	133660	largeHSmallH	correct	congruent	0.52344	no	H	H
522.6328125	n/a	133794	responseSmallH	correct	n/a	0.52344	no	n/a	n/a
523.7109375	n/a	134070	largeTSmallT	correct	congruent	0.47266	no	T	T
524.1835938	n/a	134191	responseSmallT	correct	n/a	0.47266	no	n/a	n/a
525.2578125	n/a	134466	largeHSmallT	correct	incongruent	0.74219	no	H	T
526	n/a	134656	responseSmallT	correct	n/a	0.74219	no	n/a	n/a
527.0820312	n/a	134933	largeTSmallT	correct	congruent	0.60547	no	T	T
527.6875	n/a	135088	responseSmallT	correct	n/a	0.60547	no	n/a	n/a
528.7617188	n/a	135363	largeHSmallH	correct	congruent	0.50391	no	H	H
529.265625	n/a	135492	responseSmallH	correct	n/a	0.50391	no	n/a	n/a
530.3359375	n/a	135766	largeHSmallT	correct	incongruent	0.54297	no	H	T
530.8789062	n/a	135905	responseSmallT	correct	n/a	0.54297	no	n/a	n/a
531.9609375	n/a	136182	largeTSmallT	correct	congruent	0.61328	no	T	T
532.5742188	n/a	136339	responseSmallT	correct	n/a	0.61328	no	n/a	n/a
533.6445312	n/a	136613	largeHSmallT	correct	incongruent	0.48438	no	H	T
534.1289062	n/a	136737	responseSmallT	correct	n/a	0.48438	no	n/a	n/a
535.203125	n/a	137012	largeTSmallT	correct	congruent	0.47266	no	T	T
535.6757812	n/a	137133	responseSmallT	correct	n/a	0.47266	no	n/a	n/a
536.75	n/a	137408	largeTSmallT	correct	congruent	0.49609	no	T	T
537.2460938	n/a	137535	responseSmallT	correct	n/a	0.49609	no	n/a	n/a
538.3242188	n/a	137811	largeTSmallT	correct	congruent	0.41797	no	T	T
538.7421875	n/a	137918	responseSmallT	correct	n/a	0.41797	no	n/a	n/a
539.8007812	n/a	138189	largeTSmallT	correct	congruent	0.38672	no	T	T
540.1875	n/a	138288	responseSmallT	correct	n/a	0.38672	no	n/a	n/a
541.2578125	n/a	138562	largeHSmallH	correct	congruent	0.53125	no	H	H
541.7890625	n/a	138698	responseSmallH	correct	n/a	0.53125	no	n/a	n/a
542.8710938	n/a	138975	largeHSmallT	correct	incongruent	0.72266	no	H	T
543.59375	n/a	139160	responseSmallT	correct	n/a	0.72266	no	n/a	n/a
544.65625	n/a	139432	largeHSmallH	correct	congruent	0.70703	no	H	H
545.3632812	n/a	139613	responseSmallH	correct	n/a	0.70703	no	n/a	n/a
546.4296875	n/a	139886	largeTSmallT	correct	congruent	0.89062	no	T	T
547.3203125	n/a	140114	responseSmallT	correct	n/a	0.89062	no	n/a	n/a
548.390625	n/a	140388	largeHSmallH	correct	congruent	0.52344	no	H	H
548.9140625	n/a	140522	responseSmallH	correct	n/a	0.52344	no	n/a	n/a
549.9882812	n/a	140797	largeTSmallT	correct	congruent	0.49609	no	T	T
550.484375	n/a	140924	responseSmallT	correct	n/a	0.49609	no	n/a	n/a
551.5507812	n/a	141197	largeTSmallT	correct	congruent	0.46484	no	T	T
552.015625	n/a	141316	responseSmallT	correct	n/a	0.46484	no	n/a	n/a
553.0820312	n/a	141589	largeHSmallT	correct	incongruent	0.53906	no	H	T
553.6210938	n/a	141727	responseSmallT	correct	n/a	0.53906	no	n/a	n/a
554.6835938	n/a	141999	largeTSmallH	correct	incongruent	0.53516	no	T	H
555.21875	n/a	142136	responseSmallH	correct	n/a	0.53516	no	n/a	n/a
556.296875	n/a	142412	largeTSmallH	correct	incongruent	1.0078	no	T	H
557.3046875	n/a	142670	responseSmallH	correct	n/a	1.0078	no	n/a	n/a
558.375	n/a	142944	largeHSmallT	correct	incongruent	0.61719	no	H	T
558.9921875	n/a	143102	responseSmallT	correct	n/a	0.61719	no	n/a	n/a
560.0703125	n/a	143378	largeHSmallT	correct	incongruent	0.51172	no	H	T
560.5820312	n/a	143509	responseSmallT	correct	n/a	0.51172	no	n/a	n/a
561.640625	n/a	143780	largeTSmallH	correct	incongruent	0.52344	no	T	H
562.1640625	n/a	143914	responseSmallH	correct	n/a	0.52344	no	n/a	n/a
563.2421875	n/a	144190	largeHSmallT	correct	incongruent	0.40625	no	H	T
563.6484375	n/a	144294	responseSmallT	correct	n/a	0.40625	no	n/a	n/a
564.7226562	n/a	144569	largeHSmallT	correct	incongruent	0.85938	no	H	T
565.5820312	n/a	144789	responseSmallT	correct	n/a	0.85938	no	n/a	n/a
566.65625	n/a	145064	largeTSmallH	correct	incongruent	0.45312	no	T	H
567.109375	n/a	145180	responseSmallH	correct	n/a	0.45312	no	n/a	n/a
568.1875	n/a	145456	largeTSmallH	correct	incongruent	0.66016	no	T	H
568.8476562	n/a	145625	responseSmallH	correct	n/a	0.66016	no	n/a	n/a
569.9101562	n/a	145897	largeHSmallT	correct	incongruent	0.5	no	H	T
570.4101562	n/a	146025	responseSmallT	correct	n/a	0.5	no	n/a	n/a
571.4960938	n/a	146303	largeTSmallH	correct	incongruent	0.48047	no	T	H
571.9765625	n/a	146426	responseSmallH	correct	n/a	0.48047	no	n/a	n/a
573.0546875	n/a	146702	largeTSmallT	correct	congruent	0.56641	no	T	T
573.6210938	n/a	146847	responseSmallT	correct	n/a	0.56641	no	n/a	n/a
574.6835938	n/a	147119	largeHSmallT	correct	incongruent	0.46484	no	H	T
575.1484375	n/a	147238	responseSmallT	correct	n/a	0.46484	no	n/a	n/a
576.2148438	n/a	147511	largeHSmallH	correct	congruent	0.47656	no	H	H
576.6914062	n/a	147633	responseSmallH	correct	n/a	0.47656	no	n/a	n/a
577.7617188	n/a	147907	largeTSmallT	correct	congruent	0.4375	no	T	T
578.1992188	n/a	148019	responseSmallT	correct	n/a	0.4375	no	n/a	n/a
579.2695312	n/a	148293	largeHSmallH	correct	congruent	0.46094	no	H	H
579.7304688	n/a	148411	responseSmallH	correct	n/a	0.46094	no	n/a	n/a
580.8007812	n/a	148685	largeHSmallT	correct	incongruent	0.5625	no	H	T
581.3632812	n/a	148829	responseSmallT	correct	n/a	0.5625	no	n/a	n/a
582.4414062	n/a	149105	largeHSmallH	error	congruent	0.49609	no	H	H
582.9375	n/a	149232	responseSmallT	error	n/a	0.49609	no	n/a	n/a
584.015625	n/a	149508	largeHSmallH	correct	congruent	1.0586	no	H	H
585.0742188	n/a	149779	responseSmallH	correct	n/a	1.0586	no	n/a	n/a
586.1367188	n/a	150051	largeHSmallH	correct	congruent	0.5625	no	H	H
586.6992188	n/a	150195	responseSmallH	correct	n/a	0.5625	no	n/a	n/a
587.7734375	n/a	150470	largeHSmallH	correct	congruent	0.53516	no	H	H
588.3085938	n/a	150607	responseSmallH	correct	n/a	0.53516	no	n/a	n/a
589.375	n/a	150880	largeTSmallH	correct	incongruent	0.75781	no	T	H
590.1328125	n/a	151074	responseSmallH	correct	n/a	0.75781	no	n/a	n/a
591.203125	n/a	151348	largeHSmallT	correct	incongruent	0.49609	no	H	T
591.6992188	n/a	151475	responseSmallT	correct	n/a	0.49609	no	n/a	n/a
592.7617188	n/a	151747	largeHSmallH	correct	congruent	0.46875	no	H	H
593.2304688	n/a	151867	responseSmallH	correct	n/a	0.46875	no	n/a	n/a
594.2929688	n/a	152139	largeTSmallT	correct	congruent	0.46484	no	T	T
594.7578125	n/a	152258	responseSmallT	correct	n/a	0.46484	no	n/a	n/a
595.828125	n/a	152532	largeHSmallH	correct	congruent	0.38672	no	H	H
596.2148438	n/a	152631	responseSmallH	correct	n/a	0.38672	no	n/a	n/a
597.2929688	n/a	152907	largeHSmallH	correct	congruent	0.48438	no	H	H
597.7773438	n/a	153031	responseSmallH	correct	n/a	0.48438	no	n/a	n/a
598.8554688	n/a	153307	largeHSmallH	correct	congruent	0.46094	no	H	H
599.3164062	n/a	153425	responseSmallH	correct	n/a	0.46094	no	n/a	n/a
600.4023438	n/a	153703	largeHSmallT	correct	incongruent	0.57031	no	H	T
600.9726562	n/a	153849	responseSmallT	correct	n/a	0.57031	no	n/a	n/a
602.0390625	n/a	154122	largeTSmallT	correct	congruent	0.58203	no	T	T
602.6210938	n/a	154271	responseSmallT	correct	n/a	0.58203	no	n/a	n/a
603.6953125	n/a	154546	largeHSmallT	correct	incongruent	0.41406	no	H	T
604.109375	n/a	154652	responseSmallT	correct	n/a	0.41406	no	n/a	n/a
605.1875	n/a	154928	largeHSmallT	correct	incongruent	0.47656	no	H	T
605.6640625	n/a	155050	responseSmallT	correct	n/a	0.47656	no	n/a	n/a
606.7460938	n/a	155327	largeHSmallH	correct	congruent	0.45703	no	H	H
607.203125	n/a	155444	responseSmallH	correct	n/a	0.45703	no	n/a	n/a
608.265625	n/a	155716	largeTSmallT	correct	congruent	0.75781	no	T	T
609.0234375	n/a	155910	responseSmallT	correct	n/a	0.75781	no	n/a	n/a
610.09375	n/a	156184	largeHSmallH	correct	congruent	0.52734	no	H	H
610.6210938	n/a	156319	responseSmallH	correct	n/a	0.52734	no	n/a	n/a
611.6953125	n/a	156594	largeHSmallH	correct	congruent	0.50391	no	H	H
612.1992188	n/a	156723	responseSmallH	correct	n/a	0.50391	no	n/a	n/a
613.265625	n/a	156996	largeTSmallT	correct	congruent	0.48438	no	T	T
613.75	n/a	157120	responseSmallT	correct	n/a	0.48438	no	n/a	n/a
614.828125	n/a	157396	largeHSmallT	correct	incongruent	0.72656	no	H	T
615.5546875	n/a	157582	responseSmallT	correct	n/a	0.72656	no	n/a	n/a
616.6289062	n/a	157857	largeTSmallH	correct	incongruent	0.67578	no	T	H
617.3046875	n/a	158030	responseSmallH	correct	n/a	0.67578	no	n/a	n/a
618.359375	n/a	158300	largeTSmallH	correct	incongruent	0.47656	no	T	H
618.8359375	n/a	158422	responseSmallH	correct	n/a	0.47656	no	n/a	n/a
619.90625	n/a	158696	largeHSmallT	correct	incongruent	0.64844	no	H	T
620.5546875	n/a	158862	responseSmallT	correct	n/a	0.64844	no	n/a	n/a
621.6289062	n/a	159137	largeHSmallT	correct	incongruent	1.0156	no	H	T
622.6445312	n/a	159397	responseSmallT	correct	n/a	1.0156	no	n/a	n/a
623.71875	n/a	159672	largeTSmallH	correct	incongruent	0.77344	no	T	H
624.4921875	n/a	159870	responseSmallH	correct	n/a	0.77344	no	n/a	n/a
625.5585938	n/a	160143	largeTSmallT	correct	congruent	0.67578	no	T	T
626.234375	n/a	160316	responseSmallT	correct	n/a	0.67578	no	n/a	n/a
627.3085938	n/a	160591	largeHSmallT	correct	incongruent	0.74609	no	H	T
628.0546875	n/a	160782	responseSmallT	correct	n/a	0.74609	no	n/a	n/a
629.1328125	n/a	161058	largeTSmallH	correct	incongruent	0.49609	no	T	H
629.6289062	n/a	161185	responseSmallH	correct	n/a	0.49609	no	n/a	n/a
630.6953125	n/a	161458	largeHSmallH	correct	congruent	0.85938	no	H	H
631.5546875	n/a	161678	responseSmallH	correct	n/a	0.85938	no	n/a	n/a
632.625	n/a	161952	largeTSmallT	correct	congruent	0.44531	no	T	T
633.0703125	n/a	162066	responseSmallT	correct	n/a	0.44531	no	n/a	n/a
634.1484375	n/a	162342	largeHSmallH	correct	congruent	0.69141	no	H	H
634.8398438	n/a	162519	responseSmallH	correct	n/a	0.69141	no	n/a	n/a
635.921875	n/a	162796	largeTSmallT	correct	congruent	0.58203	no	T	T
636.5039062	n/a	162945	responseSmallT	correct	n/a	0.58203	no	n/a	n/a
637.5742188	n/a	163219	largeHSmallT	correct	incongruent	0.87109	no	H	T
638.4453125	n/a	163442	responseSmallT	correct	n/a	0.87109	no	n/a	n/a
639.5195312	n/a	163717	largeHSmallT	correct	incongruent	0.80078	no	H	T
640.3203125	n/a	163922	responseSmallT	correct	n/a	0.80078	no	n/a	n/a
641.3867188	n/a	164195	largeHSmallH	correct	congruent	0.64062	no	H	H
642.0273438	n/a	164359	responseSmallH	correct	n/a	0.64062	no	n/a	n/a
643.09375	n/a	164632	largeTSmallH	correct	incongruent	0.73828	no	T	H
643.8320312	n/a	164821	responseSmallH	correct	n/a	0.73828	no	n/a	n/a
644.90625	n/a	165096	largeHSmallT	correct	incongruent	0.71094	no	H	T
645.6171875	n/a	165278	responseSmallT	correct	n/a	0.71094	no	n/a	n/a
646.6914062	n/a	165553	largeTSmallH	correct	incongruent	0.47656	no	T	H
647.1679688	n/a	165675	responseSmallH	correct	n/a	0.47656	no	n/a	n/a
648.2382812	n/a	165949	largeHSmallT	correct	incongruent	0.67578	no	H	T
648.9140625	n/a	166122	responseSmallT	correct	n/a	0.67578	no	n/a	n/a
649.9882812	n/a	166397	largeTSmallH	correct	incongruent	1.418	no	T	H
651.40625	n/a	166760	responseSmallH	correct	n/a	1.418	no	n/a	n/a
652.4648438	n/a	167031	largeHSmallT	correct	incongruent	0.55078	no	H	T
653.015625	n/a	167172	responseSmallT	correct	n/a	0.55078	no	n/a	n/a
654.09375	n/a	167448	largeHSmallT	correct	incongruent	0.69531	no	H	T
654.7890625	n/a	167626	responseSmallT	correct	n/a	0.69531	no	n/a	n/a
655.8515625	n/a	167898	largeHSmallT	correct	incongruent	0.51953	no	H	T
656.3710938	n/a	168031	responseSmallT	correct	n/a	0.51953	no	n/a	n/a
657.4414062	n/a	168305	largeTSmallH	correct	incongruent	0.74609	no	T	H
658.1875	n/a	168496	responseSmallH	correct	n/a	0.74609	no	n/a	n/a
659.2539062	n/a	168769	largeHSmallT	correct	incongruent	0.57031	no	H	T
659.8242188	n/a	168915	responseSmallT	correct	n/a	0.57031	no	n/a	n/a
660.8945312	n/a	169189	largeTSmallT	correct	congruent	0.875	no	T	T
661.7695312	n/a	169413	responseSmallT	correct	n/a	0.875	no	n/a	n/a
662.8398438	n/a	169687	largeTSmallH	correct	incongruent	0.55859	no	T	H
663.3984375	n/a	169830	responseSmallH	correct	n/a	0.55859	no	n/a	n/a
664.4648438	n/a	170103	largeTSmallH	correct	incongruent	0.49219	no	T	H
664.9570312	n/a	170229	responseSmallH	correct	n/a	0.49219	no	n/a	n/a
666.0273438	n/a	170503	largeTSmallH	correct	incongruent	0.43359	no	T	H
666.4609375	n/a	170614	responseSmallH	correct	n/a	0.43359	no	n/a	n/a
667.53125	n/a	170888	largeTSmallH	correct	incongruent	0.42578	no	T	H
667.9570312	n/a	170997	responseSmallH	correct	n/a	0.42578	no	n/a	n/a
669.0273438	n/a	171271	largeHSmallT	correct	incongruent	0.49609	no	H	T
669.5234375	n/a	171398	responseSmallT	correct	n/a	0.49609	no	n/a	n/a
670.5976562	n/a	171673	largeTSmallH	correct	incongruent	0.75781	no	T	H
671.3554688	n/a	171867	responseSmallH	correct	n/a	0.75781	no	n/a	n/a
672.4257812	n/a	172141	largeHSmallT	correct	incongruent	0.52734	no	H	T
672.953125	n/a	172276	responseSmallT	correct	n/a	0.52734	no	n/a	n/a
674.0273438	n/a	172551	largeHSmallH	correct	congruent	0.42969	no	H	H
674.4570312	n/a	172661	responseSmallH	correct	n/a	0.42969	no	n/a	n/a
675.53125	n/a	172936	largeHSmallT	correct	incongruent	0.39844	no	H	T
675.9296875	n/a	173038	responseSmallT	correct	n/a	0.39844	no	n/a	n/a
676.984375	n/a	173308	largeHSmallH	correct	congruent	0.43359	no	H	H
677.4179688	n/a	173419	responseSmallH	correct	n/a	0.43359	no	n/a	n/a
678.4921875	n/a	173694	largeTSmallH	correct	incongruent	0.54688	no	T	H
679.0390625	n/a	173834	responseSmallH	correct	n/a	0.54688	no	n/a	n/a
680.1171875	n/a	174110	largeTSmallH	correct	incongruent	0.39062	no	T	H
680.5078125	n/a	174210	responseSmallH	correct	n/a	0.39062	no	n/a	n/a
681.5742188	n/a	174483	largeTSmallT	correct	congruent	0.48438	no	T	T
682.0585938	n/a	174607	responseSmallT	correct	n/a	0.48438	no	n/a	n/a
683.1171875	n/a	174878	largeTSmallT	correct	congruent	0.52344	no	T	T
683.640625	n/a	175012	responseSmallT	correct	n/a	0.52344	no	n/a	n/a
684.71875	n/a	175288	largeTSmallH	correct	incongruent	0.46484	no	T	H
685.1835938	n/a	175407	responseSmallH	correct	n/a	0.46484	no	n/a	n/a
686.2539062	n/a	175681	largeHSmallH	correct	congruent	0.48047	no	H	H
686.734375	n/a	175804	responseSmallH	correct	n/a	0.48047	no	n/a	n/a
687.796875	n/a	176076	largeHSmallT	correct	incongruent	0.71875	no	H	T
688.515625	n/a	176260	responseSmallT	correct	n/a	0.71875	no	n/a	n/a
689.5859375	n/a	176534	largeTSmallT	correct	congruent	0.50781	no	T	T
690.09375	n/a	176664	responseSmallT	correct	n/a	0.50781	no	n/a	n/a
691.171875	n/a	176940	largeTSmallH	correct	incongruent	0.48828	no	T	H
691.6601562	n/a	177065	responseSmallH	correct	n/a	0.48828	no	n/a	n/a
692.7304688	n/a	177339	largeHSmallH	correct	congruent	0.68359	no	H	H
693.4140625	n/a	177514	responseSmallH	correct	n/a	0.68359	no	n/a	n/a
694.4804688	n/a	177787	largeTSmallH	correct	incongruent	0.45703	no	T	H
694.9375	n/a	177904	responseSmallH	correct	n/a	0.45703	no	n/a	n/a
696.0117188	n/a	178179	largeTSmallT	correct	congruent	0.44922	no	T	T
696.4609375	n/a	178294	responseSmallT	correct	n/a	0.44922	no	n/a	n/a
702.71875	n/a	179896	largeTSmallH	correct	incongruent	1.1406	no	T	H
703.859375	n/a	180188	responseLargeT	correct	n/a	1.1406	no	n/a	n/a
704.9335938	n/a	180463	largeHSmallH	correct	congruent	0.57031	no	H	H
705.5039062	n/a	180609	responseLargeH	correct	n/a	0.57031	no	n/a	n/a
706.5703125	n/a	180882	largeHSmallT	error	incongruent	0.38281	no	H	T
706.953125	n/a	180980	responseLargeT	error	n/a	0.38281	no	n/a	n/a
708.0234375	n/a	181254	largeTSmallH	correct	incongruent	0.65234	no	T	H
708.6757812	n/a	181421	responseLargeT	correct	n/a	0.65234	no	n/a	n/a
709.7578125	n/a	181698	largeHSmallH	correct	congruent	0.42578	no	H	H
710.1835938	n/a	181807	responseLargeH	correct	n/a	0.42578	no	n/a	n/a
711.25	n/a	182080	largeTSmallT	error	congruent	0.44531	no	T	T
711.6953125	n/a	182194	responseLargeH	error	n/a	0.44531	no	n/a	n/a
712.7578125	n/a	182466	largeTSmallH	error	incongruent	0.51953	no	T	H
713.2773438	n/a	182599	responseLargeH	error	n/a	0.51953	no	n/a	n/a
714.359375	n/a	182876	largeHSmallT	correct	incongruent	0.59375	no	H	T
714.953125	n/a	183028	responseLargeH	correct	n/a	0.59375	no	n/a	n/a
716.0234375	n/a	183302	largeHSmallT	correct	incongruent	0.69531	no	H	T
716.71875	n/a	183480	responseLargeH	correct	n/a	0.69531	no	n/a	n/a
717.7851562	n/a	183753	largeHSmallT	correct	incongruent	0.50391	no	H	T
718.2890625	n/a	183882	responseLargeH	correct	n/a	0.50391	no	n/a	n/a
719.359375	n/a	184156	largeHSmallH	correct	congruent	0.47266	no	H	H
719.8320312	n/a	184277	responseLargeH	correct	n/a	0.47266	no	n/a	n/a
720.90625	n/a	184552	largeHSmallH	correct	congruent	0.44141	no	H	H
721.3476562	n/a	184665	responseLargeH	correct	n/a	0.44141	no	n/a	n/a
722.4257812	n/a	184941	largeTSmallH	correct	incongruent	0.50391	no	T	H
722.9296875	n/a	185070	responseLargeT	correct	n/a	0.50391	no	n/a	n/a
723.9960938	n/a	185343	largeHSmallT	correct	incongruent	0.42188	no	H	T
724.4179688	n/a	185451	responseLargeH	correct	n/a	0.42188	no	n/a	n/a
725.4921875	n/a	185726	largeHSmallT	correct	incongruent	0.51172	no	H	T
726.0039062	n/a	185857	responseLargeH	correct	n/a	0.51172	no	n/a	n/a
727.0664062	n/a	186129	largeTSmallH	correct	incongruent	0.50781	no	T	H
727.5742188	n/a	186259	responseLargeT	correct	n/a	0.50781	no	n/a	n/a
728.6367188	n/a	186531	largeTSmallT	correct	congruent	0.48828	no	T	T
729.125	n/a	186656	responseLargeT	correct	n/a	0.48828	no	n/a	n/a
730.1835938	n/a	186927	largeTSmallH	correct	incongruent	0.42578	no	T	H
730.609375	n/a	187036	responseLargeT	correct	n/a	0.42578	no	n/a	n/a
731.6914062	n/a	187313	largeHSmallT	correct	incongruent	0.44141	no	H	T
732.1328125	n/a	187426	responseLargeH	correct	n/a	0.44141	no	n/a	n/a
733.1992188	n/a	187699	largeTSmallT	correct	congruent	0.46094	no	T	T
733.6601562	n/a	187817	responseLargeT	correct	n/a	0.46094	no	n/a	n/a
734.7304688	n/a	188091	largeHSmallT	correct	incongruent	0.41016	no	H	T
735.140625	n/a	188196	responseLargeH	correct	n/a	0.41016	no	n/a	n/a
736.2109375	n/a	188470	largeTSmallT	correct	congruent	0.41797	no	T	T
736.6289062	n/a	188577	responseLargeT	correct	n/a	0.41797	no	n/a	n/a
737.6914062	n/a	188849	largeHSmallT	correct	incongruent	0.47266	no	H	T
738.1640625	n/a	188970	responseLargeH	correct	n/a	0.47266	no	n/a	n/a
739.2382812	n/a	189245	largeHSmallT	error	incongruent	0.48438	no	H	T
739.7226562	n/a	189369	responseLargeT	error	n/a	0.48438	no	n/a	n/a
740.796875	n/a	189644	largeTSmallT	correct	congruent	0.47656	no	T	T
741.2734375	n/a	189766	responseLargeT	correct	n/a	0.47656	no	n/a	n/a
742.34375	n/a	190040	largeTSmallT	correct	congruent	0.49219	no	T	T
742.8359375	n/a	190166	responseLargeT	correct	n/a	0.49219	no	n/a	n/a
743.9023438	n/a	190439	largeTSmallH	correct	incongruent	0.44922	no	T	H
744.3515625	n/a	190554	responseLargeT	correct	n/a	0.44922	no	n/a	n/a
745.4257812	n/a	190829	largeHSmallT	correct	incongruent	0.51953	no	H	T
745.9453125	n/a	190962	responseLargeH	correct	n/a	0.51953	no	n/a	n/a
747.0234375	n/a	191238	largeTSmallH	correct	incongruent	0.53906	no	T	H
747.5625	n/a	191376	responseLargeT	correct	n/a	0.53906	no	n/a	n/a
748.625	n/a	191648	largeTSmallH	correct	incongruent	0.46484	no	T	H
749.0898438	n/a	191767	responseLargeT	correct	n/a	0.46484	no	n/a	n/a
750.15625	n/a	192040	largeTSmallT	correct	congruent	0.48047	no	T	T
750.6367188	n/a	192163	responseLargeT	correct	n/a	0.48047	no	n/a	n/a
751.71875	n/a	192440	largeTSmallH	correct	incongruent	0.50391	no	T	H
752.2226562	n/a	192569	responseLargeT	correct	n/a	0.50391	no	n/a	n/a
753.2890625	n/a	192842	largeTSmallT	correct	congruent	0.48828	no	T	T
753.7773438	n/a	192967	responseLargeT	correct	n/a	0.48828	no	n/a	n/a
754.8515625	n/a	193242	largeTSmallT	correct	congruent	0.51172	no	T	T
755.3632812	n/a	193373	responseLargeT	correct	n/a	0.51172	no	n/a	n/a
756.4375	n/a	193648	largeHSmallT	correct	incongruent	0.52734	no	H	T
756.9648438	n/a	193783	responseLargeH	correct	n/a	0.52734	no	n/a	n/a
758.0351562	n/a	194057	largeHSmallH	correct	congruent	0.48828	no	H	H
758.5234375	n/a	194182	responseLargeH	correct	n/a	0.48828	no	n/a	n/a
759.5976562	n/a	194457	largeTSmallH	correct	incongruent	0.55859	no	T	H
760.15625	n/a	194600	responseLargeT	correct	n/a	0.55859	no	n/a	n/a
761.2382812	n/a	194877	largeTSmallH	correct	incongruent	0.5	no	T	H
761.7382812	n/a	195005	responseLargeT	correct	n/a	0.5	no	n/a	n/a
762.8085938	n/a	195279	largeTSmallH	correct	incongruent	0.39844	no	T	H
763.2070312	n/a	195381	responseLargeT	correct	n/a	0.39844	no	n/a	n/a
764.2773438	n/a	195655	largeTSmallT	correct	congruent	0.42969	no	T	T
764.7070312	n/a	195765	responseLargeT	correct	n/a	0.42969	no	n/a	n/a
765.7695312	n/a	196037	largeHSmallT	correct	incongruent	0.57812	no	H	T
766.3476562	n/a	196185	responseLargeH	correct	n/a	0.57812	no	n/a	n/a
767.421875	n/a	196460	largeHSmallT	correct	incongruent	0.55078	no	H	T
767.9726562	n/a	196601	responseLargeH	correct	n/a	0.55078	no	n/a	n/a
769.0507812	n/a	196877	largeTSmallT	correct	congruent	0.48047	no	T	T
769.53125	n/a	197000	responseLargeT	correct	n/a	0.48047	no	n/a	n/a
770.609375	n/a	197276	largeTSmallH	correct	incongruent	0.54297	no	T	H
771.1523438	n/a	197415	responseLargeT	correct	n/a	0.54297	no	n/a	n/a
772.2109375	n/a	197686	largeHSmallH	correct	congruent	0.5	no	H	H
772.7109375	n/a	197814	responseLargeH	correct	n/a	0.5	no	n/a	n/a
773.78125	n/a	198088	largeHSmallT	error	incongruent	0.46094	no	H	T
774.2421875	n/a	198206	responseLargeT	error	n/a	0.46094	no	n/a	n/a
775.3164062	n/a	198481	largeHSmallT	correct	incongruent	0.54297	no	H	T
775.859375	n/a	198620	responseLargeH	correct	n/a	0.54297	no	n/a	n/a
776.9296875	n/a	198894	largeTSmallT	correct	congruent	0.53906	no	T	T
777.46875	n/a	199032	responseLargeT	correct	n/a	0.53906	no	n/a	n/a
778.53125	n/a	199304	largeTSmallT	correct	congruent	0.45703	no	T	T
778.9882812	n/a	199421	responseLargeT	correct	n/a	0.45703	no	n/a	n/a
780.0625	n/a	199696	largeTSmallH	correct	incongruent	0.4375	no	T	H
780.5	n/a	199808	responseLargeT	correct	n/a	0.4375	no	n/a	n/a
781.5703125	n/a	200082	largeTSmallH	correct	incongruent	0.4375	no	T	H
782.0078125	n/a	200194	responseLargeT	correct	n/a	0.4375	no	n/a	n/a
783.078125	n/a	200468	largeHSmallT	correct	incongruent	0.46875	no	H	T
783.546875	n/a	200588	responseLargeH	correct	n/a	0.46875	no	n/a	n/a
784.6210938	n/a	200863	largeTSmallH	correct	incongruent	0.49219	no	T	H
785.1132812	n/a	200989	responseLargeT	correct	n/a	0.49219	no	n/a	n/a
786.1953125	n/a	201266	largeHSmallT	correct	incongruent	0.46484	no	H	T
786.6601562	n/a	201385	responseLargeH	correct	n/a	0.46484	no	n/a	n/a
787.7421875	n/a	201662	largeTSmallH	correct	incongruent	0.5	no	T	H
788.2421875	n/a	201790	responseLargeT	correct	n/a	0.5	no	n/a	n/a
789.3164062	n/a	202065	largeTSmallH	correct	incongruent	0.43359	no	T	H
789.75	n/a	202176	responseLargeT	correct	n/a	0.43359	no	n/a	n/a
790.8242188	n/a	202451	largeTSmallT	correct	congruent	0.43359	no	T	T
791.2578125	n/a	202562	responseLargeT	correct	n/a	0.43359	no	n/a	n/a
792.328125	n/a	202836	largeTSmallT	correct	congruent	0.44531	no	T	T
792.7734375	n/a	202950	responseLargeT	correct	n/a	0.44531	no	n/a	n/a
793.8359375	n/a	203222	largeHSmallT	correct	incongruent	0.48047	no	H	T
794.3164062	n/a	203345	responseLargeH	correct	n/a	0.48047	no	n/a	n/a
795.3828125	n/a	203618	largeHSmallT	correct	incongruent	0.47266	no	H	T
795.8554688	n/a	203739	responseLargeH	correct	n/a	0.47266	no	n/a	n/a
796.9296875	n/a	204014	largeHSmallH	correct	congruent	0.5	no	H	H
797.4296875	n/a	204142	responseLargeH	correct	n/a	0.5	no	n/a	n/a
798.5039062	n/a	204417	largeTSmallT	correct	congruent	0.48828	no	T	T
798.9921875	n/a	204542	responseLargeT	correct	n/a	0.48828	no	n/a	n/a
800.0625	n/a	204816	largeHSmallH	correct	congruent	0.45703	no	H	H
800.5195312	n/a	204933	responseLargeH	correct	n/a	0.45703	no	n/a	n/a
801.5976562	n/a	205209	largeHSmallH	correct	congruent	0.53906	no	H	H
802.1367188	n/a	205347	responseLargeH	correct	n/a	0.53906	no	n/a	n/a
803.2109375	n/a	205622	largeTSmallH	correct	incongruent	0.51562	no	T	H
803.7265625	n/a	205754	responseLargeT	correct	n/a	0.51562	no	n/a	n/a
804.8085938	n/a	206031	largeTSmallT	correct	congruent	0.44141	no	T	T
805.25	n/a	206144	responseLargeT	correct	n/a	0.44141	no	n/a	n/a
806.3164062	n/a	206417	largeTSmallT	correct	congruent	0.45703	no	T	T
806.7734375	n/a	206534	responseLargeT	correct	n/a	0.45703	no	n/a	n/a
807.8476562	n/a	206809	largeHSmallT	correct	incongruent	0.55859	no	H	T
808.40625	n/a	206952	responseLargeH	correct	n/a	0.55859	no	n/a	n/a
809.4882812	n/a	207229	largeHSmallH	correct	congruent	0.50781	no	H	H
809.9960938	n/a	207359	responseLargeH	correct	n/a	0.50781	no	n/a	n/a
811.0742188	n/a	207635	largeHSmallT	correct	incongruent	0.51562	no	H	T
811.5898438	n/a	207767	responseLargeH	correct	n/a	0.51562	no	n/a	n/a
812.6640625	n/a	208042	largeTSmallH	correct	incongruent	0.48047	no	T	H
813.1445312	n/a	208165	responseLargeT	correct	n/a	0.48047	no	n/a	n/a
814.2070312	n/a	208437	largeHSmallH	correct	congruent	0.56641	no	H	H
814.7734375	n/a	208582	responseLargeH	correct	n/a	0.56641	no	n/a	n/a
815.8476562	n/a	208857	largeHSmallH	correct	congruent	0.5	no	H	H
816.3476562	n/a	208985	responseLargeH	correct	n/a	0.5	no	n/a	n/a
817.421875	n/a	209260	largeTSmallH	error	incongruent	0.50391	no	T	H
817.9257812	n/a	209389	responseLargeH	error	n/a	0.50391	no	n/a	n/a
818.9960938	n/a	209663	largeTSmallT	correct	congruent	0.71875	no	T	T
819.7148438	n/a	209847	responseLargeT	correct	n/a	0.71875	no	n/a	n/a
820.78125	n/a	210120	largeTSmallH	correct	incongruent	0.48438	no	T	H
821.265625	n/a	210244	responseLargeT	correct	n/a	0.48438	no	n/a	n/a
822.34375	n/a	210520	largeHSmallT	correct	incongruent	0.52734	no	H	T
822.8710938	n/a	210655	responseLargeH	correct	n/a	0.52734	no	n/a	n/a
823.9414062	n/a	210929	largeHSmallH	correct	congruent	0.56641	no	H	H
824.5078125	n/a	211074	responseLargeH	correct	n/a	0.56641	no	n/a	n/a
825.5820312	n/a	211349	largeHSmallT	correct	incongruent	0.50391	no	H	T
826.0859375	n/a	211478	responseLargeH	correct	n/a	0.50391	no	n/a	n/a
827.15625	n/a	211752	largeHSmallT	correct	incongruent	0.49219	no	H	T
827.6484375	n/a	211878	responseLargeH	correct	n/a	0.49219	no	n/a	n/a
828.7148438	n/a	212151	largeHSmallH	correct	congruent	0.46484	no	H	H
829.1796875	n/a	212270	responseLargeH	correct	n/a	0.46484	no	n/a	n/a
830.25	n/a	212544	largeHSmallT	correct	incongruent	0.55859	no	H	T
830.8085938	n/a	212687	responseLargeH	correct	n/a	0.55859	no	n/a	n/a
831.8867188	n/a	212963	largeHSmallH	correct	congruent	0.48828	no	H	H
832.375	n/a	213088	responseLargeH	correct	n/a	0.48828	no	n/a	n/a
833.4492188	n/a	213363	largeTSmallT	correct	congruent	0.51953	no	T	T
833.96875	n/a	213496	responseLargeT	correct	n/a	0.51953	no	n/a	n/a
835.0351562	n/a	213769	largeTSmallT	correct	congruent	0.50781	no	T	T
835.5429688	n/a	213899	responseLargeT	correct	n/a	0.50781	no	n/a	n/a
836.609375	n/a	214172	largeTSmallT	correct	congruent	0.44922	no	T	T
837.0585938	n/a	214287	responseLargeT	correct	n/a	0.44922	no	n/a	n/a
838.1289062	n/a	214561	largeTSmallH	correct	incongruent	0.50391	no	T	H
838.6328125	n/a	214690	responseLargeT	correct	n/a	0.50391	no	n/a	n/a
839.703125	n/a	214964	largeTSmallH	correct	incongruent	0.45703	no	T	H
840.1601562	n/a	215081	responseLargeT	correct	n/a	0.45703	no	n/a	n/a
841.2226562	n/a	215353	largeHSmallT	correct	incongruent	0.61328	no	H	T
841.8359375	n/a	215510	responseLargeH	correct	n/a	0.61328	no	n/a	n/a
842.9140625	n/a	215786	largeHSmallT	correct	incongruent	0.51562	no	H	T
843.4296875	n/a	215918	responseLargeH	correct	n/a	0.51562	no	n/a	n/a
844.5	n/a	216192	largeTSmallH	correct	incongruent	0.47656	no	T	H
844.9765625	n/a	216314	responseLargeT	correct	n/a	0.47656	no	n/a	n/a
846.046875	n/a	216588	largeHSmallH	correct	congruent	0.65234	no	H	H
846.6992188	n/a	216755	responseLargeH	correct	n/a	0.65234	no	n/a	n/a
847.7695312	n/a	217029	largeTSmallT	correct	congruent	0.5	no	T	T
848.2695312	n/a	217157	responseLargeT	correct	n/a	0.5	no	n/a	n/a
849.3398438	n/a	217431	largeTSmallH	correct	incongruent	0.51172	no	T	H
849.8515625	n/a	217562	responseLargeT	correct	n/a	0.51172	no	n/a	n/a
850.9140625	n/a	217834	largeHSmallH	correct	congruent	0.61328	no	H	H
851.5273438	n/a	217991	responseLargeH	correct	n/a	0.61328	no	n/a	n/a
852.609375	n/a	218268	largeTSmallH	correct	incongruent	0.53906	no	T	H
853.1484375	n/a	218406	responseLargeT	correct	n/a	0.53906	no	n/a	n/a
854.2226562	n/a	218681	largeTSmallH	correct	incongruent	0.47266	no	T	H
854.6953125	n/a	218802	responseLargeT	correct	n/a	0.47266	no	n/a	n/a
855.7695312	n/a	219077	largeTSmallT	correct	congruent	0.46875	no	T	T
856.2382812	n/a	219197	responseLargeT	correct	n/a	0.46875	no	n/a	n/a
857.3125	n/a	219472	largeTSmallH	correct	incongruent	0.44922	no	T	H
857.7617188	n/a	219587	responseLargeT	correct	n/a	0.44922	no	n/a	n/a
858.8203125	n/a	219858	largeTSmallT	correct	congruent	0.44531	no	T	T
859.265625	n/a	219972	responseLargeT	correct	n/a	0.44531	no	n/a	n/a
860.3398438	n/a	220247	largeHSmallT	correct	incongruent	0.52734	no	H	T
860.8671875	n/a	220382	responseLargeH	correct	n/a	0.52734	no	n/a	n/a
861.9257812	n/a	220653	largeHSmallH	correct	congruent	0.48438	no	H	H
862.4101562	n/a	220777	responseLargeH	correct	n/a	0.48438	no	n/a	n/a
863.4726562	n/a	221049	largeTSmallH	correct	incongruent	0.51953	no	T	H
863.9921875	n/a	221182	responseLargeT	correct	n/a	0.51953	no	n/a	n/a
865.0625	n/a	221456	largeTSmallH	correct	incongruent	0.50391	no	T	H
865.5664062	n/a	221585	responseLargeT	correct	n/a	0.50391	no	n/a	n/a
866.6484375	n/a	221862	largeHSmallH	correct	congruent	0.53125	no	H	H
867.1796875	n/a	221998	responseLargeH	correct	n/a	0.53125	no	n/a	n/a
868.2460938	n/a	222271	largeHSmallT	correct	incongruent	0.53125	no	H	T
868.7773438	n/a	222407	responseLargeH	correct	n/a	0.53125	no	n/a	n/a
869.859375	n/a	222684	largeHSmallT	correct	incongruent	0.51172	no	H	T
870.3710938	n/a	222815	responseLargeH	correct	n/a	0.51172	no	n/a	n/a
871.4492188	n/a	223091	largeTSmallT	correct	congruent	0.58984	no	T	T
872.0390625	n/a	223242	responseLargeT	correct	n/a	0.58984	no	n/a	n/a
873.1132812	n/a	223517	largeHSmallT	correct	incongruent	0.60156	no	H	T
873.7148438	n/a	223671	responseLargeH	correct	n/a	0.60156	no	n/a	n/a
874.78125	n/a	223944	largeTSmallH	correct	incongruent	0.5625	no	T	H
875.34375	n/a	224088	responseLargeT	correct	n/a	0.5625	no	n/a	n/a
876.421875	n/a	224364	largeTSmallH	correct	incongruent	0.56641	no	T	H
876.9882812	n/a	224509	responseLargeT	correct	n/a	0.56641	no	n/a	n/a
878.0585938	n/a	224783	largeHSmallH	correct	congruent	0.52734	no	H	H
878.5859375	n/a	224918	responseLargeH	correct	n/a	0.52734	no	n/a	n/a
879.6484375	n/a	225190	largeHSmallT	correct	incongruent	0.52734	no	H	T
880.1757812	n/a	225325	responseLargeH	correct	n/a	0.52734	no	n/a	n/a
881.2460938	n/a	225599	largeTSmallT	correct	congruent	0.51172	no	T	T
881.7578125	n/a	225730	responseLargeT	correct	n/a	0.51172	no	n/a	n/a
882.8320312	n/a	226005	largeTSmallT	correct	congruent	0.50391	no	T	T
883.3359375	n/a	226134	responseLargeT	correct	n/a	0.50391	no	n/a	n/a
884.40625	n/a	226408	largeHSmallH	correct	congruent	0.50781	no	H	H
884.9140625	n/a	226538	responseLargeH	correct	n/a	0.50781	no	n/a	n/a
885.9921875	n/a	226814	largeTSmallH	correct	incongruent	0.50391	no	T	H
886.4960938	n/a	226943	responseLargeT	correct	n/a	0.50391	no	n/a	n/a
887.5664062	n/a	227217	largeHSmallH	correct	congruent	0.54688	no	H	H
888.1132812	n/a	227357	responseLargeH	correct	n/a	0.54688	no	n/a	n/a
889.1796875	n/a	227630	largeTSmallH	correct	incongruent	0.35938	no	T	H
889.5390625	n/a	227722	responseLargeT	correct	n/a	0.35938	no	n/a	n/a
890.6054688	n/a	227995	largeTSmallT	correct	congruent	0.46484	no	T	T
891.0703125	n/a	228114	responseLargeT	correct	n/a	0.46484	no	n/a	n/a
892.1523438	n/a	228391	largeHSmallH	correct	congruent	0.44922	no	H	H
892.6015625	n/a	228506	responseLargeH	correct	n/a	0.44922	no	n/a	n/a
893.671875	n/a	228780	largeTSmallT	correct	congruent	0.44922	no	T	T
894.1210938	n/a	228895	responseLargeT	correct	n/a	0.44922	no	n/a	n/a
895.1914062	n/a	229169	largeTSmallH	correct	incongruent	0.46094	no	T	H
895.6523438	n/a	229287	responseLargeT	correct	n/a	0.46094	no	n/a	n/a
896.7148438	n/a	229559	largeHSmallH	correct	congruent	0.45703	no	H	H
897.171875	n/a	229676	responseLargeH	correct	n/a	0.45703	no	n/a	n/a
898.2460938	n/a	229951	largeTSmallH	correct	incongruent	0.5	no	T	H
898.7460938	n/a	230079	responseLargeT	correct	n/a	0.5	no	n/a	n/a
899.8203125	n/a	230354	largeTSmallT	correct	congruent	0.51562	no	T	T
900.3359375	n/a	230486	responseLargeT	correct	n/a	0.51562	no	n/a	n/a
901.40625	n/a	230760	largeTSmallT	correct	congruent	0.48438	no	T	T
901.890625	n/a	230884	responseLargeT	correct	n/a	0.48438	no	n/a	n/a
902.953125	n/a	231156	largeHSmallT	correct	incongruent	0.49219	no	H	T
903.4453125	n/a	231282	responseLargeH	correct	n/a	0.49219	no	n/a	n/a
904.5117188	n/a	231555	largeHSmallH	correct	congruent	0.45703	no	H	H
904.96875	n/a	231672	responseLargeH	correct	n/a	0.45703	no	n/a	n/a
906.03125	n/a	231944	largeHSmallH	correct	congruent	0.5	no	H	H
906.53125	n/a	232072	responseLargeH	correct	n/a	0.5	no	n/a	n/a
907.6054688	n/a	232347	largeTSmallH	correct	incongruent	0.54297	no	T	H
908.1484375	n/a	232486	responseLargeT	correct	n/a	0.54297	no	n/a	n/a
909.21875	n/a	232760	largeHSmallT	correct	incongruent	0.54297	no	H	T
909.7617188	n/a	232899	responseLargeH	correct	n/a	0.54297	no	n/a	n/a
910.8320312	n/a	233173	largeHSmallH	correct	congruent	0.42969	no	H	H
911.2617188	n/a	233283	responseLargeH	correct	n/a	0.42969	no	n/a	n/a
912.3398438	n/a	233559	largeHSmallT	correct	incongruent	0.43359	no	H	T
912.7734375	n/a	233670	responseLargeH	correct	n/a	0.43359	no	n/a	n/a
913.8476562	n/a	233945	largeHSmallT	correct	incongruent	0.40625	no	H	T
914.2539062	n/a	234049	responseLargeH	correct	n/a	0.40625	no	n/a	n/a
915.328125	n/a	234324	largeHSmallT	correct	incongruent	0.39453	no	H	T
915.7226562	n/a	234425	responseLargeH	correct	n/a	0.39453	no	n/a	n/a
916.7929688	n/a	234699	largeHSmallT	correct	incongruent	0.43359	no	H	T
917.2265625	n/a	234810	responseLargeH	correct	n/a	0.43359	no	n/a	n/a
918.3007812	n/a	235085	largeTSmallH	correct	incongruent	0.57812	no	T	H
918.8789062	n/a	235233	responseLargeT	correct	n/a	0.57812	no	n/a	n/a
919.953125	n/a	235508	largeHSmallH	correct	congruent	0.44922	no	H	H
920.4023438	n/a	235623	responseLargeH	correct	n/a	0.44922	no	n/a	n/a
921.4726562	n/a	235897	largeHSmallH	correct	congruent	0.41016	no	H	H
921.8828125	n/a	236002	responseLargeH	correct	n/a	0.41016	no	n/a	n/a
922.953125	n/a	236276	largeHSmallT	correct	incongruent	0.41016	no	H	T
923.3632812	n/a	236381	responseLargeH	correct	n/a	0.41016	no	n/a	n/a
924.4453125	n/a	236658	largeTSmallH	correct	incongruent	0.55469	no	T	H
925	n/a	236800	responseLargeT	correct	n/a	0.55469	no	n/a	n/a
926.0742188	n/a	237075	largeHSmallH	correct	congruent	0.41797	no	H	H
926.4921875	n/a	237182	responseLargeH	correct	n/a	0.41797	no	n/a	n/a
927.5664062	n/a	237457	largeHSmallH	correct	congruent	0.44531	no	H	H
928.0117188	n/a	237571	responseLargeH	correct	n/a	0.44531	no	n/a	n/a
929.0859375	n/a	237846	largeHSmallH	correct	congruent	0.4375	no	H	H
929.5234375	n/a	237958	responseLargeH	correct	n/a	0.4375	no	n/a	n/a
930.59375	n/a	238232	largeHSmallH	correct	congruent	0.37891	no	H	H
930.9726562	n/a	238329	responseLargeH	correct	n/a	0.37891	no	n/a	n/a
932.03125	n/a	238600	largeHSmallH	correct	congruent	0.34766	no	H	H
932.3789062	n/a	238689	responseLargeH	correct	n/a	0.34766	no	n/a	n/a
933.4609375	n/a	238966	largeTSmallH	correct	incongruent	0.42969	no	T	H
933.890625	n/a	239076	responseLargeT	correct	n/a	0.42969	no	n/a	n/a
934.953125	n/a	239348	largeHSmallH	correct	congruent	0.41797	no	H	H
935.3710938	n/a	239455	responseLargeH	correct	n/a	0.41797	no	n/a	n/a
936.4335938	n/a	239727	largeTSmallH	correct	incongruent	0.41406	no	T	H
936.8476562	n/a	239833	responseLargeT	correct	n/a	0.41406	no	n/a	n/a
937.9140625	n/a	240106	largeTSmallT	correct	congruent	0.48438	no	T	T
938.3984375	n/a	240230	responseLargeT	correct	n/a	0.48438	no	n/a	n/a
939.4726562	n/a	240505	largeHSmallH	error	congruent	0.42969	no	H	H
939.9023438	n/a	240615	responseLargeT	error	n/a	0.42969	no	n/a	n/a
940.9804688	n/a	240891	largeTSmallT	correct	congruent	0.44141	no	T	T
941.421875	n/a	241004	responseLargeT	correct	n/a	0.44141	no	n/a	n/a
942.484375	n/a	241276	largeHSmallT	correct	incongruent	0.47656	no	H	T
942.9609375	n/a	241398	responseLargeH	correct	n/a	0.47656	no	n/a	n/a
944.03125	n/a	241672	largeTSmallH	correct	incongruent	0.49609	no	T	H
944.5273438	n/a	241799	responseLargeT	correct	n/a	0.49609	no	n/a	n/a
945.59375	n/a	242072	largeTSmallT	correct	congruent	0.63281	no	T	T
946.2265625	n/a	242234	responseLargeT	correct	n/a	0.63281	no	n/a	n/a
947.296875	n/a	242508	largeHSmallT	correct	incongruent	0.45703	no	H	T
947.7539062	n/a	242625	responseLargeH	correct	n/a	0.45703	no	n/a	n/a
948.8203125	n/a	242898	largeHSmallH	correct	congruent	0.4375	no	H	H
949.2578125	n/a	243010	responseLargeH	correct	n/a	0.4375	no	n/a	n/a
950.3398438	n/a	243287	largeHSmallH	correct	congruent	0.44141	no	H	H
950.78125	n/a	243400	responseLargeH	correct	n/a	0.44141	no	n/a	n/a
951.84375	n/a	243672	largeHSmallH	correct	congruent	0.35547	no	H	H
952.1992188	n/a	243763	responseLargeH	correct	n/a	0.35547	no	n/a	n/a
953.2734375	n/a	244038	largeHSmallT	correct	incongruent	0.35547	no	H	T
953.6289062	n/a	244129	responseLargeH	correct	n/a	0.35547	no	n/a	n/a
954.6992188	n/a	244403	largeTSmallT	correct	congruent	0.34766	no	T	T
955.046875	n/a	244492	responseLargeT	correct	n/a	0.34766	no	n/a	n/a
956.125	n/a	244768	largeTSmallH	correct	incongruent	0.48828	no	T	H
956.6132812	n/a	244893	responseLargeT	correct	n/a	0.48828	no	n/a	n/a
957.6835938	n/a	245167	largeTSmallT	correct	congruent	0.41797	no	T	T
958.1015625	n/a	245274	responseLargeT	correct	n/a	0.41797	no	n/a	n/a
959.1640625	n/a	245546	largeTSmallH	correct	incongruent	0.41406	no	T	H
959.578125	n/a	245652	responseLargeT	correct	n/a	0.41406	no	n/a	n/a
960.6445312	n/a	245925	largeHSmallH	correct	congruent	0.38281	no	H	H
961.0273438	n/a	246023	responseLargeH	correct	n/a	0.38281	no	n/a	n/a
962.0976562	n/a	246297	largeTSmallT	correct	congruent	0.47656	no	T	T
962.5742188	n/a	246419	responseLargeT	correct	n/a	0.47656	no	n/a	n/a
963.6445312	n/a	246693	largeTSmallT	error	congruent	0.35156	no	T	T
963.9960938	n/a	246783	responseLargeH	error	n/a	0.35156	no	n/a	n/a
965.0585938	n/a	247055	largeHSmallH	correct	congruent	0.41797	no	H	H
965.4765625	n/a	247162	responseLargeH	correct	n/a	0.41797	no	n/a	n/a
966.5390625	n/a	247434	largeHSmallH	correct	congruent	0.38281	no	H	H
966.921875	n/a	247532	responseLargeH	correct	n/a	0.38281	no	n/a	n/a
967.9921875	n/a	247806	largeTSmallH	error	incongruent	0.34375	no	T	H
968.3359375	n/a	247894	responseLargeH	error	n/a	0.34375	no	n/a	n/a
969.4179688	n/a	248171	largeHSmallT	correct	incongruent	0.42969	no	H	T
969.8476562	n/a	248281	responseLargeH	correct	n/a	0.42969	no	n/a	n/a
970.9101562	n/a	248553	largeHSmallT	correct	incongruent	0.48828	no	H	T
971.3984375	n/a	248678	responseLargeH	correct	n/a	0.48828	no	n/a	n/a
972.4726562	n/a	248953	largeHSmallH	correct	congruent	0.45703	no	H	H
972.9296875	n/a	249070	responseLargeH	correct	n/a	0.45703	no	n/a	n/a
974.0039062	n/a	249345	largeTSmallT	correct	congruent	0.39453	no	T	T
974.3984375	n/a	249446	responseLargeT	correct	n/a	0.39453	no	n/a	n/a
975.4726562	n/a	249721	largeTSmallH	correct	incongruent	0.42578	no	T	H
975.8984375	n/a	249830	responseLargeT	correct	n/a	0.42578	no	n/a	n/a
976.9648438	n/a	250103	largeHSmallH	correct	congruent	0.48047	no	H	H
977.4453125	n/a	250226	responseLargeH	correct	n/a	0.48047	no	n/a	n/a
978.5117188	n/a	250499	largeTSmallT	correct	congruent	0.67578	no	T	T
979.1875	n/a	250672	responseLargeT	correct	n/a	0.67578	no	n/a	n/a
980.2578125	n/a	250946	largeHSmallH	correct	congruent	0.35938	no	H	H
980.6171875	n/a	251038	responseLargeH	correct	n/a	0.35938	no	n/a	n/a
981.6992188	n/a	251315	largeTSmallT	correct	congruent	0.36719	no	T	T
982.0664062	n/a	251409	responseLargeT	correct	n/a	0.36719	no	n/a	n/a
983.1367188	n/a	251683	largeTSmallT	correct	congruent	0.48828	no	T	T
983.625	n/a	251808	responseLargeT	correct	n/a	0.48828	no	n/a	n/a
984.6835938	n/a	252079	largeHSmallH	correct	congruent	0.46484	no	H	H
985.1484375	n/a	252198	responseLargeH	correct	n/a	0.46484	no	n/a	n/a
986.21875	n/a	252472	largeTSmallT	error	congruent	0.42969	no	T	T
986.6484375	n/a	252582	responseLargeH	error	n/a	0.42969	no	n/a	n/a
987.7109375	n/a	252854	largeHSmallT	correct	incongruent	0.45312	no	H	T
988.1640625	n/a	252970	responseLargeH	correct	n/a	0.45312	no	n/a	n/a
989.2460938	n/a	253247	largeHSmallH	error	congruent	0.42188	no	H	H
989.6679688	n/a	253355	responseLargeT	error	n/a	0.42188	no	n/a	n/a
990.7382812	n/a	253629	largeTSmallH	correct	incongruent	0.55078	no	T	H
991.2890625	n/a	253770	responseLargeT	correct	n/a	0.55078	no	n/a	n/a
992.3632812	n/a	254045	largeTSmallT	correct	congruent	0.49219	no	T	T
992.8554688	n/a	254171	responseLargeT	correct	n/a	0.49219	no	n/a	n/a
993.9257812	n/a	254445	largeHSmallT	correct	incongruent	0.47656	no	H	T
994.4023438	n/a	254567	responseLargeH	correct	n/a	0.47656	no	n/a	n/a
995.4726562	n/a	254841	largeHSmallH	correct	congruent	0.49219	no	H	H
995.9648438	n/a	254967	responseLargeH	correct	n/a	0.49219	no	n/a	n/a
997.0429688	n/a	255243	largeTSmallT	correct	congruent	0.49609	no	T	T
997.5390625	n/a	255370	responseLargeT	correct	n/a	0.49609	no	n/a	n/a
998.6171875	n/a	255646	largeTSmallT	correct	congruent	0.46094	no	T	T
999.078125	n/a	255764	responseLargeT	correct	n/a	0.46094	no	n/a	n/a
1000.152344	n/a	256039	largeHSmallT	error	incongruent	0.46094	no	H	T
1000.613281	n/a	256157	responseLargeT	error	n/a	0.46094	no	n/a	n/a
1001.671875	n/a	256428	largeHSmallH	correct	congruent	0.49609	no	H	H
1002.167969	n/a	256555	responseLargeH	correct	n/a	0.49609	no	n/a	n/a
1003.230469	n/a	256827	largeTSmallT	correct	congruent	0.53125	no	T	T
1003.761719	n/a	256963	responseLargeT	correct	n/a	0.53125	no	n/a	n/a
1004.832031	n/a	257237	largeTSmallT	correct	congruent	0.44531	no	T	T
1005.277344	n/a	257351	responseLargeT	correct	n/a	0.44531	no	n/a	n/a
1006.351562	n/a	257626	largeHSmallT	correct	incongruent	0.49609	no	H	T
1006.847656	n/a	257753	responseLargeH	correct	n/a	0.49609	no	n/a	n/a
1007.910156	n/a	258025	largeTSmallT	correct	congruent	0.73438	no	T	T
1008.644531	n/a	258213	responseLargeT	correct	n/a	0.73438	no	n/a	n/a
1009.710938	n/a	258486	largeHSmallT	correct	incongruent	0.50781	no	H	T
1010.21875	n/a	258616	responseLargeH	correct	n/a	0.50781	no	n/a	n/a
1011.285156	n/a	258889	largeTSmallH	correct	incongruent	0.46484	no	T	H
1011.75	n/a	259008	responseLargeT	correct	n/a	0.46484	no	n/a	n/a
1012.816406	n/a	259281	largeHSmallH	correct	congruent	0.53516	no	H	H
1013.351562	n/a	259418	responseLargeH	correct	n/a	0.53516	no	n/a	n/a
1018.058594	n/a	260623	largeHSmallT	correct	incongruent	3.3438	yes	H	T
1021.402344	n/a	261479	responseSmallT	correct	n/a	3.3438	yes	n/a	n/a
1022.46875	n/a	261752	largeTSmallT	correct	congruent	0.65234	no	T	T
1023.121094	n/a	261919	responseSmallT	correct	n/a	0.65234	no	n/a	n/a
1024.191406	n/a	262193	largeHSmallH	correct	congruent	0.37109	no	H	H
1024.5625	n/a	262288	responseSmallH	correct	n/a	0.37109	no	n/a	n/a
1025.644531	n/a	262565	largeTSmallT	correct	congruent	1.2148	no	T	T
1026.859375	n/a	262876	responseSmallT	correct	n/a	1.2148	no	n/a	n/a
1027.921875	n/a	263148	largeTSmallT	correct	congruent	0.50781	no	T	T
1028.429688	n/a	263278	responseSmallT	correct	n/a	0.50781	no	n/a	n/a
1029.511719	n/a	263555	largeHSmallT	correct	incongruent	0.55469	no	H	T
1030.066406	n/a	263697	responseSmallT	correct	n/a	0.55469	no	n/a	n/a
1031.148438	n/a	263974	largeTSmallT	correct	congruent	0.41016	no	T	T
1031.558594	n/a	264079	responseSmallT	correct	n/a	0.41016	no	n/a	n/a
1032.628906	n/a	264353	largeHSmallT	correct	incongruent	0.42969	no	H	T
1033.058594	n/a	264463	responseSmallT	correct	n/a	0.42969	no	n/a	n/a
1034.125	n/a	264736	largeHSmallT	correct	incongruent	0.39062	no	H	T
1034.515625	n/a	264836	responseSmallT	correct	n/a	0.39062	no	n/a	n/a
1035.589844	n/a	265111	largeHSmallH	correct	congruent	0.46484	no	H	H
1036.054688	n/a	265230	responseSmallH	correct	n/a	0.46484	no	n/a	n/a
1037.125	n/a	265504	largeHSmallH	correct	congruent	0.44531	no	H	H
1037.570312	n/a	265618	responseSmallH	correct	n/a	0.44531	no	n/a	n/a
1038.644531	n/a	265893	largeHSmallT	correct	incongruent	0.49609	no	H	T
1039.140625	n/a	266020	responseSmallT	correct	n/a	0.49609	no	n/a	n/a
1040.203125	n/a	266292	largeHSmallH	correct	congruent	0.52344	no	H	H
1040.726562	n/a	266426	responseSmallH	correct	n/a	0.52344	no	n/a	n/a
1041.804688	n/a	266702	largeTSmallT	correct	congruent	0.375	no	T	T
1042.179688	n/a	266798	responseSmallT	correct	n/a	0.375	no	n/a	n/a
1043.257812	n/a	267074	largeTSmallT	correct	congruent	0.49609	no	T	T
1043.753906	n/a	267201	responseSmallT	correct	n/a	0.49609	no	n/a	n/a
1044.828125	n/a	267476	largeTSmallH	correct	incongruent	0.58594	no	T	H
1045.414062	n/a	267626	responseSmallH	correct	n/a	0.58594	no	n/a	n/a
1046.484375	n/a	267900	largeHSmallT	correct	incongruent	0.48828	no	H	T
1046.972656	n/a	268025	responseSmallT	correct	n/a	0.48828	no	n/a	n/a
1048.042969	n/a	268299	largeTSmallT	error	congruent	0.42969	no	T	T
1048.472656	n/a	268409	responseSmallH	error	n/a	0.42969	no	n/a	n/a
1049.535156	n/a	268681	largeTSmallH	correct	incongruent	0.66016	no	T	H
1050.195312	n/a	268850	responseSmallH	correct	n/a	0.66016	no	n/a	n/a
1051.269531	n/a	269125	largeTSmallT	correct	congruent	0.32812	no	T	T
1051.597656	n/a	269209	responseSmallT	correct	n/a	0.32812	no	n/a	n/a
1052.667969	n/a	269483	largeTSmallT	correct	congruent	0.71875	no	T	T
1053.386719	n/a	269667	responseSmallT	correct	n/a	0.71875	no	n/a	n/a
1054.46875	n/a	269944	largeTSmallT	correct	congruent	0.51172	no	T	T
1054.980469	n/a	270075	responseSmallT	correct	n/a	0.51172	no	n/a	n/a
1056.054688	n/a	270350	largeHSmallT	correct	incongruent	0.58984	no	H	T
1056.644531	n/a	270501	responseSmallT	correct	n/a	0.58984	no	n/a	n/a
1057.710938	n/a	270774	largeHSmallT	correct	incongruent	0.4375	no	H	T
1058.148438	n/a	270886	responseSmallT	correct	n/a	0.4375	no	n/a	n/a
1059.230469	n/a	271163	largeHSmallT	correct	incongruent	0.42578	no	H	T
1059.65625	n/a	271272	responseSmallT	correct	n/a	0.42578	no	n/a	n/a
1060.722656	n/a	271545	largeHSmallH	correct	congruent	0.44141	no	H	H
1061.164062	n/a	271658	responseSmallH	correct	n/a	0.44141	no	n/a	n/a
1062.230469	n/a	271931	largeHSmallH	correct	congruent	0.43359	no	H	H
1062.664062	n/a	272042	responseSmallH	correct	n/a	0.43359	no	n/a	n/a
1063.734375	n/a	272316	largeTSmallH	correct	incongruent	0.47266	no	T	H
1064.207031	n/a	272437	responseSmallH	correct	n/a	0.47266	no	n/a	n/a
1065.28125	n/a	272712	largeHSmallH	correct	congruent	0.42969	no	H	H
1065.710938	n/a	272822	responseSmallH	correct	n/a	0.42969	no	n/a	n/a
1066.777344	n/a	273095	largeTSmallH	correct	incongruent	0.375	no	T	H
1067.152344	n/a	273191	responseSmallH	correct	n/a	0.375	no	n/a	n/a
1068.230469	n/a	273467	largeTSmallT	correct	congruent	0.51172	no	T	T
1068.742188	n/a	273598	responseSmallT	correct	n/a	0.51172	no	n/a	n/a
1069.816406	n/a	273873	largeTSmallH	correct	incongruent	0.42969	no	T	H
1070.246094	n/a	273983	responseSmallH	correct	n/a	0.42969	no	n/a	n/a
1071.308594	n/a	274255	largeHSmallT	correct	incongruent	0.39844	no	H	T
1071.707031	n/a	274357	responseSmallT	correct	n/a	0.39844	no	n/a	n/a
1072.777344	n/a	274631	largeHSmallT	correct	incongruent	0.40234	no	H	T
1073.179688	n/a	274734	responseSmallT	correct	n/a	0.40234	no	n/a	n/a
1074.242188	n/a	275006	largeTSmallT	correct	congruent	0.44141	no	T	T
1074.683594	n/a	275119	responseSmallT	correct	n/a	0.44141	no	n/a	n/a
1075.761719	n/a	275395	largeTSmallT	correct	congruent	0.51172	no	T	T
1076.273438	n/a	275526	responseSmallT	correct	n/a	0.51172	no	n/a	n/a
1077.363281	n/a	275805	largeTSmallH	correct	incongruent	0.40625	no	T	H
1077.769531	n/a	275909	responseSmallH	correct	n/a	0.40625	no	n/a	n/a
1078.855469	n/a	276187	largeTSmallH	correct	incongruent	0.47266	no	T	H
1079.328125	n/a	276308	responseSmallH	correct	n/a	0.47266	no	n/a	n/a
1080.386719	n/a	276579	largeTSmallH	correct	incongruent	0.35938	no	T	H
1080.746094	n/a	276671	responseSmallH	correct	n/a	0.35938	no	n/a	n/a
1081.816406	n/a	276945	largeHSmallT	correct	incongruent	0.45312	no	H	T
1082.269531	n/a	277061	responseSmallT	correct	n/a	0.45312	no	n/a	n/a
1083.335938	n/a	277334	largeTSmallT	correct	congruent	0.40625	no	T	T
1083.742188	n/a	277438	responseSmallT	correct	n/a	0.40625	no	n/a	n/a
1084.800781	n/a	277709	largeHSmallT	correct	incongruent	0.54297	no	H	T
1085.34375	n/a	277848	responseSmallT	correct	n/a	0.54297	no	n/a	n/a
1086.414062	n/a	278122	largeTSmallH	correct	incongruent	0.50781	no	T	H
1086.921875	n/a	278252	responseSmallH	correct	n/a	0.50781	no	n/a	n/a
1087.988281	n/a	278525	largeTSmallT	correct	congruent	0.29688	no	T	T
1088.285156	n/a	278601	responseSmallT	correct	n/a	0.29688	no	n/a	n/a
1089.347656	n/a	278873	largeTSmallT	correct	congruent	0.46875	no	T	T
1089.816406	n/a	278993	responseSmallT	correct	n/a	0.46875	no	n/a	n/a
1090.894531	n/a	279269	largeHSmallH	correct	congruent	0.44141	no	H	H
1091.335938	n/a	279382	responseSmallH	correct	n/a	0.44141	no	n/a	n/a
1092.402344	n/a	279655	largeTSmallT	error	congruent	0.41406	no	T	T
1092.816406	n/a	279761	responseSmallH	error	n/a	0.41406	no	n/a	n/a
1093.894531	n/a	280037	largeHSmallH	correct	congruent	0.50391	no	H	H
1094.398438	n/a	280166	responseSmallH	correct	n/a	0.50391	no	n/a	n/a
1095.46875	n/a	280440	largeHSmallH	correct	congruent	0.43359	no	H	H
1095.902344	n/a	280551	responseSmallH	correct	n/a	0.43359	no	n/a	n/a
1096.976562	n/a	280826	largeTSmallH	correct	incongruent	0.56641	no	T	H
1097.542969	n/a	280971	responseSmallH	correct	n/a	0.56641	no	n/a	n/a
1098.613281	n/a	281245	largeTSmallT	correct	congruent	0.36719	no	T	T
1098.980469	n/a	281339	responseSmallT	correct	n/a	0.36719	no	n/a	n/a
1100.054688	n/a	281614	largeTSmallT	correct	congruent	0.41016	no	T	T
1100.464844	n/a	281719	responseSmallT	correct	n/a	0.41016	no	n/a	n/a
1101.535156	n/a	281993	largeHSmallH	correct	congruent	0.52344	no	H	H
1102.058594	n/a	282127	responseSmallH	correct	n/a	0.52344	no	n/a	n/a
1103.121094	n/a	282399	largeTSmallH	correct	incongruent	0.46875	no	T	H
1103.589844	n/a	282519	responseSmallH	correct	n/a	0.46875	no	n/a	n/a
1104.667969	n/a	282795	largeTSmallT	error	congruent	0.49219	no	T	T
1105.160156	n/a	282921	responseSmallH	error	n/a	0.49219	no	n/a	n/a
1106.226562	n/a	283194	largeTSmallH	correct	incongruent	0.55859	no	T	H
1106.785156	n/a	283337	responseSmallH	correct	n/a	0.55859	no	n/a	n/a
1107.855469	n/a	283611	largeTSmallH	correct	incongruent	0.49219	no	T	H
1108.347656	n/a	283737	responseSmallH	correct	n/a	0.49219	no	n/a	n/a
1109.429688	n/a	284014	largeHSmallT	error	incongruent	0.5625	no	H	T
1109.992188	n/a	284158	responseSmallH	error	n/a	0.5625	no	n/a	n/a
1111.066406	n/a	284433	largeHSmallT	correct	incongruent	0.5	no	H	T
1111.566406	n/a	284561	responseSmallT	correct	n/a	0.5	no	n/a	n/a
1112.640625	n/a	284836	largeHSmallH	correct	congruent	0.41406	no	H	H
1113.054688	n/a	284942	responseSmallH	correct	n/a	0.41406	no	n/a	n/a
1114.121094	n/a	285215	largeTSmallH	correct	incongruent	0.46484	no	T	H
1114.585938	n/a	285334	responseSmallH	correct	n/a	0.46484	no	n/a	n/a
1115.667969	n/a	285611	largeHSmallH	correct	congruent	0.46094	no	H	H
1116.128906	n/a	285729	responseSmallH	correct	n/a	0.46094	no	n/a	n/a
1117.1875	n/a	286000	largeTSmallT	correct	congruent	0.39844	no	T	T
1117.585938	n/a	286102	responseSmallT	correct	n/a	0.39844	no	n/a	n/a
1118.667969	n/a	286379	largeHSmallH	correct	congruent	0.49609	no	H	H
1119.164062	n/a	286506	responseSmallH	correct	n/a	0.49609	no	n/a	n/a
1120.242188	n/a	286782	largeTSmallH	correct	incongruent	0.49219	no	T	H
1120.734375	n/a	286908	responseSmallH	correct	n/a	0.49219	no	n/a	n/a
1121.8125	n/a	287184	largeTSmallH	correct	incongruent	0.45312	no	T	H
1122.265625	n/a	287300	responseSmallH	correct	n/a	0.45312	no	n/a	n/a
1123.347656	n/a	287577	largeTSmallT	correct	congruent	0.42578	no	T	T
1123.773438	n/a	287686	responseSmallT	correct	n/a	0.42578	no	n/a	n/a
1124.839844	n/a	287959	largeHSmallH	correct	congruent	0.50781	no	H	H
1125.347656	n/a	288089	responseSmallH	correct	n/a	0.50781	no	n/a	n/a
1126.414062	n/a	288362	largeHSmallH	correct	congruent	0.49609	no	H	H
1126.910156	n/a	288489	responseSmallH	correct	n/a	0.49609	no	n/a	n/a
1127.972656	n/a	288761	largeHSmallT	correct	incongruent	0.41797	no	H	T
1128.390625	n/a	288868	responseSmallT	correct	n/a	0.41797	no	n/a	n/a
1129.453125	n/a	289140	largeHSmallT	correct	incongruent	0.53125	no	H	T
1129.984375	n/a	289276	responseSmallT	correct	n/a	0.53125	no	n/a	n/a
1131.039062	n/a	289546	largeHSmallH	correct	congruent	0.45312	no	H	H
1131.492188	n/a	289662	responseSmallH	correct	n/a	0.45312	no	n/a	n/a
1132.5625	n/a	289936	largeHSmallT	correct	incongruent	0.49219	no	H	T
1133.054688	n/a	290062	responseSmallT	correct	n/a	0.49219	no	n/a	n/a
1134.121094	n/a	290335	largeTSmallT	correct	congruent	0.46094	no	T	T
1134.582031	n/a	290453	responseSmallT	correct	n/a	0.46094	no	n/a	n/a
1135.652344	n/a	290727	largeTSmallH	correct	incongruent	0.51562	no	T	H
1136.167969	n/a	290859	responseSmallH	correct	n/a	0.51562	no	n/a	n/a
1137.242188	n/a	291134	largeTSmallH	correct	incongruent	0.48828	no	T	H
1137.730469	n/a	291259	responseSmallH	correct	n/a	0.48828	no	n/a	n/a
1138.800781	n/a	291533	largeHSmallH	correct	congruent	0.48828	no	H	H
1139.289062	n/a	291658	responseSmallH	correct	n/a	0.48828	no	n/a	n/a
1140.359375	n/a	291932	largeHSmallH	correct	congruent	0.73438	no	H	H
1141.09375	n/a	292120	responseSmallH	correct	n/a	0.73438	no	n/a	n/a
1142.171875	n/a	292396	largeTSmallT	correct	congruent	0.41016	no	T	T
1142.582031	n/a	292501	responseSmallT	correct	n/a	0.41016	no	n/a	n/a
1143.652344	n/a	292775	largeHSmallT	correct	incongruent	0.39844	no	H	T
1144.050781	n/a	292877	responseSmallT	correct	n/a	0.39844	no	n/a	n/a
1145.121094	n/a	293151	largeHSmallH	correct	congruent	0.44531	no	H	H
1145.566406	n/a	293265	responseSmallH	correct	n/a	0.44531	no	n/a	n/a
1146.628906	n/a	293537	largeHSmallH	correct	congruent	0.55859	no	H	H
1147.1875	n/a	293680	responseSmallH	correct	n/a	0.55859	no	n/a	n/a
1148.253906	n/a	293953	largeTSmallH	correct	incongruent	0.57812	no	T	H
1148.832031	n/a	294101	responseSmallH	correct	n/a	0.57812	no	n/a	n/a
1149.90625	n/a	294376	largeHSmallH	correct	congruent	0.49609	no	H	H
1150.402344	n/a	294503	responseSmallH	correct	n/a	0.49609	no	n/a	n/a
1151.464844	n/a	294775	largeHSmallH	correct	congruent	0.42969	no	H	H
1151.894531	n/a	294885	responseSmallH	correct	n/a	0.42969	no	n/a	n/a
1152.960938	n/a	295158	largeHSmallT	error	incongruent	0.42188	no	H	T
1153.382812	n/a	295266	responseSmallH	error	n/a	0.42188	no	n/a	n/a
1154.453125	n/a	295540	largeTSmallT	correct	congruent	0.45703	no	T	T
1154.910156	n/a	295657	responseSmallT	correct	n/a	0.45703	no	n/a	n/a
1155.972656	n/a	295929	largeHSmallT	correct	incongruent	0.32031	no	H	T
1156.292969	n/a	296011	responseSmallT	correct	n/a	0.32031	no	n/a	n/a
1157.359375	n/a	296284	largeTSmallT	correct	congruent	0.45312	no	T	T
1157.8125	n/a	296400	responseSmallT	correct	n/a	0.45312	no	n/a	n/a
1158.878906	n/a	296673	largeHSmallH	correct	congruent	0.625	no	H	H
1159.503906	n/a	296833	responseSmallH	correct	n/a	0.625	no	n/a	n/a
1160.574219	n/a	297107	largeHSmallH	correct	congruent	0.53906	no	H	H
1161.113281	n/a	297245	responseSmallH	correct	n/a	0.53906	no	n/a	n/a
1162.1875	n/a	297520	largeTSmallT	correct	congruent	0.53906	no	T	T
1162.726562	n/a	297658	responseSmallT	correct	n/a	0.53906	no	n/a	n/a
1163.785156	n/a	297929	largeTSmallT	correct	congruent	0.60156	no	T	T
1164.386719	n/a	298083	responseSmallT	correct	n/a	0.60156	no	n/a	n/a
1165.453125	n/a	298356	largeHSmallH	correct	congruent	0.49609	no	H	H
1165.949219	n/a	298483	responseSmallH	correct	n/a	0.49609	no	n/a	n/a
1167.027344	n/a	298759	largeTSmallH	correct	incongruent	0.39062	no	T	H
1167.417969	n/a	298859	responseSmallH	correct	n/a	0.39062	no	n/a	n/a
1168.492188	n/a	299134	largeTSmallH	correct	incongruent	0.49219	no	T	H
1168.984375	n/a	299260	responseSmallH	correct	n/a	0.49219	no	n/a	n/a
1170.054688	n/a	299534	largeTSmallH	correct	incongruent	0.44922	no	T	H
1170.503906	n/a	299649	responseSmallH	correct	n/a	0.44922	no	n/a	n/a
1171.574219	n/a	299923	largeHSmallH	correct	congruent	0.42188	no	H	H
1171.996094	n/a	300031	responseSmallH	correct	n/a	0.42188	no	n/a	n/a
1173.078125	n/a	300308	largeHSmallH	correct	congruent	0.44922	no	H	H
1173.527344	n/a	300423	responseSmallH	correct	n/a	0.44922	no	n/a	n/a
1174.597656	n/a	300697	largeTSmallT	correct	congruent	0.38281	no	T	T
1174.980469	n/a	300795	responseSmallT	correct	n/a	0.38281	no	n/a	n/a
1176.054688	n/a	301070	largeHSmallH	correct	congruent	0.54688	no	H	H
1176.601562	n/a	301210	responseSmallH	correct	n/a	0.54688	no	n/a	n/a
1177.679688	n/a	301486	largeTSmallT	correct	congruent	0.46094	no	T	T
1178.140625	n/a	301604	responseSmallT	correct	n/a	0.46094	no	n/a	n/a
1179.226562	n/a	301882	largeTSmallT	correct	congruent	0.53516	no	T	T
1179.761719	n/a	302019	responseSmallT	correct	n/a	0.53516	no	n/a	n/a
1180.824219	n/a	302291	largeHSmallT	correct	incongruent	0.625	no	H	T
1181.449219	n/a	302451	responseSmallT	correct	n/a	0.625	no	n/a	n/a
1182.53125	n/a	302728	largeHSmallH	correct	congruent	0.64844	no	H	H
1183.179688	n/a	302894	responseSmallH	correct	n/a	0.64844	no	n/a	n/a
1184.253906	n/a	303169	largeTSmallH	correct	incongruent	0.49609	no	T	H
1184.75	n/a	303296	responseSmallH	correct	n/a	0.49609	no	n/a	n/a
1185.8125	n/a	303568	largeHSmallT	correct	incongruent	0.59375	no	H	T
1186.40625	n/a	303720	responseSmallT	correct	n/a	0.59375	no	n/a	n/a
1187.480469	n/a	303995	largeHSmallT	correct	incongruent	0.48047	no	H	T
1187.960938	n/a	304118	responseSmallT	correct	n/a	0.48047	no	n/a	n/a
1189.027344	n/a	304391	largeHSmallT	correct	incongruent	0.47266	no	H	T
1189.5	n/a	304512	responseSmallT	correct	n/a	0.47266	no	n/a	n/a
1190.574219	n/a	304787	largeHSmallT	correct	incongruent	0.49219	no	H	T
1191.066406	n/a	304913	responseSmallT	correct	n/a	0.49219	no	n/a	n/a
1192.132812	n/a	305186	largeTSmallH	correct	incongruent	0.46875	no	T	H
1192.601562	n/a	305306	responseSmallH	correct	n/a	0.46875	no	n/a	n/a
1193.664062	n/a	305578	largeTSmallH	correct	incongruent	0.53906	no	T	H
1194.203125	n/a	305716	responseSmallH	correct	n/a	0.53906	no	n/a	n/a
1195.265625	n/a	305988	largeHSmallH	correct	congruent	0.64844	no	H	H
1195.914062	n/a	306154	responseSmallH	correct	n/a	0.64844	no	n/a	n/a
1196.984375	n/a	306428	largeHSmallT	correct	incongruent	0.53516	no	H	T
1197.519531	n/a	306565	responseSmallT	correct	n/a	0.53516	no	n/a	n/a
1198.597656	n/a	306841	largeTSmallT	correct	congruent	0.65625	no	T	T
1199.253906	n/a	307009	responseSmallT	correct	n/a	0.65625	no	n/a	n/a
1200.332031	n/a	307285	largeHSmallH	correct	congruent	0.57422	no	H	H
1200.90625	n/a	307432	responseSmallH	correct	n/a	0.57422	no	n/a	n/a
1201.984375	n/a	307708	largeTSmallT	correct	congruent	0.41797	no	T	T
1202.402344	n/a	307815	responseSmallT	correct	n/a	0.41797	no	n/a	n/a
1203.480469	n/a	308091	largeTSmallH	correct	incongruent	0.35547	no	T	H
1203.835938	n/a	308182	responseSmallH	correct	n/a	0.35547	no	n/a	n/a
1204.917969	n/a	308459	largeHSmallH	correct	congruent	0.47266	no	H	H
1205.390625	n/a	308580	responseSmallH	correct	n/a	0.47266	no	n/a	n/a
1206.453125	n/a	308852	largeHSmallT	correct	incongruent	0.47266	no	H	T
1206.925781	n/a	308973	responseSmallT	correct	n/a	0.47266	no	n/a	n/a
1208	n/a	309248	largeHSmallT	correct	incongruent	0.38281	no	H	T
1208.382812	n/a	309346	responseSmallT	correct	n/a	0.38281	no	n/a	n/a
1209.453125	n/a	309620	largeHSmallT	correct	incongruent	0.54297	no	H	T
1209.996094	n/a	309759	responseSmallT	correct	n/a	0.54297	no	n/a	n/a
1211.078125	n/a	310036	largeHSmallT	correct	incongruent	0.51562	no	H	T
1211.59375	n/a	310168	responseSmallT	correct	n/a	0.51562	no	n/a	n/a
1212.664062	n/a	310442	largeHSmallH	correct	congruent	0.51172	no	H	H
1213.175781	n/a	310573	responseSmallH	correct	n/a	0.51172	no	n/a	n/a
1214.238281	n/a	310845	largeHSmallT	correct	incongruent	0.55859	no	H	T
1214.796875	n/a	310988	responseSmallT	correct	n/a	0.55859	no	n/a	n/a
1215.863281	n/a	311261	largeTSmallT	correct	congruent	0.64844	no	T	T
1216.511719	n/a	311427	responseSmallT	correct	n/a	0.64844	no	n/a	n/a
1217.585938	n/a	311702	largeHSmallT	correct	incongruent	0.5625	no	H	T
1218.148438	n/a	311846	responseSmallT	correct	n/a	0.5625	no	n/a	n/a
1219.226562	n/a	312122	largeTSmallH	correct	incongruent	0.45703	no	T	H
1219.683594	n/a	312239	responseSmallH	correct	n/a	0.45703	no	n/a	n/a
1220.757812	n/a	312514	largeHSmallH	correct	congruent	0.57422	no	H	H
