onset	duration	sample	value	response_type	response_time
7.984375	n/a	2044	nontarget	correct	0.61719
8.6015625	n/a	2202	rt	correct	0.61719
9.4765625	n/a	2426	nontarget	correct	0.32812
9.8046875	n/a	2510	rt	correct	0.32812
10.54296875	n/a	2699	nontarget	correct	0.35547
10.8984375	n/a	2790	rt	correct	0.35547
11.609375	n/a	2972	target	correct	n/a
13.08984375	n/a	3351	nontarget	correct	0.33984
13.4296875	n/a	3438	rt	correct	0.33984
14.171875	n/a	3628	nontarget	correct	0.36328
14.53515625	n/a	3721	rt	correct	0.36328
15.23828125	n/a	3901	target	correct	n/a
16.71875	n/a	4280	nontarget	correct	0.32422
17.04296875	n/a	4363	rt	correct	0.32422
17.78515625	n/a	4553	nontarget	correct	0.43359
18.21875	n/a	4664	rt	correct	0.43359
18.8515625	n/a	4826	nontarget	correct	0.4375
19.2890625	n/a	4938	rt	correct	0.4375
19.91796875	n/a	5099	target	correct	n/a
21.3984375	n/a	5478	nontarget	correct	0.38672
21.78515625	n/a	5577	rt	correct	0.38672
22.46484375	n/a	5751	nontarget	correct	0.35547
22.8203125	n/a	5842	rt	correct	0.35547
23.53125	n/a	6024	nontarget	correct	0.32812
23.859375	n/a	6108	rt	correct	0.32812
24.59765625	n/a	6297	nontarget	correct	0.38281
24.98046875	n/a	6395	rt	correct	0.38281
25.6640625	n/a	6570	nontarget	correct	0.35938
26.0234375	n/a	6662	rt	correct	0.35938
26.7421875	n/a	6846	nontarget	correct	0.42969
27.171875	n/a	6956	rt	correct	0.42969
27.80859375	n/a	7119	nontarget	correct	0.41016
28.21875	n/a	7224	rt	correct	0.41016
28.875	n/a	7392	nontarget	correct	0.39844
29.2734375	n/a	7494	rt	correct	0.39844
29.95703125	n/a	7669	nontarget	correct	0.36328
30.3203125	n/a	7762	rt	correct	0.36328
31.0234375	n/a	7942	nontarget	correct	0.36328
31.38671875	n/a	8035	rt	correct	0.36328
32.08984375	n/a	8215	nontarget	correct	0.36328
32.453125	n/a	8308	rt	correct	0.36328
33.14453125	n/a	8485	nontarget	correct	0.38672
33.53125	n/a	8584	rt	correct	0.38672
34.2109375	n/a	8758	nontarget	correct	0.38672
34.59765625	n/a	8857	rt	correct	0.38672
35.27734375	n/a	9031	nontarget	correct	0.45312
35.73046875	n/a	9147	rt	correct	0.45312
36.34375	n/a	9304	nontarget	correct	0.41406
36.7578125	n/a	9410	rt	correct	0.41406
37.41015625	n/a	9577	nontarget	correct	0.32812
37.73828125	n/a	9661	rt	correct	0.32812
38.4921875	n/a	9854	nontarget	correct	0.35156
38.84375	n/a	9944	rt	correct	0.35156
39.5703125	n/a	10130	nontarget	correct	0.38672
39.95703125	n/a	10229	rt	correct	0.38672
40.63671875	n/a	10403	target	correct	n/a
42.1171875	n/a	10782	nontarget	correct	0.35547
42.47265625	n/a	10873	rt	correct	0.35547
43.18359375	n/a	11055	nontarget	correct	0.30859
43.4921875	n/a	11134	rt	correct	0.30859
44.26171875	n/a	11331	nontarget	correct	0.30859
44.5703125	n/a	11410	rt	correct	0.30859
45.328125	n/a	11604	target	correct	n/a
46.80859375	n/a	11983	nontarget	correct	0.32422
47.1328125	n/a	12066	rt	correct	0.32422
47.875	n/a	12256	nontarget	correct	0.33984
48.21484375	n/a	12343	rt	correct	0.33984
48.94140625	n/a	12529	nontarget	correct	0.37109
49.3125	n/a	12624	rt	correct	0.37109
50.0078125	n/a	12802	nontarget	correct	0.30859
50.31640625	n/a	12881	rt	correct	0.30859
51.078125	n/a	13076	nontarget	correct	0.37109
51.44921875	n/a	13171	rt	correct	0.37109
52.15625	n/a	13352	nontarget	correct	0.40234
52.55859375	n/a	13455	rt	correct	0.40234
53.22265625	n/a	13625	nontarget	correct	0.28516
53.5078125	n/a	13698	rt	correct	0.28516
54.2890625	n/a	13898	nontarget	correct	0.28906
54.578125	n/a	13972	rt	correct	0.28906
55.37109375	n/a	14175	nontarget	correct	0.30469
55.67578125	n/a	14253	rt	correct	0.30469
56.4375	n/a	14448	target	correct	n/a
57.9140625	n/a	14826	nontarget	correct	0.3125
58.2265625	n/a	14906	rt	correct	0.3125
58.984375	n/a	15100	nontarget	correct	0.29688
59.28125	n/a	15176	rt	correct	0.29688
60.05078125	n/a	15373	nontarget	correct	0.33594
60.38671875	n/a	15459	rt	correct	0.33594
61.1171875	n/a	15646	nontarget	correct	0.28516
61.40234375	n/a	15719	rt	correct	0.28516
62.18359375	n/a	15919	nontarget	correct	0.26953
62.453125	n/a	15988	rt	correct	0.26953
63.26171875	n/a	16195	nontarget	correct	0.36328
63.625	n/a	16288	rt	correct	0.36328
64.328125	n/a	16468	nontarget	correct	0.46875
64.796875	n/a	16588	rt	correct	0.46875
65.80859375	n/a	16847	target	correct	n/a
67.2890625	n/a	17226	nontarget	correct	0.37891
67.66796875	n/a	17323	rt	correct	0.37891
68.35546875	n/a	17499	nontarget	correct	0.33984
68.6953125	n/a	17586	rt	correct	0.33984
69.421875	n/a	17772	nontarget	correct	0.30469
69.7265625	n/a	17850	rt	correct	0.30469
70.50390625	n/a	18049	target	correct	n/a
71.98046875	n/a	18427	nontarget	correct	0.28125
72.26171875	n/a	18499	rt	correct	0.28125
73.05078125	n/a	18701	nontarget	correct	0.28516
73.3359375	n/a	18774	rt	correct	0.28516
74.1171875	n/a	18974	nontarget	correct	0.29688
74.4140625	n/a	19050	rt	correct	0.29688
75.18359375	n/a	19247	nontarget	correct	0.32031
75.50390625	n/a	19329	rt	correct	0.32031
76.25	n/a	19520	nontarget	correct	0.27734
76.52734375	n/a	19591	rt	correct	0.27734
77.31640625	n/a	19793	nontarget	correct	0.25391
77.5703125	n/a	19858	rt	correct	0.25391
78.39453125	n/a	20069	nontarget	correct	0.39844
78.79296875	n/a	20171	rt	correct	0.39844
79.4609375	n/a	20342	nontarget	correct	0.30078
79.76171875	n/a	20419	rt	correct	0.30078
80.52734375	n/a	20615	nontarget	correct	0.4375
80.96484375	n/a	20727	rt	correct	0.4375
81.609375	n/a	20892	target	correct	n/a
83.08984375	n/a	21271	nontarget	correct	0.38672
83.4765625	n/a	21370	rt	correct	0.38672
84.16796875	n/a	21547	nontarget	correct	0.32422
84.4921875	n/a	21630	rt	correct	0.32422
85.234375	n/a	21820	target	correct	n/a
86.71484375	n/a	22199	nontarget	correct	0.33203
87.046875	n/a	22284	rt	correct	0.33203
87.78125	n/a	22472	target	correct	n/a
89.25	n/a	22848	nontarget	correct	0.26172
89.51171875	n/a	22915	rt	correct	0.26172
90.328125	n/a	23124	target	correct	n/a
91.80859375	n/a	23503	nontarget	correct	0.27734
92.0859375	n/a	23574	rt	correct	0.27734
92.88671875	n/a	23779	nontarget	correct	0.25781
93.14453125	n/a	23845	rt	correct	0.25781
93.953125	n/a	24052	nontarget	correct	0.33984
94.29296875	n/a	24139	rt	correct	0.33984
95.0234375	n/a	24326	nontarget	correct	0.30078
95.32421875	n/a	24403	rt	correct	0.30078
96.08984375	n/a	24599	nontarget	correct	0.33203
96.421875	n/a	24684	rt	correct	0.33203
97.15625	n/a	24872	nontarget	correct	0.35156
97.5078125	n/a	24962	rt	correct	0.35156
98.22265625	n/a	25145	target	correct	n/a
99.703125	n/a	25524	nontarget	correct	0.30859
100.0117188	n/a	25603	rt	correct	0.30859
100.78125	n/a	25800	nontarget	correct	0.32422
101.1054688	n/a	25883	rt	correct	0.32422
101.8476562	n/a	26073	nontarget	correct	0.32422
102.171875	n/a	26156	rt	correct	0.32422
102.9140625	n/a	26346	nontarget	correct	0.40625
103.3203125	n/a	26450	rt	correct	0.40625
103.9960938	n/a	26623	nontarget	correct	0.29297
104.2890625	n/a	26698	rt	correct	0.29297
105.0625	n/a	26896	nontarget	correct	0.30859
105.3710938	n/a	26975	rt	correct	0.30859
106.1289062	n/a	27169	nontarget	correct	0.28516
106.4140625	n/a	27242	rt	correct	0.28516
107.2070312	n/a	27445	nontarget	correct	0.32812
107.5351562	n/a	27529	rt	correct	0.32812
108.2734375	n/a	27718	nontarget	correct	0.32812
108.6015625	n/a	27802	rt	correct	0.32812
109.3398438	n/a	27991	nontarget	correct	0.26953
109.609375	n/a	28060	rt	correct	0.26953
110.3945312	n/a	28261	nontarget	correct	0.28906
110.6835938	n/a	28335	rt	correct	0.28906
111.4609375	n/a	28534	nontarget	correct	0.26562
111.7265625	n/a	28602	rt	correct	0.26562
112.5273438	n/a	28807	nontarget	correct	0.30078
112.828125	n/a	28884	rt	correct	0.30078
113.59375	n/a	29080	nontarget	correct	0.27734
113.8710938	n/a	29151	rt	correct	0.27734
114.6601562	n/a	29353	nontarget	correct	0.26172
114.921875	n/a	29420	rt	correct	0.26172
115.7421875	n/a	29630	nontarget	correct	0.27734
116.0195312	n/a	29701	rt	correct	0.27734
116.8085938	n/a	29903	nontarget	correct	0.28125
117.0898438	n/a	29975	rt	correct	0.28125
117.875	n/a	30176	nontarget	correct	0.29297
118.1679688	n/a	30251	rt	correct	0.29297
118.9414062	n/a	30449	nontarget	correct	0.3125
119.2539062	n/a	30529	rt	correct	0.3125
120.0078125	n/a	30722	nontarget	correct	0.28125
120.2890625	n/a	30794	rt	correct	0.28125
121.0742188	n/a	30995	nontarget	correct	0.30078
121.375	n/a	31072	rt	correct	0.30078
122.140625	n/a	31268	nontarget	correct	0.28906
122.4296875	n/a	31342	rt	correct	0.28906
123.2070312	n/a	31541	nontarget	correct	0.28125
123.4882812	n/a	31613	rt	correct	0.28125
124.2734375	n/a	31814	nontarget	correct	0.26953
124.5429688	n/a	31883	rt	correct	0.26953
125.3554688	n/a	32091	target	incorrect	0.25391
125.609375	n/a	32156	rt	incorrect	0.25391
126.421875	n/a	32364	nontarget	correct	0.375
126.796875	n/a	32460	rt	correct	0.375
127.4882812	n/a	32637	nontarget	correct	0.30469
127.7929688	n/a	32715	rt	correct	0.30469
128.5546875	n/a	32910	nontarget	correct	0.35938
128.9140625	n/a	33002	rt	correct	0.35938
129.6210938	n/a	33183	nontarget	correct	0.39844
130.0195312	n/a	33285	rt	correct	0.39844
130.6757812	n/a	33453	nontarget	correct	0.51562
131.1914062	n/a	33585	rt	correct	0.51562
132.1523438	n/a	33831	nontarget	correct	0.42578
132.578125	n/a	33940	rt	correct	0.42578
133.2226562	n/a	34105	nontarget	correct	0.33203
133.5546875	n/a	34190	rt	correct	0.33203
134.2890625	n/a	34378	nontarget	correct	0.32812
134.6171875	n/a	34462	rt	correct	0.32812
135.3671875	n/a	34654	nontarget	correct	0.32812
135.6953125	n/a	34738	rt	correct	0.32812
136.4335938	n/a	34927	nontarget	correct	0.31641
136.75	n/a	35008	rt	correct	0.31641
137.5	n/a	35200	nontarget	correct	0.33594
137.8359375	n/a	35286	rt	correct	0.33594
138.5820312	n/a	35477	nontarget	correct	0.30078
138.8828125	n/a	35554	rt	correct	0.30078
139.6484375	n/a	35750	target	correct	n/a
141.1289062	n/a	36129	nontarget	correct	0.26172
141.390625	n/a	36196	rt	correct	0.26172
142.1953125	n/a	36402	nontarget	correct	0.28906
142.484375	n/a	36476	rt	correct	0.28906
143.2617188	n/a	36675	nontarget	correct	0.32031
143.5820312	n/a	36757	rt	correct	0.32031
144.328125	n/a	36948	target	correct	n/a
145.8085938	n/a	37327	nontarget	correct	0.39453
146.203125	n/a	37428	rt	correct	0.39453
146.875	n/a	37600	nontarget	correct	0.34375
147.21875	n/a	37688	rt	correct	0.34375
147.9414062	n/a	37873	nontarget	correct	0.41406
148.3554688	n/a	37979	rt	correct	0.41406
149.0078125	n/a	38146	target	correct	n/a
150.4882812	n/a	38525	nontarget	correct	0.25781
150.7460938	n/a	38591	rt	correct	0.25781
151.5546875	n/a	38798	target	correct	n/a
153.0195312	n/a	39173	nontarget	correct	0.26953
153.2890625	n/a	39242	rt	correct	0.26953
154.0859375	n/a	39446	nontarget	correct	0.33203
154.4179688	n/a	39531	rt	correct	0.33203
155.1523438	n/a	39719	nontarget	correct	0.26562
155.4179688	n/a	39787	rt	correct	0.26562
156.21875	n/a	39992	nontarget	correct	0.32422
156.5429688	n/a	40075	rt	correct	0.32422
157.3007812	n/a	40269	nontarget	correct	0.27734
157.578125	n/a	40340	rt	correct	0.27734
158.3671875	n/a	40542	target	correct	n/a
159.8476562	n/a	40921	nontarget	correct	0.29297
160.140625	n/a	40996	rt	correct	0.29297
160.9140625	n/a	41194	nontarget	correct	0.28906
161.203125	n/a	41268	rt	correct	0.28906
161.9804688	n/a	41467	nontarget	correct	0.52344
162.5039062	n/a	41601	rt	correct	0.52344
163.4609375	n/a	41846	target	correct	n/a
164.9414062	n/a	42225	nontarget	correct	0.28125
165.2226562	n/a	42297	rt	correct	0.28125
166.0195312	n/a	42501	target	incorrect	0.29688
166.3164062	n/a	42577	rt	incorrect	0.29688
167.0859375	n/a	42774	nontarget	correct	0.38672
167.4726562	n/a	42873	rt	correct	0.38672
168.1523438	n/a	43047	nontarget	correct	0.49609
168.6484375	n/a	43174	rt	correct	0.49609
169.6210938	n/a	43423	nontarget	incorrect	n/a
171.1132812	n/a	43805	nontarget	correct	0.42578
171.5390625	n/a	43914	rt	correct	0.42578
172.1796875	n/a	44078	nontarget	correct	0.48047
172.6601562	n/a	44201	rt	correct	0.48047
173.671875	n/a	44460	nontarget	correct	0.40234
174.0742188	n/a	44563	rt	correct	0.40234
174.7382812	n/a	44733	nontarget	correct	0.42969
175.1679688	n/a	44843	rt	correct	0.42969
175.8085938	n/a	45007	nontarget	correct	0.44922
176.2578125	n/a	45122	rt	correct	0.44922
176.875	n/a	45280	nontarget	correct	0.29688
177.171875	n/a	45356	rt	correct	0.29688
177.9414062	n/a	45553	nontarget	correct	0.31641
178.2578125	n/a	45634	rt	correct	0.31641
179.0078125	n/a	45826	nontarget	correct	0.35938
179.3671875	n/a	45918	rt	correct	0.35938
180.0742188	n/a	46099	nontarget	correct	0.41797
180.4921875	n/a	46206	rt	correct	0.41797
181.1523438	n/a	46375	nontarget	correct	0.33594
181.4882812	n/a	46461	rt	correct	0.33594
182.21875	n/a	46648	nontarget	correct	0.28906
182.5078125	n/a	46722	rt	correct	0.28906
183.2851562	n/a	46921	target	correct	n/a
184.765625	n/a	47300	nontarget	correct	0.25781
185.0234375	n/a	47366	rt	correct	0.25781
185.8320312	n/a	47573	nontarget	correct	0.32812
186.1601562	n/a	47657	rt	correct	0.32812
186.8984375	n/a	47846	nontarget	correct	0.35938
187.2578125	n/a	47938	rt	correct	0.35938
187.9648438	n/a	48119	nontarget	correct	0.26562
188.2304688	n/a	48187	rt	correct	0.26562
189.046875	n/a	48396	nontarget	correct	0.30469
189.3515625	n/a	48474	rt	correct	0.30469
190.1132812	n/a	48669	nontarget	correct	0.33594
190.4492188	n/a	48755	rt	correct	0.33594
191.1796875	n/a	48942	nontarget	correct	0.41016
191.5898438	n/a	49047	rt	correct	0.41016
192.2578125	n/a	49218	target	correct	n/a
193.7382812	n/a	49597	nontarget	correct	0.33203
194.0703125	n/a	49682	rt	correct	0.33203
194.8203125	n/a	49874	target	incorrect	0.32812
195.1484375	n/a	49958	rt	incorrect	0.32812
195.8867188	n/a	50147	nontarget	correct	0.30078
196.1875	n/a	50224	rt	correct	0.30078
196.953125	n/a	50420	nontarget	correct	0.28125
197.234375	n/a	50492	rt	correct	0.28125
198.0195312	n/a	50693	nontarget	correct	0.29688
198.3164062	n/a	50769	rt	correct	0.29688
199.0859375	n/a	50966	nontarget	correct	0.30469
199.390625	n/a	51044	rt	correct	0.30469
200.1523438	n/a	51239	target	correct	n/a
201.6328125	n/a	51618	nontarget	correct	0.27734
201.9101562	n/a	51689	rt	correct	0.27734
202.7109375	n/a	51894	nontarget	correct	0.61328
203.3242188	n/a	52051	rt	correct	0.61328
204.1914062	n/a	52273	nontarget	correct	0.38281
204.5742188	n/a	52371	rt	correct	0.38281
205.2734375	n/a	52550	nontarget	correct	0.38672
205.6601562	n/a	52649	rt	correct	0.38672
206.3398438	n/a	52823	nontarget	incorrect	n/a
207.8203125	n/a	53202	nontarget	correct	0.29688
208.1171875	n/a	53278	rt	correct	0.29688
208.8867188	n/a	53475	nontarget	correct	0.26562
209.1523438	n/a	53543	rt	correct	0.26562
209.9648438	n/a	53751	target	incorrect	0.24219
210.2070312	n/a	53813	rt	incorrect	0.24219
211.03125	n/a	54024	nontarget	correct	0.28906
211.3203125	n/a	54098	rt	correct	0.28906
212.0976562	n/a	54297	nontarget	correct	0.27344
212.3710938	n/a	54367	rt	correct	0.27344
213.1640625	n/a	54570	nontarget	correct	0.37891
213.5429688	n/a	54667	rt	correct	0.37891
214.2304688	n/a	54843	nontarget	correct	0.30859
214.5390625	n/a	54922	rt	correct	0.30859
215.3007812	n/a	55117	nontarget	correct	0.39062
215.6914062	n/a	55217	rt	correct	0.39062
216.3789062	n/a	55393	nontarget	correct	0.34766
216.7265625	n/a	55482	rt	correct	0.34766
217.4453125	n/a	55666	nontarget	correct	0.32031
217.765625	n/a	55748	rt	correct	0.32031
218.5117188	n/a	55939	target	correct	n/a
219.9921875	n/a	56318	nontarget	correct	0.27344
220.265625	n/a	56388	rt	correct	0.27344
221.0585938	n/a	56591	nontarget	correct	0.29297
221.3515625	n/a	56666	rt	correct	0.29297
222.125	n/a	56864	target	incorrect	0.25391
222.3789062	n/a	56929	rt	incorrect	0.25391
223.1914062	n/a	57137	nontarget	correct	0.54297
223.734375	n/a	57276	rt	correct	0.54297
224.6875	n/a	57520	nontarget	correct	0.375
225.0625	n/a	57616	rt	correct	0.375
225.7539062	n/a	57793	nontarget	correct	0.28516
226.0390625	n/a	57866	rt	correct	0.28516
226.8203125	n/a	58066	nontarget	correct	0.50781
227.328125	n/a	58196	rt	correct	0.50781
228.296875	n/a	58444	nontarget	incorrect	n/a
229.7773438	n/a	58823	nontarget	incorrect	n/a
231.2578125	n/a	59202	nontarget	correct	0.25781
231.515625	n/a	59268	rt	correct	0.25781
232.3242188	n/a	59475	nontarget	correct	0.40234
232.7265625	n/a	59578	rt	correct	0.40234
233.390625	n/a	59748	nontarget	correct	0.48438
233.875	n/a	59872	rt	correct	0.48438
234.859375	n/a	60124	nontarget	correct	0.30859
235.1679688	n/a	60203	rt	correct	0.30859
235.9257812	n/a	60397	nontarget	correct	0.25781
236.1835938	n/a	60463	rt	correct	0.25781
236.9921875	n/a	60670	nontarget	correct	0.3125
237.3046875	n/a	60750	rt	correct	0.3125
238.0585938	n/a	60943	nontarget	correct	0.41797
238.4765625	n/a	61050	rt	correct	0.41797
239.1367188	n/a	61219	nontarget	correct	0.21875
239.3554688	n/a	61275	rt	correct	0.21875
240.2070312	n/a	61493	nontarget	correct	0.26953
240.4765625	n/a	61562	rt	correct	0.26953
241.2734375	n/a	61766	target	correct	n/a
242.765625	n/a	62148	nontarget	correct	0.26562
243.03125	n/a	62216	rt	correct	0.26562
243.8320312	n/a	62421	nontarget	correct	0.29688
244.1289062	n/a	62497	rt	correct	0.29688
244.9101562	n/a	62697	nontarget	correct	0.31641
245.2265625	n/a	62778	rt	correct	0.31641
245.9765625	n/a	62970	nontarget	correct	0.27344
246.25	n/a	63040	rt	correct	0.27344
247.0429688	n/a	63243	nontarget	correct	0.26172
247.3046875	n/a	63310	rt	correct	0.26172
248.125	n/a	63520	nontarget	correct	0.27734
248.4023438	n/a	63591	rt	correct	0.27734
249.1914062	n/a	63793	nontarget	correct	0.34766
249.5390625	n/a	63882	rt	correct	0.34766
250.2578125	n/a	64066	nontarget	correct	0.26953
250.5273438	n/a	64135	rt	correct	0.26953
251.3398438	n/a	64343	nontarget	correct	0.30469
251.6445312	n/a	64421	rt	correct	0.30469
252.40625	n/a	64616	nontarget	correct	0.30078
252.7070312	n/a	64693	rt	correct	0.30078
253.4726562	n/a	64889	nontarget	correct	0.27344
253.7460938	n/a	64959	rt	correct	0.27344
254.5507812	n/a	65165	nontarget	correct	0.33594
254.8867188	n/a	65251	rt	correct	0.33594
255.6171875	n/a	65438	nontarget	correct	0.37891
255.9960938	n/a	65535	rt	correct	0.37891
256.6835938	n/a	65711	nontarget	correct	0.32812
257.0117188	n/a	65795	rt	correct	0.32812
257.765625	n/a	65988	nontarget	correct	0.21875
257.984375	n/a	66044	rt	correct	0.21875
258.8320312	n/a	66261	nontarget	correct	0.31641
259.1484375	n/a	66342	rt	correct	0.31641
259.8984375	n/a	66534	nontarget	correct	0.35547
260.2539062	n/a	66625	rt	correct	0.35547
260.9765625	n/a	66810	target	correct	n/a
262.4570312	n/a	67189	nontarget	correct	0.29297
262.75	n/a	67264	rt	correct	0.29297
263.5234375	n/a	67462	nontarget	correct	0.29297
263.8164062	n/a	67537	rt	correct	0.29297
264.5898438	n/a	67735	target	correct	n/a
266.0585938	n/a	68111	nontarget	correct	0.25391
266.3125	n/a	68176	rt	correct	0.25391
267.125	n/a	68384	nontarget	correct	0.36719
267.4921875	n/a	68478	rt	correct	0.36719
268.1914062	n/a	68657	nontarget	correct	0.23828
268.4296875	n/a	68718	rt	correct	0.23828
269.2578125	n/a	68930	nontarget	correct	0.25781
269.515625	n/a	68996	rt	correct	0.25781
270.3359375	n/a	69206	nontarget	incorrect	n/a
271.8164062	n/a	69585	nontarget	correct	0.26172
272.078125	n/a	69652	rt	correct	0.26172
272.8867188	n/a	69859	nontarget	correct	0.24219
273.1289062	n/a	69921	rt	correct	0.24219
273.9492188	n/a	70131	nontarget	correct	0.28125
274.2304688	n/a	70203	rt	correct	0.28125
275.0195312	n/a	70405	nontarget	correct	0.33984
275.359375	n/a	70492	rt	correct	0.33984
276.0859375	n/a	70678	nontarget	correct	0.39062
276.4765625	n/a	70778	rt	correct	0.39062
277.1523438	n/a	70951	nontarget	correct	0.37891
277.53125	n/a	71048	rt	correct	0.37891
278.2304688	n/a	71227	nontarget	correct	0.28125
278.5117188	n/a	71299	rt	correct	0.28125
279.296875	n/a	71500	nontarget	correct	0.29688
279.59375	n/a	71576	rt	correct	0.29688
280.3632812	n/a	71773	nontarget	correct	0.30859
280.671875	n/a	71852	rt	correct	0.30859
281.4296875	n/a	72046	nontarget	correct	0.30469
281.734375	n/a	72124	rt	correct	0.30469
282.4960938	n/a	72319	target	correct	n/a
283.9765625	n/a	72698	nontarget	correct	0.25781
284.234375	n/a	72764	rt	correct	0.25781
285.0429688	n/a	72971	nontarget	correct	0.36328
285.40625	n/a	73064	rt	correct	0.36328
286.0976562	n/a	73241	nontarget	incorrect	n/a
287.578125	n/a	73620	nontarget	correct	0.23828
287.8164062	n/a	73681	rt	correct	0.23828
288.6445312	n/a	73893	target	incorrect	0.24219
288.8867188	n/a	73955	rt	incorrect	0.24219
289.7109375	n/a	74166	nontarget	correct	0.44531
290.15625	n/a	74280	rt	correct	0.44531
290.7890625	n/a	74442	nontarget	correct	0.27344
291.0625	n/a	74512	rt	correct	0.27344
291.8710938	n/a	74719	nontarget	correct	0.26953
292.140625	n/a	74788	rt	correct	0.26953
292.9375	n/a	74992	nontarget	correct	0.26953
293.2070312	n/a	75061	rt	correct	0.26953
294.0039062	n/a	75265	nontarget	correct	0.39453
294.3984375	n/a	75366	rt	correct	0.39453
295.0703125	n/a	75538	nontarget	correct	0.34766
295.4179688	n/a	75627	rt	correct	0.34766
296.1367188	n/a	75811	target	correct	n/a
297.6289062	n/a	76193	nontarget	correct	0.26953
297.8984375	n/a	76262	rt	correct	0.26953
298.6953125	n/a	76466	nontarget	correct	0.40234
299.0976562	n/a	76569	rt	correct	0.40234
299.765625	n/a	76740	nontarget	correct	0.42188
300.1875	n/a	76848	rt	correct	0.42188
300.8320312	n/a	77013	nontarget	correct	0.37891
301.2109375	n/a	77110	rt	correct	0.37891
301.8984375	n/a	77286	nontarget	correct	0.47266
302.3710938	n/a	77407	rt	correct	0.47266
303.3789062	n/a	77665	nontarget	incorrect	n/a
304.8554688	n/a	78043	nontarget	correct	0.26562
305.1210938	n/a	78111	rt	correct	0.26562
305.9375	n/a	78320	target	correct	n/a
307.4179688	n/a	78699	nontarget	correct	0.24219
307.6601562	n/a	78761	rt	correct	0.24219
308.4960938	n/a	78975	target	incorrect	0.25781
308.7539062	n/a	79041	rt	incorrect	0.25781
309.5625	n/a	79248	nontarget	correct	0.24219
309.8046875	n/a	79310	rt	correct	0.24219
310.6289062	n/a	79521	nontarget	correct	0.38672
311.015625	n/a	79620	rt	correct	0.38672
311.7109375	n/a	79798	nontarget	correct	0.375
312.0859375	n/a	79894	rt	correct	0.375
312.7773438	n/a	80071	nontarget	correct	0.30469
313.0820312	n/a	80149	rt	correct	0.30469
313.84375	n/a	80344	nontarget	correct	0.31641
314.1601562	n/a	80425	rt	correct	0.31641
314.921875	n/a	80620	nontarget	correct	0.42969
315.3515625	n/a	80730	rt	correct	0.42969
315.9921875	n/a	80894	nontarget	correct	0.39844
316.390625	n/a	80996	rt	correct	0.39844
317.0585938	n/a	81167	target	correct	n/a
318.5351562	n/a	81545	nontarget	correct	0.21094
318.7460938	n/a	81599	rt	correct	0.21094
319.6015625	n/a	81818	nontarget	correct	0.23438
319.8359375	n/a	81878	rt	correct	0.23438
320.671875	n/a	82092	nontarget	correct	0.30078
320.9726562	n/a	82169	rt	correct	0.30078
321.7382812	n/a	82365	nontarget	correct	0.25781
321.9960938	n/a	82431	rt	correct	0.25781
322.8164062	n/a	82641	target	incorrect	0.21875
323.0351562	n/a	82697	rt	incorrect	0.21875
323.8828125	n/a	82914	nontarget	correct	0.28125
324.1640625	n/a	82986	rt	correct	0.28125
324.9492188	n/a	83187	nontarget	correct	0.21094
325.1601562	n/a	83241	rt	correct	0.21094
326.03125	n/a	83464	nontarget	correct	0.070312
326.1015625	n/a	83482	rt	correct	0.070312
327.0976562	n/a	83737	nontarget	correct	0.33984
327.4375	n/a	83824	rt	correct	0.33984
328.1640625	n/a	84010	nontarget	correct	0.38281
328.546875	n/a	84108	rt	correct	0.38281
329.2304688	n/a	84283	nontarget	correct	0.41016
329.640625	n/a	84388	rt	correct	0.41016
330.296875	n/a	84556	target	correct	n/a
331.7773438	n/a	84935	nontarget	correct	0.25781
332.0351562	n/a	85001	rt	correct	0.25781
332.84375	n/a	85208	nontarget	correct	0.27344
333.1171875	n/a	85278	rt	correct	0.27344
333.9101562	n/a	85481	nontarget	correct	0.25781
334.1679688	n/a	85547	rt	correct	0.25781
334.9765625	n/a	85754	nontarget	correct	0.30078
335.2773438	n/a	85831	rt	correct	0.30078
336.0429688	n/a	86027	nontarget	correct	0.29297
336.3359375	n/a	86102	rt	correct	0.29297
337.1210938	n/a	86303	nontarget	correct	0.33594
337.4570312	n/a	86389	rt	correct	0.33594
338.1914062	n/a	86577	nontarget	correct	0.37109
338.5625	n/a	86672	rt	correct	0.37109
339.2578125	n/a	86850	nontarget	correct	0.39062
339.6484375	n/a	86950	rt	correct	0.39062
340.3359375	n/a	87126	nontarget	correct	0.30078
340.6367188	n/a	87203	rt	correct	0.30078
341.4023438	n/a	87399	nontarget	correct	0.31641
341.71875	n/a	87480	rt	correct	0.31641
342.46875	n/a	87672	nontarget	correct	0.3125
342.78125	n/a	87752	rt	correct	0.3125
343.5507812	n/a	87949	target	correct	n/a
345.03125	n/a	88328	nontarget	correct	0.23047
345.2617188	n/a	88387	rt	correct	0.23047
346.109375	n/a	88604	nontarget	correct	0.26172
346.3710938	n/a	88671	rt	correct	0.26172
347.1757812	n/a	88877	nontarget	correct	0.25391
347.4296875	n/a	88942	rt	correct	0.25391
348.2421875	n/a	89150	nontarget	correct	0.33203
348.5742188	n/a	89235	rt	correct	0.33203
349.3085938	n/a	89423	nontarget	correct	0.28516
349.59375	n/a	89496	rt	correct	0.28516
350.375	n/a	89696	nontarget	correct	0.25781
350.6328125	n/a	89762	rt	correct	0.25781
351.4414062	n/a	89969	nontarget	correct	0.29297
351.734375	n/a	90044	rt	correct	0.29297
352.5078125	n/a	90242	target	incorrect	0.32422
352.8320312	n/a	90325	rt	incorrect	0.32422
353.5742188	n/a	90515	nontarget	correct	0.57812
354.1523438	n/a	90663	rt	correct	0.57812
355.0703125	n/a	90898	nontarget	correct	0.4375
355.5078125	n/a	91010	rt	correct	0.4375
356.1367188	n/a	91171	nontarget	correct	0.47266
356.609375	n/a	91292	rt	correct	0.47266
357.6171875	n/a	91550	nontarget	correct	0.33203
357.9492188	n/a	91635	rt	correct	0.33203
358.6835938	n/a	91823	target	correct	n/a
360.1640625	n/a	92202	nontarget	correct	0.25781
360.421875	n/a	92268	rt	correct	0.25781
361.2304688	n/a	92475	nontarget	correct	0.24609
361.4765625	n/a	92538	rt	correct	0.24609
362.296875	n/a	92748	nontarget	correct	0.24609
362.5429688	n/a	92811	rt	correct	0.24609
363.3632812	n/a	93021	nontarget	correct	0.22656
363.5898438	n/a	93079	rt	correct	0.22656
364.4296875	n/a	93294	nontarget	correct	0.26953
364.6992188	n/a	93363	rt	correct	0.26953
365.4960938	n/a	93567	target	correct	n/a
366.9765625	n/a	93946	nontarget	correct	0.30078
367.2773438	n/a	94023	rt	correct	0.30078
368.03125	n/a	94216	nontarget	correct	0.24609
368.2773438	n/a	94279	rt	correct	0.24609
369.0976562	n/a	94489	nontarget	correct	0.28906
369.3867188	n/a	94563	rt	correct	0.28906
370.1640625	n/a	94762	nontarget	correct	0.39844
370.5625	n/a	94864	rt	correct	0.39844
371.2304688	n/a	95035	nontarget	correct	0.26562
371.4960938	n/a	95103	rt	correct	0.26562
372.296875	n/a	95308	nontarget	correct	0.25781
372.5546875	n/a	95374	rt	correct	0.25781
373.3632812	n/a	95581	nontarget	correct	0.31641
373.6796875	n/a	95662	rt	correct	0.31641
374.4296875	n/a	95854	nontarget	correct	0.27734
374.7070312	n/a	95925	rt	correct	0.27734
375.4960938	n/a	96127	nontarget	correct	0.26953
375.765625	n/a	96196	rt	correct	0.26953
376.5742188	n/a	96403	nontarget	correct	0.25
376.8242188	n/a	96467	rt	correct	0.25
377.640625	n/a	96676	target	correct	n/a
379.1210938	n/a	97055	nontarget	correct	0.22656
379.3476562	n/a	97113	rt	correct	0.22656
380.1875	n/a	97328	target	incorrect	0.28906
380.4765625	n/a	97402	rt	incorrect	0.28906
381.2539062	n/a	97601	nontarget	correct	0.31641
381.5703125	n/a	97682	rt	correct	0.31641
382.3203125	n/a	97874	nontarget	correct	0.27344
382.59375	n/a	97944	rt	correct	0.27344
383.3867188	n/a	98147	nontarget	correct	0.24609
383.6328125	n/a	98210	rt	correct	0.24609
384.46875	n/a	98424	nontarget	correct	0.28125
384.75	n/a	98496	rt	correct	0.28125
385.5351562	n/a	98697	nontarget	correct	0.23047
385.765625	n/a	98756	rt	correct	0.23047
386.6015625	n/a	98970	nontarget	correct	0.20312
386.8046875	n/a	99022	rt	correct	0.20312
387.6835938	n/a	99247	nontarget	correct	0.27344
387.9570312	n/a	99317	rt	correct	0.27344
388.75	n/a	99520	nontarget	correct	0.30859
389.0585938	n/a	99599	rt	correct	0.30859
389.8164062	n/a	99793	nontarget	correct	0.28906
390.1054688	n/a	99867	rt	correct	0.28906
390.8945312	n/a	100069	nontarget	correct	0.48828
391.3828125	n/a	100194	rt	correct	0.48828
392.375	n/a	100448	nontarget	correct	0.27344
392.6484375	n/a	100518	rt	correct	0.27344
393.4570312	n/a	100725	nontarget	correct	0.39453
393.8515625	n/a	100826	rt	correct	0.39453
394.5234375	n/a	100998	nontarget	correct	0.4375
394.9609375	n/a	101110	rt	correct	0.4375
395.5898438	n/a	101271	nontarget	correct	0.29688
395.8867188	n/a	101347	rt	correct	0.29688
396.6679688	n/a	101547	nontarget	correct	0.32031
396.9882812	n/a	101629	rt	correct	0.32031
397.734375	n/a	101820	target	correct	n/a
399.2148438	n/a	102199	nontarget	correct	0.23828
399.453125	n/a	102260	rt	correct	0.23828
400.28125	n/a	102472	target	correct	n/a
401.75	n/a	102848	nontarget	correct	0.28516
402.0351562	n/a	102921	rt	correct	0.28516
402.8164062	n/a	103121	nontarget	correct	0.40234
403.21875	n/a	103224	rt	correct	0.40234
403.8828125	n/a	103394	nontarget	correct	0.29688
404.1796875	n/a	103470	rt	correct	0.29688
404.9492188	n/a	103667	nontarget	correct	0.28516
405.234375	n/a	103740	rt	correct	0.28516
406.0273438	n/a	103943	nontarget	correct	0.31641
406.34375	n/a	104024	rt	correct	0.31641
407.09375	n/a	104216	nontarget	correct	0.53906
407.6328125	n/a	104354	rt	correct	0.53906
408.5742188	n/a	104595	nontarget	correct	0.41016
408.984375	n/a	104700	rt	correct	0.41016
409.640625	n/a	104868	nontarget	correct	0.31641
409.9570312	n/a	104949	rt	correct	0.31641
410.7070312	n/a	105141	nontarget	correct	0.25
410.9570312	n/a	105205	rt	correct	0.25
411.7734375	n/a	105414	nontarget	correct	0.27344
412.046875	n/a	105484	rt	correct	0.27344
412.8398438	n/a	105687	target	correct	n/a
414.3203125	n/a	106066	nontarget	correct	0.30469
414.625	n/a	106144	rt	correct	0.30469
415.3867188	n/a	106339	nontarget	correct	0.34766
415.734375	n/a	106428	rt	correct	0.34766
416.453125	n/a	106612	target	correct	n/a
417.9335938	n/a	106991	nontarget	correct	0.30859
418.2421875	n/a	107070	rt	correct	0.30859
419	n/a	107264	nontarget	correct	0.375
419.375	n/a	107360	rt	correct	0.375
420.0664062	n/a	107537	nontarget	correct	0.27734
420.34375	n/a	107608	rt	correct	0.27734
421.1328125	n/a	107810	nontarget	correct	0.41406
421.546875	n/a	107916	rt	correct	0.41406
422.203125	n/a	108084	nontarget	correct	0.375
422.578125	n/a	108180	rt	correct	0.375
423.28125	n/a	108360	nontarget	correct	0.3125
423.59375	n/a	108440	rt	correct	0.3125
424.3476562	n/a	108633	nontarget	correct	0.33203
424.6796875	n/a	108718	rt	correct	0.33203
425.4140625	n/a	108906	nontarget	correct	0.33984
425.7539062	n/a	108993	rt	correct	0.33984
426.4960938	n/a	109183	nontarget	correct	0.30469
426.8007812	n/a	109261	rt	correct	0.30469
427.5625	n/a	109456	nontarget	correct	0.31641
427.8789062	n/a	109537	rt	correct	0.31641
428.6289062	n/a	109729	nontarget	correct	0.31641
428.9453125	n/a	109810	rt	correct	0.31641
429.6796875	n/a	109998	nontarget	correct	0.35938
430.0390625	n/a	110090	rt	correct	0.35938
430.7460938	n/a	110271	nontarget	correct	0.35156
431.0976562	n/a	110361	rt	correct	0.35156
431.8125	n/a	110544	nontarget	correct	0.30859
432.1210938	n/a	110623	rt	correct	0.30859
432.8828125	n/a	110818	nontarget	correct	0.38672
433.2695312	n/a	110917	rt	correct	0.38672
433.9492188	n/a	111091	nontarget	correct	0.28125
434.2304688	n/a	111163	rt	correct	0.28125
435.0273438	n/a	111367	nontarget	correct	0.48828
435.515625	n/a	111492	rt	correct	0.48828
436.5078125	n/a	111746	nontarget	correct	0.27734
436.7851562	n/a	111817	rt	correct	0.27734
437.5859375	n/a	112022	nontarget	correct	0.3125
437.8984375	n/a	112102	rt	correct	0.3125
438.6523438	n/a	112295	nontarget	correct	0.39453
439.046875	n/a	112396	rt	correct	0.39453
439.7226562	n/a	112569	nontarget	correct	0.32031
440.0429688	n/a	112651	rt	correct	0.32031
440.8007812	n/a	112845	nontarget	correct	0.30469
441.1054688	n/a	112923	rt	correct	0.30469
441.8671875	n/a	113118	nontarget	correct	0.27344
442.140625	n/a	113188	rt	correct	0.27344
442.9335938	n/a	113391	nontarget	correct	0.24219
443.1757812	n/a	113453	rt	correct	0.24219
444.015625	n/a	113668	nontarget	correct	0.33984
444.3554688	n/a	113755	rt	correct	0.33984
445.0820312	n/a	113941	nontarget	correct	0.36719
445.4492188	n/a	114035	rt	correct	0.36719
446.1484375	n/a	114214	nontarget	correct	0.30859
446.4570312	n/a	114293	rt	correct	0.30859
447.2265625	n/a	114490	nontarget	correct	0.25391
447.4804688	n/a	114555	rt	correct	0.25391
448.2929688	n/a	114763	nontarget	correct	0.31641
448.609375	n/a	114844	rt	correct	0.31641
449.359375	n/a	115036	nontarget	correct	0.33594
449.6953125	n/a	115122	rt	correct	0.33594
450.4414062	n/a	115313	nontarget	correct	0.27734
450.71875	n/a	115384	rt	correct	0.27734
451.5078125	n/a	115586	nontarget	correct	0.28516
451.7929688	n/a	115659	rt	correct	0.28516
452.5742188	n/a	115859	nontarget	correct	0.29688
452.8710938	n/a	115935	rt	correct	0.29688
453.640625	n/a	116132	nontarget	correct	0.22656
453.8671875	n/a	116190	rt	correct	0.22656
454.7070312	n/a	116405	nontarget	correct	0.28516
454.9921875	n/a	116478	rt	correct	0.28516
455.7734375	n/a	116678	nontarget	correct	0.32031
456.09375	n/a	116760	rt	correct	0.32031
456.8554688	n/a	116955	nontarget	correct	0.375
457.2304688	n/a	117051	rt	correct	0.375
457.921875	n/a	117228	nontarget	correct	0.30859
458.2304688	n/a	117307	rt	correct	0.30859
458.9882812	n/a	117501	target	correct	n/a
460.4804688	n/a	117883	nontarget	correct	0.28125
460.7617188	n/a	117955	rt	correct	0.28125
461.546875	n/a	118156	nontarget	correct	0.25781
461.8046875	n/a	118222	rt	correct	0.25781
462.6132812	n/a	118429	nontarget	correct	0.26172
462.875	n/a	118496	rt	correct	0.26172
463.6796875	n/a	118702	nontarget	correct	0.40625
464.0859375	n/a	118806	rt	correct	0.40625
464.7460938	n/a	118975	target	correct	n/a
466.2265625	n/a	119354	nontarget	correct	0.23438
466.4609375	n/a	119414	rt	correct	0.23438
467.3085938	n/a	119631	nontarget	correct	0.24219
467.5507812	n/a	119693	rt	correct	0.24219
468.375	n/a	119904	nontarget	correct	0.28906
468.6640625	n/a	119978	rt	correct	0.28906
469.4414062	n/a	120177	nontarget	correct	0.33203
469.7734375	n/a	120262	rt	correct	0.33203
470.5195312	n/a	120453	nontarget	correct	0.44141
470.9609375	n/a	120566	rt	correct	0.44141
471.5859375	n/a	120726	nontarget	correct	0.38672
471.9726562	n/a	120825	rt	correct	0.38672
472.6523438	n/a	120999	nontarget	correct	0.53906
473.1914062	n/a	121137	rt	correct	0.53906
474.1328125	n/a	121378	nontarget	correct	0.36328
474.4960938	n/a	121471	rt	correct	0.36328
475.1992188	n/a	121651	nontarget	correct	0.26172
475.4609375	n/a	121718	rt	correct	0.26172
476.265625	n/a	121924	nontarget	correct	0.21875
476.484375	n/a	121980	rt	correct	0.21875
477.3320312	n/a	122197	nontarget	correct	0.25
477.5820312	n/a	122261	rt	correct	0.25
478.4140625	n/a	122474	target	correct	n/a
479.8945312	n/a	122853	nontarget	correct	0.26172
480.15625	n/a	122920	rt	correct	0.26172
480.9609375	n/a	123126	nontarget	correct	0.28125
481.2421875	n/a	123198	rt	correct	0.28125
482.0273438	n/a	123399	nontarget	correct	0.32812
482.3554688	n/a	123483	rt	correct	0.32812
483.09375	n/a	123672	nontarget	correct	0.24609
483.3398438	n/a	123735	rt	correct	0.24609
484.1601562	n/a	123945	nontarget	correct	0.29688
484.4570312	n/a	124021	rt	correct	0.29688
485.2265625	n/a	124218	nontarget	correct	0.23047
485.4570312	n/a	124277	rt	correct	0.23047
486.3046875	n/a	124494	nontarget	correct	0.23047
486.5351562	n/a	124553	rt	correct	0.23047
487.3710938	n/a	124767	nontarget	correct	0.22656
487.5976562	n/a	124825	rt	correct	0.22656
488.4414062	n/a	125041	nontarget	correct	0.22266
488.6640625	n/a	125098	rt	correct	0.22266
489.5195312	n/a	125317	nontarget	correct	0.28516
489.8046875	n/a	125390	rt	correct	0.28516
490.5859375	n/a	125590	nontarget	correct	0.30469
490.890625	n/a	125668	rt	correct	0.30469
491.6523438	n/a	125863	nontarget	correct	0.21484
491.8671875	n/a	125918	rt	correct	0.21484
492.734375	n/a	126140	nontarget	correct	0.18359
492.9179688	n/a	126187	rt	correct	0.18359
493.8007812	n/a	126413	nontarget	correct	0.20703
494.0078125	n/a	126466	rt	correct	0.20703
494.8671875	n/a	126686	nontarget	correct	0.15234
495.0195312	n/a	126725	rt	correct	0.15234
495.9453125	n/a	126962	nontarget	correct	0.21875
496.1640625	n/a	127018	rt	correct	0.21875
497.0117188	n/a	127235	nontarget	correct	0.26562
497.2773438	n/a	127303	rt	correct	0.26562
498.078125	n/a	127508	nontarget	correct	0.26172
498.3398438	n/a	127575	rt	correct	0.26172
499.1601562	n/a	127785	nontarget	correct	0.25
499.4101562	n/a	127849	rt	correct	0.25
500.2265625	n/a	128058	nontarget	correct	0.28125
500.5078125	n/a	128130	rt	correct	0.28125
501.2929688	n/a	128331	nontarget	correct	0.24609
501.5390625	n/a	128394	rt	correct	0.24609
502.3710938	n/a	128607	target	incorrect	0.17578
502.546875	n/a	128652	rt	incorrect	0.17578
503.4414062	n/a	128881	nontarget	correct	0.3125
503.7539062	n/a	128961	rt	correct	0.3125
504.5078125	n/a	129154	nontarget	correct	0.41016
504.9179688	n/a	129259	rt	correct	0.41016
505.5742188	n/a	129427	nontarget	incorrect	n/a
507.0507812	n/a	129805	nontarget	correct	0.25781
507.3085938	n/a	129871	rt	correct	0.25781
508.1328125	n/a	130082	nontarget	correct	0.41406
508.546875	n/a	130188	rt	correct	0.41406
509.1992188	n/a	130355	nontarget	correct	0.25
509.4492188	n/a	130419	rt	correct	0.25
510.265625	n/a	130628	target	correct	n/a
511.7460938	n/a	131007	nontarget	correct	0.22266
511.96875	n/a	131064	rt	correct	0.22266
512.8242188	n/a	131283	nontarget	correct	0.37109
513.1953125	n/a	131378	rt	correct	0.37109
513.890625	n/a	131556	target	correct	n/a
515.3710938	n/a	131935	nontarget	correct	0.28516
515.65625	n/a	132008	rt	correct	0.28516
516.4375	n/a	132208	nontarget	correct	0.25391
516.6914062	n/a	132273	rt	correct	0.25391
517.5078125	n/a	132482	nontarget	correct	0.33203
517.8398438	n/a	132567	rt	correct	0.33203
518.5742188	n/a	132755	nontarget	correct	0.23828
518.8125	n/a	132816	rt	correct	0.23828
519.640625	n/a	133028	nontarget	incorrect	n/a
521.1054688	n/a	133403	nontarget	correct	0.23828
521.34375	n/a	133464	rt	correct	0.23828
522.1875	n/a	133680	nontarget	correct	0.28516
522.4726562	n/a	133753	rt	correct	0.28516
523.2539062	n/a	133953	target	correct	n/a
524.7304688	n/a	134331	nontarget	correct	0.16016
524.890625	n/a	134372	rt	correct	0.16016
525.8007812	n/a	134605	nontarget	correct	0.38281
526.1835938	n/a	134703	rt	correct	0.38281
526.8671875	n/a	134878	nontarget	correct	0.25781
527.125	n/a	134944	rt	correct	0.25781
527.9335938	n/a	135151	nontarget	correct	0.24219
528.1757812	n/a	135213	rt	correct	0.24219
529	n/a	135424	nontarget	correct	0.22656
529.2265625	n/a	135482	rt	correct	0.22656
530.078125	n/a	135700	nontarget	correct	0.28125
530.359375	n/a	135772	rt	correct	0.28125
531.1601562	n/a	135977	nontarget	correct	0.17188
531.3320312	n/a	136021	rt	correct	0.17188
532.2265625	n/a	136250	nontarget	correct	0.36328
532.5898438	n/a	136343	rt	correct	0.36328
533.2929688	n/a	136523	nontarget	correct	0.24609
533.5390625	n/a	136586	rt	correct	0.24609
534.359375	n/a	136796	nontarget	correct	0.28125
534.640625	n/a	136868	rt	correct	0.28125
535.4257812	n/a	137069	nontarget	correct	0.39062
535.8164062	n/a	137169	rt	correct	0.39062
536.4921875	n/a	137342	nontarget	correct	0.31641
536.8085938	n/a	137423	rt	correct	0.31641
537.5585938	n/a	137615	target	correct	n/a
539.0390625	n/a	137994	nontarget	correct	0.28906
539.328125	n/a	138068	rt	correct	0.28906
540.1054688	n/a	138267	nontarget	correct	0.25
540.3554688	n/a	138331	rt	correct	0.25
541.171875	n/a	138540	nontarget	incorrect	n/a
542.6523438	n/a	138919	target	incorrect	0.23047
542.8828125	n/a	138978	rt	incorrect	0.23047
543.71875	n/a	139192	nontarget	correct	0.27734
543.9960938	n/a	139263	rt	correct	0.27734
544.7851562	n/a	139465	nontarget	correct	0.26172
545.046875	n/a	139532	rt	correct	0.26172
545.8515625	n/a	139738	nontarget	correct	0.1875
546.0390625	n/a	139786	rt	correct	0.1875
546.9179688	n/a	140011	target	incorrect	0.23047
547.1484375	n/a	140070	rt	incorrect	0.23047
547.984375	n/a	140284	nontarget	correct	0.40234
548.3867188	n/a	140387	rt	correct	0.40234
549.0664062	n/a	140561	nontarget	correct	0.35547
549.421875	n/a	140652	rt	correct	0.35547
550.1328125	n/a	140834	nontarget	correct	0.24219
550.375	n/a	140896	rt	correct	0.24219
551.1992188	n/a	141107	nontarget	correct	0.26172
551.4609375	n/a	141174	rt	correct	0.26172
552.2773438	n/a	141383	nontarget	correct	0.30859
552.5859375	n/a	141462	rt	correct	0.30859
553.34375	n/a	141656	nontarget	correct	0.25391
553.5976562	n/a	141721	rt	correct	0.25391
554.4101562	n/a	141929	nontarget	correct	0.46484
554.875	n/a	142048	rt	correct	0.46484
555.4921875	n/a	142206	nontarget	correct	0.38672
555.8789062	n/a	142305	rt	correct	0.38672
556.5585938	n/a	142479	target	correct	n/a
558.0390625	n/a	142858	nontarget	correct	0.30469
558.34375	n/a	142936	rt	correct	0.30469
559.1054688	n/a	143131	nontarget	correct	0.24609
559.3515625	n/a	143194	rt	correct	0.24609
560.171875	n/a	143404	nontarget	correct	0.23438
560.40625	n/a	143464	rt	correct	0.23438
561.2382812	n/a	143677	target	incorrect	0.23438
561.4726562	n/a	143737	rt	incorrect	0.23438
562.3046875	n/a	143950	nontarget	correct	0.43359
562.7382812	n/a	144061	rt	correct	0.43359
563.3828125	n/a	144226	nontarget	correct	0.15625
563.5390625	n/a	144266	rt	correct	0.15625
564.453125	n/a	144500	nontarget	correct	0.34375
564.796875	n/a	144588	rt	correct	0.34375
565.5195312	n/a	144773	nontarget	correct	0.29688
565.8164062	n/a	144849	rt	correct	0.29688
566.5859375	n/a	145046	nontarget	correct	0.3125
566.8984375	n/a	145126	rt	correct	0.3125
567.6523438	n/a	145319	nontarget	correct	0.32031
567.9726562	n/a	145401	rt	correct	0.32031
568.71875	n/a	145592	nontarget	correct	0.29297
569.0117188	n/a	145667	rt	correct	0.29297
569.7851562	n/a	145865	nontarget	correct	0.3125
570.0976562	n/a	145945	rt	correct	0.3125
570.8515625	n/a	146138	target	incorrect	0.26562
571.1171875	n/a	146206	rt	incorrect	0.26562
571.9179688	n/a	146411	nontarget	correct	0.28906
572.2070312	n/a	146485	rt	correct	0.28906
572.9960938	n/a	146687	nontarget	correct	0.25391
573.25	n/a	146752	rt	correct	0.25391
574.0664062	n/a	146961	nontarget	correct	0.29297
574.359375	n/a	147036	rt	correct	0.29297
575.1328125	n/a	147234	nontarget	correct	0.29297
575.4257812	n/a	147309	rt	correct	0.29297
576.1992188	n/a	147507	nontarget	correct	0.46484
576.6640625	n/a	147626	rt	correct	0.46484
577.6757812	n/a	147885	nontarget	incorrect	n/a
579.15625	n/a	148264	target	incorrect	0.25
579.40625	n/a	148328	rt	incorrect	0.25
580.2226562	n/a	148537	nontarget	correct	0.42969
580.6523438	n/a	148647	rt	correct	0.42969
581.2890625	n/a	148810	nontarget	correct	0.51172
581.8007812	n/a	148941	rt	correct	0.51172
582.7695312	n/a	149189	nontarget	incorrect	n/a
584.2382812	n/a	149565	nontarget	correct	0.22656
584.4648438	n/a	149623	rt	correct	0.22656
585.3046875	n/a	149838	nontarget	correct	0.25781
585.5625	n/a	149904	rt	correct	0.25781
586.3710938	n/a	150111	target	correct	n/a
587.8515625	n/a	150490	nontarget	correct	0.24609
588.0976562	n/a	150553	rt	correct	0.24609
588.9179688	n/a	150763	target	correct	n/a
590.3828125	n/a	151138	nontarget	correct	0.38281
590.765625	n/a	151236	rt	correct	0.38281
591.4492188	n/a	151411	nontarget	correct	0.44922
591.8984375	n/a	151526	rt	correct	0.44922
592.515625	n/a	151684	nontarget	correct	0.32031
592.8359375	n/a	151766	rt	correct	0.32031
593.5859375	n/a	151958	nontarget	correct	0.28906
593.875	n/a	152032	rt	correct	0.28906
594.6640625	n/a	152234	nontarget	correct	0.29297
594.9570312	n/a	152309	rt	correct	0.29297
595.7304688	n/a	152507	nontarget	correct	0.35938
596.0898438	n/a	152599	rt	correct	0.35938
596.796875	n/a	152780	nontarget	correct	0.3125
597.109375	n/a	152860	rt	correct	0.3125
597.8789062	n/a	153057	nontarget	correct	0.27344
598.1523438	n/a	153127	rt	correct	0.27344
598.9453125	n/a	153330	nontarget	correct	0.25781
599.203125	n/a	153396	rt	correct	0.25781
600.0117188	n/a	153603	nontarget	correct	0.42188
600.4335938	n/a	153711	rt	correct	0.42188
601.0898438	n/a	153879	nontarget	correct	0.34375
601.4335938	n/a	153967	rt	correct	0.34375
602.15625	n/a	154152	nontarget	correct	0.27344
602.4296875	n/a	154222	rt	correct	0.27344
603.2226562	n/a	154425	target	correct	n/a
604.703125	n/a	154804	nontarget	correct	0.27344
604.9765625	n/a	154874	rt	correct	0.27344
605.7695312	n/a	155077	nontarget	correct	0.375
606.1445312	n/a	155173	rt	correct	0.375
606.8359375	n/a	155350	nontarget	correct	0.33203
607.1679688	n/a	155435	rt	correct	0.33203
607.9023438	n/a	155623	nontarget	correct	0.28906
608.1914062	n/a	155697	rt	correct	0.28906
608.9570312	n/a	155893	nontarget	correct	0.30078
609.2578125	n/a	155970	rt	correct	0.30078
610.0234375	n/a	156166	nontarget	correct	0.27734
610.3007812	n/a	156237	rt	correct	0.27734
611.0898438	n/a	156439	nontarget	correct	0.27344
611.3632812	n/a	156509	rt	correct	0.27344
612.15625	n/a	156712	nontarget	correct	0.30078
612.4570312	n/a	156789	rt	correct	0.30078
613.2226562	n/a	156985	nontarget	correct	0.25391
613.4765625	n/a	157050	rt	correct	0.25391
614.3046875	n/a	157262	target	incorrect	0.23438
614.5390625	n/a	157322	rt	incorrect	0.23438
615.3828125	n/a	157538	nontarget	correct	0.25781
615.640625	n/a	157604	rt	correct	0.25781
616.4492188	n/a	157811	nontarget	correct	0.33203
616.78125	n/a	157896	rt	correct	0.33203
617.515625	n/a	158084	nontarget	correct	0.32031
617.8359375	n/a	158166	rt	correct	0.32031
618.5820312	n/a	158357	nontarget	correct	0.28516
618.8671875	n/a	158430	rt	correct	0.28516
619.6484375	n/a	158630	target	incorrect	0.34375
619.9921875	n/a	158718	rt	incorrect	0.34375
620.7148438	n/a	158903	nontarget	correct	0.48438
621.1992188	n/a	159027	rt	correct	0.48438
622.1953125	n/a	159282	target	correct	n/a
623.6757812	n/a	159661	nontarget	correct	0.29688
623.9726562	n/a	159737	rt	correct	0.29688
624.7578125	n/a	159938	nontarget	correct	0.36328
625.1210938	n/a	160031	rt	correct	0.36328
625.8242188	n/a	160211	nontarget	correct	0.24609
626.0703125	n/a	160274	rt	correct	0.24609
626.890625	n/a	160484	nontarget	correct	0.31641
627.2070312	n/a	160565	rt	correct	0.31641
627.96875	n/a	160760	nontarget	correct	0.44141
628.4101562	n/a	160873	rt	correct	0.44141
629.0351562	n/a	161033	target	correct	n/a
630.515625	n/a	161412	nontarget	correct	0.30469
630.8203125	n/a	161490	rt	correct	0.30469
631.5820312	n/a	161685	nontarget	incorrect	n/a
633.0507812	n/a	162061	nontarget	correct	0.30469
633.3554688	n/a	162139	rt	correct	0.30469
634.1171875	n/a	162334	nontarget	correct	0.39844
634.515625	n/a	162436	rt	correct	0.39844
635.1835938	n/a	162607	nontarget	correct	0.40234
635.5859375	n/a	162710	rt	correct	0.40234
636.25	n/a	162880	nontarget	correct	0.37109
636.6210938	n/a	162975	rt	correct	0.37109
637.328125	n/a	163156	nontarget	correct	0.28125
637.609375	n/a	163228	rt	correct	0.28125
638.3984375	n/a	163430	nontarget	correct	0.4375
638.8359375	n/a	163542	rt	correct	0.4375
639.4648438	n/a	163703	nontarget	correct	0.44531
639.9101562	n/a	163817	rt	correct	0.44531
640.5429688	n/a	163979	target	correct	n/a
642.0234375	n/a	164358	nontarget	correct	0.46094
642.484375	n/a	164476	rt	correct	0.46094
643.1015625	n/a	164634	nontarget	correct	0.26172
643.3632812	n/a	164701	rt	correct	0.26172
644.1679688	n/a	164907	nontarget	correct	0.29297
644.4609375	n/a	164982	rt	correct	0.29297
645.234375	n/a	165180	nontarget	correct	0.29297
645.5273438	n/a	165255	rt	correct	0.29297
646.3164062	n/a	165457	nontarget	correct	0.48828
646.8046875	n/a	165582	rt	correct	0.48828
647.796875	n/a	165836	nontarget	incorrect	n/a
649.2773438	n/a	166215	nontarget	correct	0.23438
649.5117188	n/a	166275	rt	correct	0.23438
650.3554688	n/a	166491	nontarget	correct	0.27734
650.6328125	n/a	166562	rt	correct	0.27734
651.421875	n/a	166764	nontarget	correct	0.35547
651.7773438	n/a	166855	rt	correct	0.35547
652.4882812	n/a	167037	nontarget	correct	0.19922
652.6875	n/a	167088	rt	correct	0.19922
653.5703125	n/a	167314	nontarget	correct	0.074219
653.6445312	n/a	167333	rt	correct	0.074219
654.6367188	n/a	167587	nontarget	correct	0.29688
654.9335938	n/a	167663	rt	correct	0.29688
655.703125	n/a	167860	nontarget	correct	0.22656
655.9296875	n/a	167918	rt	correct	0.22656
656.78125	n/a	168136	nontarget	correct	0.3125
657.09375	n/a	168216	rt	correct	0.3125
657.8515625	n/a	168410	nontarget	correct	0.29688
658.1484375	n/a	168486	rt	correct	0.29688
658.9140625	n/a	168682	nontarget	correct	0.24609
659.1601562	n/a	168745	rt	correct	0.24609
659.9960938	n/a	168959	target	incorrect	0.17578
660.171875	n/a	169004	rt	incorrect	0.17578
661.0625	n/a	169232	nontarget	correct	0.21094
661.2734375	n/a	169286	rt	correct	0.21094
662.1289062	n/a	169505	nontarget	correct	0.24219
662.3710938	n/a	169567	rt	correct	0.24219
663.1953125	n/a	169778	target	correct	n/a
664.6757812	n/a	170157	nontarget	correct	0.22266
664.8984375	n/a	170214	rt	correct	0.22266
665.7421875	n/a	170430	nontarget	correct	0.20703
665.9492188	n/a	170483	rt	correct	0.20703
666.8085938	n/a	170703	nontarget	correct	0.22656
667.0351562	n/a	170761	rt	correct	0.22656
667.875	n/a	170976	nontarget	correct	0.28125
668.15625	n/a	171048	rt	correct	0.28125
668.9414062	n/a	171249	nontarget	correct	0.3125
669.2539062	n/a	171329	rt	correct	0.3125
670.0078125	n/a	171522	nontarget	correct	0.28516
670.2929688	n/a	171595	rt	correct	0.28516
671.0898438	n/a	171799	nontarget	correct	0.37109
671.4609375	n/a	171894	rt	correct	0.37109
672.15625	n/a	172072	nontarget	correct	0.089844
672.2460938	n/a	172095	rt	correct	0.089844
673.2226562	n/a	172345	nontarget	correct	0.23047
673.453125	n/a	172404	rt	correct	0.23047
674.3007812	n/a	172621	nontarget	correct	0.26172
674.5625	n/a	172688	rt	correct	0.26172
675.3671875	n/a	172894	nontarget	correct	0.32812
675.6953125	n/a	172978	rt	correct	0.32812
676.4335938	n/a	173167	nontarget	correct	0.22266
676.65625	n/a	173224	rt	correct	0.22266
677.515625	n/a	173444	nontarget	correct	0.19922
677.7148438	n/a	173495	rt	correct	0.19922
678.5820312	n/a	173717	nontarget	correct	0.22266
678.8046875	n/a	173774	rt	correct	0.22266
679.6484375	n/a	173990	nontarget	correct	0.26953
679.9179688	n/a	174059	rt	correct	0.26953
680.7304688	n/a	174267	nontarget	correct	0.3125
681.0429688	n/a	174347	rt	correct	0.3125
681.796875	n/a	174540	nontarget	correct	0.28125
682.078125	n/a	174612	rt	correct	0.28125
682.8632812	n/a	174813	nontarget	correct	0.25
683.1132812	n/a	174877	rt	correct	0.25
683.9414062	n/a	175089	nontarget	correct	0.22656
684.1679688	n/a	175147	rt	correct	0.22656
685.0078125	n/a	175362	nontarget	correct	0.28125
685.2890625	n/a	175434	rt	correct	0.28125
