onset	duration	sample	value	response_type	congruence	response_time	response_out_of_range	largeletter	smallletter
5.421875	n/a	1388	largeTSmallH	n/a	incongruent	n/a	n/a	T	H
21.84765625	n/a	5593	largeTSmallT	n/a	congruent	n/a	n/a	T	T
53.984375	n/a	13820	largeTSmallT	correct	congruent	1.1328	no	T	T
55.1171875	n/a	14110	responseLargeT	correct	n/a	1.1328	no	n/a	n/a
56.19921875	n/a	14387	largeHSmallT	correct	incongruent	1.2891	no	H	T
57.48828125	n/a	14717	responseLargeH	correct	n/a	1.2891	no	n/a	n/a
58.55859375	n/a	14991	largeHSmallT	correct	incongruent	0.80469	no	H	T
59.36328125	n/a	15197	responseLargeH	correct	n/a	0.80469	no	n/a	n/a
60.4375	n/a	15472	largeHSmallT	correct	incongruent	0.82031	no	H	T
61.2578125	n/a	15682	responseLargeH	correct	n/a	0.82031	no	n/a	n/a
62.33203125	n/a	15957	largeTSmallH	correct	incongruent	0.49609	no	T	H
62.828125	n/a	16084	responseLargeT	correct	n/a	0.49609	no	n/a	n/a
63.890625	n/a	16356	largeHSmallH	correct	congruent	0.75781	no	H	H
64.6484375	n/a	16550	responseLargeH	correct	n/a	0.75781	no	n/a	n/a
65.71875	n/a	16824	largeTSmallH	correct	incongruent	0.48828	no	T	H
66.20703125	n/a	16949	responseLargeT	correct	n/a	0.48828	no	n/a	n/a
67.27734375	n/a	17223	largeTSmallT	correct	congruent	0.66797	no	T	T
67.9453125	n/a	17394	responseLargeT	correct	n/a	0.66797	no	n/a	n/a
69.01171875	n/a	17667	largeTSmallT	correct	congruent	0.4375	no	T	T
69.44921875	n/a	17779	responseLargeT	correct	n/a	0.4375	no	n/a	n/a
70.51953125	n/a	18053	largeHSmallH	correct	congruent	0.48828	no	H	H
71.0078125	n/a	18178	responseLargeH	correct	n/a	0.48828	no	n/a	n/a
72.06640625	n/a	18449	largeHSmallH	correct	congruent	0.46094	no	H	H
72.52734375	n/a	18567	responseLargeH	correct	n/a	0.46094	no	n/a	n/a
73.59765625	n/a	18841	largeTSmallT	correct	congruent	0.44922	no	T	T
74.046875	n/a	18956	responseLargeT	correct	n/a	0.44922	no	n/a	n/a
75.10546875	n/a	19227	largeHSmallH	correct	congruent	0.44922	no	H	H
75.5546875	n/a	19342	responseLargeH	correct	n/a	0.44922	no	n/a	n/a
76.625	n/a	19616	largeHSmallH	correct	congruent	0.42578	no	H	H
77.05078125	n/a	19725	responseLargeH	correct	n/a	0.42578	no	n/a	n/a
78.1171875	n/a	19998	largeTSmallH	correct	incongruent	0.33984	no	T	H
78.45703125	n/a	20085	responseLargeT	correct	n/a	0.33984	no	n/a	n/a
79.53125	n/a	20360	largeHSmallT	correct	incongruent	0.76172	no	H	T
80.29296875	n/a	20555	responseLargeH	correct	n/a	0.76172	no	n/a	n/a
81.37109375	n/a	20831	largeHSmallH	correct	congruent	0.61328	no	H	H
81.984375	n/a	20988	responseLargeH	correct	n/a	0.61328	no	n/a	n/a
83.05078125	n/a	21261	largeHSmallT	correct	incongruent	0.45703	no	H	T
83.5078125	n/a	21378	responseLargeH	correct	n/a	0.45703	no	n/a	n/a
84.5859375	n/a	21654	largeTSmallT	correct	congruent	0.58594	no	T	T
85.171875	n/a	21804	responseLargeT	correct	n/a	0.58594	no	n/a	n/a
86.23828125	n/a	22077	largeHSmallH	correct	congruent	0.53906	no	H	H
86.77734375	n/a	22215	responseLargeH	correct	n/a	0.53906	no	n/a	n/a
87.8359375	n/a	22486	largeTSmallT	correct	congruent	0.47266	no	T	T
88.30859375	n/a	22607	responseLargeT	correct	n/a	0.47266	no	n/a	n/a
89.37109375	n/a	22879	largeTSmallT	correct	congruent	0.44531	no	T	T
89.81640625	n/a	22993	responseLargeT	correct	n/a	0.44531	no	n/a	n/a
90.87890625	n/a	23265	largeHSmallT	correct	incongruent	0.44531	no	H	T
91.32421875	n/a	23379	responseLargeH	correct	n/a	0.44531	no	n/a	n/a
92.3984375	n/a	23654	largeTSmallT	correct	congruent	0.67969	no	T	T
93.078125	n/a	23828	responseLargeT	correct	n/a	0.67969	no	n/a	n/a
94.14453125	n/a	24101	largeTSmallT	correct	congruent	0.57031	no	T	T
94.71484375	n/a	24247	responseLargeT	correct	n/a	0.57031	no	n/a	n/a
95.78515625	n/a	24521	largeTSmallH	correct	incongruent	0.42578	no	T	H
96.2109375	n/a	24630	responseLargeT	correct	n/a	0.42578	no	n/a	n/a
97.27734375	n/a	24903	largeHSmallH	correct	congruent	0.41797	no	H	H
97.6953125	n/a	25010	responseLargeH	correct	n/a	0.41797	no	n/a	n/a
98.7578125	n/a	25282	largeHSmallT	correct	incongruent	0.41016	no	H	T
99.16796875	n/a	25387	responseLargeH	correct	n/a	0.41016	no	n/a	n/a
100.2226562	n/a	25657	largeTSmallH	correct	incongruent	0.95312	no	T	H
101.1757812	n/a	25901	responseLargeT	correct	n/a	0.95312	no	n/a	n/a
102.2382812	n/a	26173	largeTSmallH	correct	incongruent	0.45703	no	T	H
102.6953125	n/a	26290	responseLargeT	correct	n/a	0.45703	no	n/a	n/a
103.7695312	n/a	26565	largeTSmallH	correct	incongruent	0.58984	no	T	H
104.359375	n/a	26716	responseLargeT	correct	n/a	0.58984	no	n/a	n/a
105.4257812	n/a	26989	largeHSmallT	correct	incongruent	0.42188	no	H	T
105.8476562	n/a	27097	responseLargeH	correct	n/a	0.42188	no	n/a	n/a
106.9179688	n/a	27371	largeHSmallT	correct	incongruent	0.46094	no	H	T
107.3789062	n/a	27489	responseLargeH	correct	n/a	0.46094	no	n/a	n/a
108.4492188	n/a	27763	largeHSmallT	correct	incongruent	0.45703	no	H	T
108.90625	n/a	27880	responseLargeH	correct	n/a	0.45703	no	n/a	n/a
109.984375	n/a	28156	largeTSmallT	correct	congruent	0.45312	no	T	T
110.4375	n/a	28272	responseLargeT	correct	n/a	0.45312	no	n/a	n/a
111.5039062	n/a	28545	largeHSmallH	correct	congruent	0.5	no	H	H
112.0039062	n/a	28673	responseLargeH	correct	n/a	0.5	no	n/a	n/a
113.0625	n/a	28944	largeHSmallT	error	incongruent	0.62891	no	H	T
113.6914062	n/a	29105	responseLargeT	error	n/a	0.62891	no	n/a	n/a
114.7421875	n/a	29374	largeTSmallH	correct	incongruent	1.2656	no	T	H
116.0078125	n/a	29698	responseLargeT	correct	n/a	1.2656	no	n/a	n/a
117.078125	n/a	29972	largeHSmallH	correct	congruent	0.66797	no	H	H
117.7460938	n/a	30143	responseLargeH	correct	n/a	0.66797	no	n/a	n/a
118.8085938	n/a	30415	largeHSmallT	correct	incongruent	1.1641	no	H	T
119.9726562	n/a	30713	responseLargeH	correct	n/a	1.1641	no	n/a	n/a
121.0351562	n/a	30985	largeTSmallH	correct	incongruent	0.55469	no	T	H
121.5898438	n/a	31127	responseLargeT	correct	n/a	0.55469	no	n/a	n/a
122.6640625	n/a	31402	largeTSmallH	correct	incongruent	0.62891	no	T	H
123.2929688	n/a	31563	responseLargeT	correct	n/a	0.62891	no	n/a	n/a
124.3554688	n/a	31835	largeHSmallH	correct	congruent	0.42969	no	H	H
124.7851562	n/a	31945	responseLargeH	correct	n/a	0.42969	no	n/a	n/a
125.8632812	n/a	32221	largeTSmallT	correct	congruent	0.45312	no	T	T
126.3164062	n/a	32337	responseLargeT	correct	n/a	0.45312	no	n/a	n/a
127.3828125	n/a	32610	largeTSmallH	correct	incongruent	0.48438	no	T	H
127.8671875	n/a	32734	responseLargeT	correct	n/a	0.48438	no	n/a	n/a
128.9296875	n/a	33006	largeHSmallT	correct	incongruent	0.42969	no	H	T
129.359375	n/a	33116	responseLargeH	correct	n/a	0.42969	no	n/a	n/a
130.4375	n/a	33392	largeHSmallH	correct	congruent	0.58203	no	H	H
131.0195312	n/a	33541	responseLargeH	correct	n/a	0.58203	no	n/a	n/a
132.078125	n/a	33812	largeTSmallT	correct	congruent	0.44531	no	T	T
132.5234375	n/a	33926	responseLargeT	correct	n/a	0.44531	no	n/a	n/a
133.5976562	n/a	34201	largeTSmallH	correct	incongruent	1.0938	no	T	H
134.6914062	n/a	34481	responseLargeT	correct	n/a	1.0938	no	n/a	n/a
135.7695312	n/a	34757	largeTSmallT	correct	congruent	0.78516	no	T	T
136.5546875	n/a	34958	responseLargeT	correct	n/a	0.78516	no	n/a	n/a
137.625	n/a	35232	largeHSmallT	correct	incongruent	0.52344	no	H	T
138.1484375	n/a	35366	responseLargeH	correct	n/a	0.52344	no	n/a	n/a
139.2109375	n/a	35638	largeTSmallH	correct	incongruent	0.77734	no	T	H
139.9882812	n/a	35837	responseLargeT	correct	n/a	0.77734	no	n/a	n/a
141.0507812	n/a	36109	largeTSmallT	correct	congruent	0.66406	no	T	T
141.7148438	n/a	36279	responseLargeT	correct	n/a	0.66406	no	n/a	n/a
142.78125	n/a	36552	largeHSmallT	correct	incongruent	0.53906	no	H	T
143.3203125	n/a	36690	responseLargeH	correct	n/a	0.53906	no	n/a	n/a
144.3945312	n/a	36965	largeTSmallH	correct	incongruent	0.86328	no	T	H
145.2578125	n/a	37186	responseLargeT	correct	n/a	0.86328	no	n/a	n/a
146.328125	n/a	37460	largeHSmallT	correct	incongruent	0.53906	no	H	T
146.8671875	n/a	37598	responseLargeH	correct	n/a	0.53906	no	n/a	n/a
147.9296875	n/a	37870	largeTSmallT	correct	congruent	0.44141	no	T	T
148.3710938	n/a	37983	responseLargeT	correct	n/a	0.44141	no	n/a	n/a
149.4492188	n/a	38259	largeHSmallH	correct	congruent	0.48828	no	H	H
149.9375	n/a	38384	responseLargeH	correct	n/a	0.48828	no	n/a	n/a
151.0078125	n/a	38658	largeHSmallH	correct	congruent	0.51172	no	H	H
151.5195312	n/a	38789	responseLargeH	correct	n/a	0.51172	no	n/a	n/a
152.5820312	n/a	39061	largeTSmallT	correct	congruent	0.56641	no	T	T
153.1484375	n/a	39206	responseLargeT	correct	n/a	0.56641	no	n/a	n/a
154.2226562	n/a	39481	largeTSmallT	correct	congruent	0.75	no	T	T
154.9726562	n/a	39673	responseLargeT	correct	n/a	0.75	no	n/a	n/a
156.0507812	n/a	39949	largeHSmallT	correct	incongruent	0.55469	no	H	T
156.6054688	n/a	40091	responseLargeH	correct	n/a	0.55469	no	n/a	n/a
157.6640625	n/a	40362	largeTSmallH	correct	incongruent	0.48828	no	T	H
158.1523438	n/a	40487	responseLargeT	correct	n/a	0.48828	no	n/a	n/a
159.2109375	n/a	40758	largeTSmallH	correct	incongruent	0.59766	no	T	H
159.8085938	n/a	40911	responseLargeT	correct	n/a	0.59766	no	n/a	n/a
160.875	n/a	41184	largeHSmallT	correct	incongruent	0.55469	no	H	T
161.4296875	n/a	41326	responseLargeH	correct	n/a	0.55469	no	n/a	n/a
162.5039062	n/a	41601	largeTSmallH	correct	incongruent	0.78516	no	T	H
163.2890625	n/a	41802	responseLargeT	correct	n/a	0.78516	no	n/a	n/a
164.3554688	n/a	42075	largeHSmallH	correct	congruent	0.60547	no	H	H
164.9609375	n/a	42230	responseLargeH	correct	n/a	0.60547	no	n/a	n/a
166.0234375	n/a	42502	largeHSmallH	correct	congruent	1.7109	yes	H	H
167.734375	n/a	42940	responseLargeH	correct	n/a	1.7109	yes	n/a	n/a
168.8085938	n/a	43215	largeHSmallT	correct	incongruent	0.53906	no	H	T
169.3476562	n/a	43353	responseLargeH	correct	n/a	0.53906	no	n/a	n/a
170.4101562	n/a	43625	largeHSmallT	correct	incongruent	0.39062	no	H	T
170.8007812	n/a	43725	responseLargeH	correct	n/a	0.39062	no	n/a	n/a
171.8632812	n/a	43997	largeTSmallH	correct	incongruent	0.42188	no	T	H
172.2851562	n/a	44105	responseLargeT	correct	n/a	0.42188	no	n/a	n/a
173.3554688	n/a	44379	largeTSmallH	correct	incongruent	0.48047	no	T	H
173.8359375	n/a	44502	responseLargeT	correct	n/a	0.48047	no	n/a	n/a
174.9023438	n/a	44775	largeHSmallH	correct	congruent	0.41406	no	H	H
175.3164062	n/a	44881	responseLargeH	correct	n/a	0.41406	no	n/a	n/a
176.3828125	n/a	45154	largeTSmallH	correct	incongruent	0.375	no	T	H
176.7578125	n/a	45250	responseLargeT	correct	n/a	0.375	no	n/a	n/a
177.8242188	n/a	45523	largeHSmallT	correct	incongruent	0.42578	no	H	T
178.25	n/a	45632	responseLargeH	correct	n/a	0.42578	no	n/a	n/a
179.3164062	n/a	45905	largeHSmallH	correct	congruent	0.51953	no	H	H
179.8359375	n/a	46038	responseLargeH	correct	n/a	0.51953	no	n/a	n/a
180.890625	n/a	46308	largeHSmallT	correct	incongruent	0.57031	no	H	T
181.4609375	n/a	46454	responseLargeH	correct	n/a	0.57031	no	n/a	n/a
182.5273438	n/a	46727	largeHSmallT	correct	incongruent	0.51562	no	H	T
183.0429688	n/a	46859	responseLargeH	correct	n/a	0.51562	no	n/a	n/a
184.1015625	n/a	47130	largeTSmallH	correct	incongruent	0.41016	no	T	H
184.5117188	n/a	47235	responseLargeT	correct	n/a	0.41016	no	n/a	n/a
185.5703125	n/a	47506	largeTSmallT	correct	congruent	0.74609	no	T	T
186.3164062	n/a	47697	responseLargeT	correct	n/a	0.74609	no	n/a	n/a
187.3828125	n/a	47970	largeHSmallH	correct	congruent	0.52734	no	H	H
187.9101562	n/a	48105	responseLargeH	correct	n/a	0.52734	no	n/a	n/a
188.9804688	n/a	48379	largeTSmallH	correct	incongruent	1.4219	no	T	H
190.4023438	n/a	48743	responseLargeT	correct	n/a	1.4219	no	n/a	n/a
191.4765625	n/a	49018	largeHSmallH	correct	congruent	0.54688	no	H	H
192.0234375	n/a	49158	responseLargeH	correct	n/a	0.54688	no	n/a	n/a
193.1015625	n/a	49434	largeTSmallH	correct	incongruent	1.5117	yes	T	H
194.6132812	n/a	49821	responseLargeT	correct	n/a	1.5117	yes	n/a	n/a
195.6875	n/a	50096	largeHSmallH	correct	congruent	0.54688	no	H	H
196.234375	n/a	50236	responseLargeH	correct	n/a	0.54688	no	n/a	n/a
197.3007812	n/a	50509	largeTSmallH	correct	incongruent	1.2227	no	T	H
198.5234375	n/a	50822	responseLargeT	correct	n/a	1.2227	no	n/a	n/a
199.5820312	n/a	51093	largeTSmallT	correct	congruent	2.293	yes	T	T
201.875	n/a	51680	responseLargeT	correct	n/a	2.293	yes	n/a	n/a
202.9414062	n/a	51953	largeTSmallT	correct	congruent	0.64062	no	T	T
203.5820312	n/a	52117	responseLargeT	correct	n/a	0.64062	no	n/a	n/a
204.6601562	n/a	52393	largeTSmallH	correct	incongruent	0.60547	no	T	H
205.265625	n/a	52548	responseLargeT	correct	n/a	0.60547	no	n/a	n/a
206.3398438	n/a	52823	largeHSmallH	correct	congruent	0.58594	no	H	H
206.9257812	n/a	52973	responseLargeH	correct	n/a	0.58594	no	n/a	n/a
207.9960938	n/a	53247	largeTSmallH	correct	incongruent	0.89453	no	T	H
208.890625	n/a	53476	responseLargeT	correct	n/a	0.89453	no	n/a	n/a
209.953125	n/a	53748	largeTSmallT	correct	congruent	0.97656	no	T	T
210.9296875	n/a	53998	responseLargeT	correct	n/a	0.97656	no	n/a	n/a
212.0078125	n/a	54274	largeTSmallH	correct	incongruent	0.625	no	T	H
212.6328125	n/a	54434	responseLargeT	correct	n/a	0.625	no	n/a	n/a
213.703125	n/a	54708	largeHSmallH	correct	congruent	0.44531	no	H	H
214.1484375	n/a	54822	responseLargeH	correct	n/a	0.44531	no	n/a	n/a
215.2070312	n/a	55093	largeTSmallT	correct	congruent	0.46484	no	T	T
215.671875	n/a	55212	responseLargeT	correct	n/a	0.46484	no	n/a	n/a
216.7421875	n/a	55486	largeHSmallT	correct	incongruent	0.66406	no	H	T
217.40625	n/a	55656	responseLargeH	correct	n/a	0.66406	no	n/a	n/a
218.4765625	n/a	55930	largeTSmallT	correct	congruent	0.46484	no	T	T
218.9414062	n/a	56049	responseLargeT	correct	n/a	0.46484	no	n/a	n/a
220.0078125	n/a	56322	largeTSmallT	correct	congruent	0.58203	no	T	T
220.5898438	n/a	56471	responseLargeT	correct	n/a	0.58203	no	n/a	n/a
221.6601562	n/a	56745	largeTSmallH	correct	incongruent	0.62891	no	T	H
222.2890625	n/a	56906	responseLargeT	correct	n/a	0.62891	no	n/a	n/a
223.3554688	n/a	57179	largeTSmallT	correct	congruent	0.44531	no	T	T
223.8007812	n/a	57293	responseLargeT	correct	n/a	0.44531	no	n/a	n/a
224.875	n/a	57568	largeTSmallT	correct	congruent	0.35938	no	T	T
225.234375	n/a	57660	responseLargeT	correct	n/a	0.35938	no	n/a	n/a
226.3007812	n/a	57933	largeHSmallT	correct	incongruent	0.53125	no	H	T
226.8320312	n/a	58069	responseLargeH	correct	n/a	0.53125	no	n/a	n/a
227.9023438	n/a	58343	largeTSmallT	correct	congruent	0.56641	no	T	T
228.46875	n/a	58488	responseLargeT	correct	n/a	0.56641	no	n/a	n/a
229.5429688	n/a	58763	largeTSmallT	correct	congruent	0.5	no	T	T
230.0429688	n/a	58891	responseLargeT	correct	n/a	0.5	no	n/a	n/a
231.1132812	n/a	59165	largeHSmallT	correct	incongruent	0.63281	no	H	T
231.7460938	n/a	59327	responseLargeH	correct	n/a	0.63281	no	n/a	n/a
232.8085938	n/a	59599	largeHSmallH	correct	congruent	0.50781	no	H	H
233.3164062	n/a	59729	responseLargeH	correct	n/a	0.50781	no	n/a	n/a
234.3828125	n/a	60002	largeHSmallH	correct	congruent	0.85547	no	H	H
235.2382812	n/a	60221	responseLargeH	correct	n/a	0.85547	no	n/a	n/a
236.3007812	n/a	60493	largeTSmallT	correct	congruent	0.45703	no	T	T
236.7578125	n/a	60610	responseLargeT	correct	n/a	0.45703	no	n/a	n/a
237.8203125	n/a	60882	largeHSmallT	correct	incongruent	0.53516	no	H	T
238.3554688	n/a	61019	responseLargeH	correct	n/a	0.53516	no	n/a	n/a
239.4335938	n/a	61295	largeTSmallH	correct	incongruent	0.41406	no	T	H
239.8476562	n/a	61401	responseLargeT	correct	n/a	0.41406	no	n/a	n/a
240.9140625	n/a	61674	largeHSmallH	correct	congruent	0.54297	no	H	H
241.4570312	n/a	61813	responseLargeH	correct	n/a	0.54297	no	n/a	n/a
242.5273438	n/a	62087	largeTSmallT	correct	congruent	0.54297	no	T	T
243.0703125	n/a	62226	responseLargeT	correct	n/a	0.54297	no	n/a	n/a
244.140625	n/a	62500	largeTSmallT	correct	congruent	0.60547	no	T	T
244.7460938	n/a	62655	responseLargeT	correct	n/a	0.60547	no	n/a	n/a
245.8085938	n/a	62927	largeHSmallT	correct	incongruent	0.50781	no	H	T
246.3164062	n/a	63057	responseLargeH	correct	n/a	0.50781	no	n/a	n/a
247.3828125	n/a	63330	largeHSmallH	correct	congruent	0.5	no	H	H
247.8828125	n/a	63458	responseLargeH	correct	n/a	0.5	no	n/a	n/a
248.953125	n/a	63732	largeHSmallH	correct	congruent	0.53906	no	H	H
249.4921875	n/a	63870	responseLargeH	correct	n/a	0.53906	no	n/a	n/a
250.5664062	n/a	64145	largeHSmallT	correct	incongruent	0.98047	no	H	T
251.546875	n/a	64396	responseLargeH	correct	n/a	0.98047	no	n/a	n/a
252.6054688	n/a	64667	largeHSmallT	correct	incongruent	0.80469	no	H	T
253.4101562	n/a	64873	responseLargeH	correct	n/a	0.80469	no	n/a	n/a
254.4882812	n/a	65149	largeTSmallH	correct	incongruent	0.52344	no	T	H
255.0117188	n/a	65283	responseLargeT	correct	n/a	0.52344	no	n/a	n/a
256.0742188	n/a	65555	largeHSmallT	correct	incongruent	0.56641	no	H	T
256.640625	n/a	65700	responseLargeH	correct	n/a	0.56641	no	n/a	n/a
257.7148438	n/a	65975	largeHSmallH	correct	congruent	0.60547	no	H	H
258.3203125	n/a	66130	responseLargeH	correct	n/a	0.60547	no	n/a	n/a
259.3945312	n/a	66405	largeTSmallT	correct	congruent	0.65234	no	T	T
260.046875	n/a	66572	responseLargeT	correct	n/a	0.65234	no	n/a	n/a
261.1132812	n/a	66845	largeHSmallH	correct	congruent	0.5	no	H	H
261.6132812	n/a	66973	responseLargeH	correct	n/a	0.5	no	n/a	n/a
262.6875	n/a	67248	largeHSmallH	correct	congruent	0.50781	no	H	H
263.1953125	n/a	67378	responseLargeH	correct	n/a	0.50781	no	n/a	n/a
264.2617188	n/a	67651	largeHSmallT	correct	incongruent	0.67969	no	H	T
264.9414062	n/a	67825	responseLargeH	correct	n/a	0.67969	no	n/a	n/a
266.0078125	n/a	68098	largeTSmallT	correct	congruent	0.53125	no	T	T
266.5390625	n/a	68234	responseLargeT	correct	n/a	0.53125	no	n/a	n/a
267.59375	n/a	68504	largeHSmallH	correct	congruent	0.51953	no	H	H
268.1132812	n/a	68637	responseLargeH	correct	n/a	0.51953	no	n/a	n/a
269.1796875	n/a	68910	largeHSmallH	correct	congruent	0.50391	no	H	H
269.6835938	n/a	69039	responseLargeH	correct	n/a	0.50391	no	n/a	n/a
270.7539062	n/a	69313	largeTSmallT	correct	congruent	0.47656	no	T	T
271.2304688	n/a	69435	responseLargeT	correct	n/a	0.47656	no	n/a	n/a
272.3007812	n/a	69709	largeHSmallH	correct	congruent	0.58594	no	H	H
272.8867188	n/a	69859	responseLargeH	correct	n/a	0.58594	no	n/a	n/a
273.953125	n/a	70132	largeHSmallH	correct	congruent	0.59375	no	H	H
274.546875	n/a	70284	responseLargeH	correct	n/a	0.59375	no	n/a	n/a
275.6210938	n/a	70559	largeHSmallH	correct	congruent	0.53125	no	H	H
276.1523438	n/a	70695	responseLargeH	correct	n/a	0.53125	no	n/a	n/a
277.234375	n/a	70972	largeTSmallT	correct	congruent	0.67578	no	T	T
277.9101562	n/a	71145	responseLargeT	correct	n/a	0.67578	no	n/a	n/a
278.9804688	n/a	71419	largeTSmallH	correct	incongruent	0.84375	no	T	H
279.8242188	n/a	71635	responseLargeT	correct	n/a	0.84375	no	n/a	n/a
280.8867188	n/a	71907	largeHSmallH	correct	congruent	0.35938	no	H	H
281.2460938	n/a	71999	responseLargeH	correct	n/a	0.35938	no	n/a	n/a
282.3125	n/a	72272	largeHSmallT	correct	incongruent	0.55859	no	H	T
282.8710938	n/a	72415	responseLargeH	correct	n/a	0.55859	no	n/a	n/a
283.9414062	n/a	72689	largeHSmallT	correct	incongruent	0.78125	no	H	T
284.7226562	n/a	72889	responseLargeH	correct	n/a	0.78125	no	n/a	n/a
285.7929688	n/a	73163	largeHSmallH	correct	congruent	0.55078	no	H	H
286.34375	n/a	73304	responseLargeH	correct	n/a	0.55078	no	n/a	n/a
287.421875	n/a	73580	largeTSmallH	correct	incongruent	0.60938	no	T	H
288.03125	n/a	73736	responseLargeT	correct	n/a	0.60938	no	n/a	n/a
289.1015625	n/a	74010	largeTSmallT	correct	congruent	1.4258	no	T	T
290.5273438	n/a	74375	responseLargeT	correct	n/a	1.4258	no	n/a	n/a
291.59375	n/a	74648	largeTSmallT	correct	congruent	0.53516	no	T	T
292.1289062	n/a	74785	responseLargeT	correct	n/a	0.53516	no	n/a	n/a
293.2070312	n/a	75061	largeTSmallT	correct	congruent	1.0156	no	T	T
294.2226562	n/a	75321	responseLargeT	correct	n/a	1.0156	no	n/a	n/a
295.2851562	n/a	75593	largeHSmallT	correct	incongruent	0.56641	no	H	T
295.8515625	n/a	75738	responseLargeH	correct	n/a	0.56641	no	n/a	n/a
296.9140625	n/a	76010	largeTSmallH	correct	incongruent	0.64453	no	T	H
297.5585938	n/a	76175	responseLargeT	correct	n/a	0.64453	no	n/a	n/a
298.6328125	n/a	76450	largeHSmallT	correct	incongruent	0.52344	no	H	T
299.15625	n/a	76584	responseLargeH	correct	n/a	0.52344	no	n/a	n/a
300.21875	n/a	76856	largeHSmallH	correct	congruent	0.46484	no	H	H
300.6835938	n/a	76975	responseLargeH	correct	n/a	0.46484	no	n/a	n/a
301.7539062	n/a	77249	largeHSmallT	correct	incongruent	0.69141	no	H	T
302.4453125	n/a	77426	responseLargeH	correct	n/a	0.69141	no	n/a	n/a
303.5117188	n/a	77699	largeTSmallH	correct	incongruent	0.56641	no	T	H
304.078125	n/a	77844	responseLargeT	correct	n/a	0.56641	no	n/a	n/a
305.1523438	n/a	78119	largeHSmallH	correct	congruent	0.39844	no	H	H
305.5507812	n/a	78221	responseLargeH	correct	n/a	0.39844	no	n/a	n/a
306.6210938	n/a	78495	largeHSmallH	correct	congruent	0.43359	no	H	H
307.0546875	n/a	78606	responseLargeH	correct	n/a	0.43359	no	n/a	n/a
308.125	n/a	78880	largeHSmallH	correct	congruent	0.375	no	H	H
308.5	n/a	78976	responseLargeH	correct	n/a	0.375	no	n/a	n/a
309.5664062	n/a	79249	largeHSmallH	correct	congruent	0.43359	no	H	H
310	n/a	79360	responseLargeH	correct	n/a	0.43359	no	n/a	n/a
311.0585938	n/a	79631	largeHSmallH	correct	congruent	0.5	no	H	H
311.5585938	n/a	79759	responseLargeH	correct	n/a	0.5	no	n/a	n/a
312.6210938	n/a	80031	largeHSmallH	correct	congruent	0.52734	no	H	H
313.1484375	n/a	80166	responseLargeH	correct	n/a	0.52734	no	n/a	n/a
314.21875	n/a	80440	largeHSmallT	correct	incongruent	0.4375	no	H	T
314.65625	n/a	80552	responseLargeH	correct	n/a	0.4375	no	n/a	n/a
315.7265625	n/a	80826	largeHSmallT	correct	incongruent	0.62891	no	H	T
316.3554688	n/a	80987	responseLargeH	correct	n/a	0.62891	no	n/a	n/a
317.4335938	n/a	81263	largeHSmallT	correct	incongruent	0.49609	no	H	T
317.9296875	n/a	81390	responseLargeH	correct	n/a	0.49609	no	n/a	n/a
319.0078125	n/a	81666	largeTSmallT	correct	congruent	0.42969	no	T	T
319.4375	n/a	81776	responseLargeT	correct	n/a	0.42969	no	n/a	n/a
320.5	n/a	82048	largeHSmallH	correct	congruent	0.46875	no	H	H
320.96875	n/a	82168	responseLargeH	correct	n/a	0.46875	no	n/a	n/a
322.046875	n/a	82444	largeTSmallH	correct	incongruent	0.36719	no	T	H
322.4140625	n/a	82538	responseLargeT	correct	n/a	0.36719	no	n/a	n/a
323.484375	n/a	82812	largeHSmallT	correct	incongruent	0.92188	no	H	T
324.40625	n/a	83048	responseLargeH	correct	n/a	0.92188	no	n/a	n/a
325.4726562	n/a	83321	largeTSmallH	correct	incongruent	0.47656	no	T	H
325.9492188	n/a	83443	responseLargeT	correct	n/a	0.47656	no	n/a	n/a
327.0195312	n/a	83717	largeTSmallT	correct	congruent	0.47266	no	T	T
327.4921875	n/a	83838	responseLargeT	correct	n/a	0.47266	no	n/a	n/a
328.5664062	n/a	84113	largeHSmallT	correct	incongruent	1.0391	no	H	T
329.6054688	n/a	84379	responseLargeH	correct	n/a	1.0391	no	n/a	n/a
330.671875	n/a	84652	largeTSmallT	correct	congruent	0.53516	no	T	T
331.2070312	n/a	84789	responseLargeT	correct	n/a	0.53516	no	n/a	n/a
332.2734375	n/a	85062	largeTSmallH	correct	incongruent	0.62891	no	T	H
332.9023438	n/a	85223	responseLargeT	correct	n/a	0.62891	no	n/a	n/a
333.9648438	n/a	85495	largeTSmallH	correct	incongruent	0.42578	no	T	H
334.390625	n/a	85604	responseLargeT	correct	n/a	0.42578	no	n/a	n/a
335.4570312	n/a	85877	largeTSmallT	correct	congruent	0.48438	no	T	T
335.9414062	n/a	86001	responseLargeT	correct	n/a	0.48438	no	n/a	n/a
337.0039062	n/a	86273	largeTSmallT	correct	congruent	0.55078	no	T	T
337.5546875	n/a	86414	responseLargeT	correct	n/a	0.55078	no	n/a	n/a
338.6328125	n/a	86690	largeTSmallH	correct	incongruent	0.40234	no	T	H
339.0351562	n/a	86793	responseLargeT	correct	n/a	0.40234	no	n/a	n/a
340.0976562	n/a	87065	largeHSmallT	correct	incongruent	0.72656	no	H	T
340.8242188	n/a	87251	responseLargeH	correct	n/a	0.72656	no	n/a	n/a
341.8867188	n/a	87523	largeTSmallH	correct	incongruent	0.51953	no	T	H
342.40625	n/a	87656	responseLargeT	correct	n/a	0.51953	no	n/a	n/a
343.484375	n/a	87932	largeTSmallT	correct	congruent	0.60547	no	T	T
344.0898438	n/a	88087	responseLargeT	correct	n/a	0.60547	no	n/a	n/a
345.1640625	n/a	88362	largeHSmallT	correct	incongruent	0.42578	no	H	T
345.5898438	n/a	88471	responseLargeH	correct	n/a	0.42578	no	n/a	n/a
346.6601562	n/a	88745	largeTSmallH	correct	incongruent	1.9336	yes	T	H
348.59375	n/a	89240	responseLargeT	correct	n/a	1.9336	yes	n/a	n/a
349.6601562	n/a	89513	largeTSmallH	correct	incongruent	0.58203	no	T	H
350.2421875	n/a	89662	responseLargeT	correct	n/a	0.58203	no	n/a	n/a
351.3125	n/a	89936	largeTSmallT	correct	congruent	0.37109	no	T	T
351.6835938	n/a	90031	responseLargeT	correct	n/a	0.37109	no	n/a	n/a
352.7539062	n/a	90305	largeTSmallH	correct	incongruent	0.42969	no	T	H
353.1835938	n/a	90415	responseLargeT	correct	n/a	0.42969	no	n/a	n/a
354.2460938	n/a	90687	largeHSmallT	correct	incongruent	0.48438	no	H	T
354.7304688	n/a	90811	responseLargeH	correct	n/a	0.48438	no	n/a	n/a
355.8046875	n/a	91086	largeTSmallH	correct	incongruent	0.51562	no	T	H
356.3203125	n/a	91218	responseLargeT	correct	n/a	0.51562	no	n/a	n/a
357.390625	n/a	91492	largeTSmallH	correct	incongruent	0.65625	no	T	H
358.046875	n/a	91660	responseLargeT	correct	n/a	0.65625	no	n/a	n/a
359.1132812	n/a	91933	largeHSmallT	correct	incongruent	0.53906	no	H	T
359.6523438	n/a	92071	responseLargeH	correct	n/a	0.53906	no	n/a	n/a
360.7265625	n/a	92346	largeTSmallT	correct	congruent	0.64844	no	T	T
361.375	n/a	92512	responseLargeT	correct	n/a	0.64844	no	n/a	n/a
362.4453125	n/a	92786	largeHSmallT	correct	incongruent	0.5625	no	H	T
363.0078125	n/a	92930	responseLargeH	correct	n/a	0.5625	no	n/a	n/a
364.0703125	n/a	93202	largeHSmallH	correct	congruent	0.46484	no	H	H
364.5351562	n/a	93321	responseLargeH	correct	n/a	0.46484	no	n/a	n/a
365.6054688	n/a	93595	largeHSmallH	correct	congruent	0.5	no	H	H
366.1054688	n/a	93723	responseLargeH	correct	n/a	0.5	no	n/a	n/a
367.1796875	n/a	93998	largeTSmallT	correct	congruent	0.63672	no	T	T
367.8164062	n/a	94161	responseLargeT	correct	n/a	0.63672	no	n/a	n/a
368.8984375	n/a	94438	largeTSmallH	correct	incongruent	0.68359	no	T	H
369.5820312	n/a	94613	responseLargeT	correct	n/a	0.68359	no	n/a	n/a
370.65625	n/a	94888	largeTSmallT	correct	congruent	1.6758	yes	T	T
372.3320312	n/a	95317	responseLargeT	correct	n/a	1.6758	yes	n/a	n/a
373.40625	n/a	95592	largeTSmallT	correct	congruent	0.54297	no	T	T
373.9492188	n/a	95731	responseLargeT	correct	n/a	0.54297	no	n/a	n/a
375.0195312	n/a	96005	largeHSmallH	correct	congruent	0.49219	no	H	H
375.5117188	n/a	96131	responseLargeH	correct	n/a	0.49219	no	n/a	n/a
376.578125	n/a	96404	largeHSmallT	correct	incongruent	0.97656	no	H	T
377.5546875	n/a	96654	responseLargeH	correct	n/a	0.97656	no	n/a	n/a
378.6328125	n/a	96930	largeHSmallT	error	incongruent	1.7305	yes	H	T
380.3632812	n/a	97373	responseLargeT	error	n/a	1.7305	yes	n/a	n/a
381.4296875	n/a	97646	largeTSmallH	correct	incongruent	0.87891	no	T	H
382.3085938	n/a	97871	responseLargeT	correct	n/a	0.87891	no	n/a	n/a
383.3632812	n/a	98141	largeTSmallT	correct	congruent	0.55469	no	T	T
383.9179688	n/a	98283	responseLargeT	correct	n/a	0.55469	no	n/a	n/a
384.9921875	n/a	98558	largeHSmallH	correct	congruent	0.42188	no	H	H
385.4140625	n/a	98666	responseLargeH	correct	n/a	0.42188	no	n/a	n/a
386.484375	n/a	98940	largeTSmallH	correct	incongruent	0.44922	no	T	H
386.9335938	n/a	99055	responseLargeT	correct	n/a	0.44922	no	n/a	n/a
388.0039062	n/a	99329	largeHSmallT	correct	incongruent	0.54688	no	H	T
388.5507812	n/a	99469	responseLargeH	correct	n/a	0.54688	no	n/a	n/a
389.6171875	n/a	99742	largeTSmallH	correct	incongruent	0.50391	no	T	H
390.1210938	n/a	99871	responseLargeT	correct	n/a	0.50391	no	n/a	n/a
391.1914062	n/a	100145	largeTSmallH	correct	incongruent	0.62891	no	T	H
391.8203125	n/a	100306	responseLargeT	correct	n/a	0.62891	no	n/a	n/a
401.6835938	n/a	102831	largeTSmallH	correct	incongruent	1.2695	no	T	H
402.953125	n/a	103156	responseSmallH	correct	n/a	1.2695	no	n/a	n/a
404.03125	n/a	103432	largeHSmallH	correct	congruent	0.66406	no	H	H
404.6953125	n/a	103602	responseSmallH	correct	n/a	0.66406	no	n/a	n/a
405.765625	n/a	103876	largeTSmallH	correct	incongruent	0.50781	no	T	H
406.2734375	n/a	104006	responseSmallH	correct	n/a	0.50781	no	n/a	n/a
407.3515625	n/a	104282	largeTSmallH	correct	incongruent	0.43359	no	T	H
407.7851562	n/a	104393	responseSmallH	correct	n/a	0.43359	no	n/a	n/a
408.8554688	n/a	104667	largeTSmallH	correct	incongruent	0.39844	no	T	H
409.2539062	n/a	104769	responseSmallH	correct	n/a	0.39844	no	n/a	n/a
410.3242188	n/a	105043	largeTSmallH	correct	incongruent	0.39844	no	T	H
410.7226562	n/a	105145	responseSmallH	correct	n/a	0.39844	no	n/a	n/a
411.7890625	n/a	105418	largeTSmallT	correct	congruent	0.43359	no	T	T
412.2226562	n/a	105529	responseSmallT	correct	n/a	0.43359	no	n/a	n/a
413.296875	n/a	105804	largeTSmallH	correct	incongruent	0.49219	no	T	H
413.7890625	n/a	105930	responseSmallH	correct	n/a	0.49219	no	n/a	n/a
414.8554688	n/a	106203	largeTSmallT	correct	congruent	0.39062	no	T	T
415.2460938	n/a	106303	responseSmallT	correct	n/a	0.39062	no	n/a	n/a
416.3085938	n/a	106575	largeHSmallH	correct	congruent	0.57031	no	H	H
416.8789062	n/a	106721	responseSmallH	correct	n/a	0.57031	no	n/a	n/a
417.9375	n/a	106992	largeHSmallT	correct	incongruent	0.4375	no	H	T
418.375	n/a	107104	responseSmallT	correct	n/a	0.4375	no	n/a	n/a
419.4296875	n/a	107374	largeTSmallH	correct	incongruent	0.79688	no	T	H
420.2265625	n/a	107578	responseSmallH	correct	n/a	0.79688	no	n/a	n/a
421.296875	n/a	107852	largeHSmallT	correct	incongruent	0.375	no	H	T
421.671875	n/a	107948	responseSmallT	correct	n/a	0.375	no	n/a	n/a
422.7382812	n/a	108221	largeHSmallT	correct	incongruent	0.53125	no	H	T
423.2695312	n/a	108357	responseSmallT	correct	n/a	0.53125	no	n/a	n/a
424.3359375	n/a	108630	largeTSmallT	correct	congruent	0.60156	no	T	T
424.9375	n/a	108784	responseSmallT	correct	n/a	0.60156	no	n/a	n/a
426.0039062	n/a	109057	largeHSmallH	correct	congruent	0.38281	no	H	H
426.3867188	n/a	109155	responseSmallH	correct	n/a	0.38281	no	n/a	n/a
427.4570312	n/a	109429	largeTSmallH	correct	incongruent	0.55078	no	T	H
428.0078125	n/a	109570	responseSmallH	correct	n/a	0.55078	no	n/a	n/a
429.0703125	n/a	109842	largeHSmallH	correct	congruent	0.50781	no	H	H
429.578125	n/a	109972	responseSmallH	correct	n/a	0.50781	no	n/a	n/a
430.65625	n/a	110248	largeTSmallT	correct	congruent	0.51172	no	T	T
431.1679688	n/a	110379	responseSmallT	correct	n/a	0.51172	no	n/a	n/a
432.2421875	n/a	110654	largeHSmallT	correct	incongruent	0.57031	no	H	T
432.8125	n/a	110800	responseSmallT	correct	n/a	0.57031	no	n/a	n/a
433.8828125	n/a	111074	largeHSmallH	correct	congruent	0.48047	no	H	H
434.3632812	n/a	111197	responseSmallH	correct	n/a	0.48047	no	n/a	n/a
435.4296875	n/a	111470	largeHSmallT	correct	incongruent	0.62109	no	H	T
436.0507812	n/a	111629	responseSmallT	correct	n/a	0.62109	no	n/a	n/a
437.109375	n/a	111900	largeHSmallT	correct	incongruent	0.5	no	H	T
437.609375	n/a	112028	responseSmallT	correct	n/a	0.5	no	n/a	n/a
438.671875	n/a	112300	largeTSmallH	correct	incongruent	0.49609	no	T	H
439.1679688	n/a	112427	responseSmallH	correct	n/a	0.49609	no	n/a	n/a
440.2304688	n/a	112699	largeTSmallH	correct	incongruent	0.49609	no	T	H
440.7265625	n/a	112826	responseSmallH	correct	n/a	0.49609	no	n/a	n/a
441.7890625	n/a	113098	largeTSmallT	correct	congruent	0.46484	no	T	T
442.2539062	n/a	113217	responseSmallT	correct	n/a	0.46484	no	n/a	n/a
443.3242188	n/a	113491	largeTSmallT	correct	congruent	0.53125	no	T	T
443.8554688	n/a	113627	responseSmallT	correct	n/a	0.53125	no	n/a	n/a
444.921875	n/a	113900	largeTSmallT	correct	congruent	0.46094	no	T	T
445.3828125	n/a	114018	responseSmallT	correct	n/a	0.46094	no	n/a	n/a
446.4570312	n/a	114293	largeHSmallT	correct	incongruent	0.64453	no	H	T
447.1015625	n/a	114458	responseSmallT	correct	n/a	0.64453	no	n/a	n/a
448.1757812	n/a	114733	largeHSmallH	correct	congruent	0.73047	no	H	H
448.90625	n/a	114920	responseSmallH	correct	n/a	0.73047	no	n/a	n/a
449.9765625	n/a	115194	largeTSmallH	correct	incongruent	0.88281	no	T	H
450.859375	n/a	115420	responseSmallH	correct	n/a	0.88281	no	n/a	n/a
451.9375	n/a	115696	largeTSmallH	correct	incongruent	0.51562	no	T	H
452.453125	n/a	115828	responseSmallH	correct	n/a	0.51562	no	n/a	n/a
453.5234375	n/a	116102	largeHSmallH	correct	congruent	0.44141	no	H	H
453.9648438	n/a	116215	responseSmallH	correct	n/a	0.44141	no	n/a	n/a
455.03125	n/a	116488	largeTSmallH	correct	incongruent	0.41797	no	T	H
455.4492188	n/a	116595	responseSmallH	correct	n/a	0.41797	no	n/a	n/a
456.5234375	n/a	116870	largeHSmallH	correct	congruent	0.5	no	H	H
457.0234375	n/a	116998	responseSmallH	correct	n/a	0.5	no	n/a	n/a
458.0976562	n/a	117273	largeHSmallT	correct	incongruent	0.83203	no	H	T
458.9296875	n/a	117486	responseSmallT	correct	n/a	0.83203	no	n/a	n/a
460.0039062	n/a	117761	largeHSmallT	correct	incongruent	0.86328	no	H	T
460.8671875	n/a	117982	responseSmallT	correct	n/a	0.86328	no	n/a	n/a
461.9375	n/a	118256	largeHSmallT	correct	incongruent	0.57812	no	H	T
462.515625	n/a	118404	responseSmallT	correct	n/a	0.57812	no	n/a	n/a
463.5898438	n/a	118679	largeTSmallH	correct	incongruent	0.48047	no	T	H
464.0703125	n/a	118802	responseSmallH	correct	n/a	0.48047	no	n/a	n/a
465.1484375	n/a	119078	largeTSmallH	correct	incongruent	0.58203	no	T	H
465.7304688	n/a	119227	responseSmallH	correct	n/a	0.58203	no	n/a	n/a
466.8007812	n/a	119501	largeHSmallH	correct	congruent	0.64453	no	H	H
467.4453125	n/a	119666	responseSmallH	correct	n/a	0.64453	no	n/a	n/a
468.5078125	n/a	119938	largeHSmallT	correct	incongruent	0.80078	no	H	T
469.3085938	n/a	120143	responseSmallT	correct	n/a	0.80078	no	n/a	n/a
470.375	n/a	120416	largeTSmallT	correct	congruent	0.99219	no	T	T
471.3671875	n/a	120670	responseSmallT	correct	n/a	0.99219	no	n/a	n/a
472.4296875	n/a	120942	largeHSmallH	correct	congruent	0.58203	no	H	H
473.0117188	n/a	121091	responseSmallH	correct	n/a	0.58203	no	n/a	n/a
474.0820312	n/a	121365	largeTSmallT	correct	congruent	0.51172	no	T	T
474.59375	n/a	121496	responseSmallT	correct	n/a	0.51172	no	n/a	n/a
475.65625	n/a	121768	largeTSmallT	correct	congruent	0.55078	no	T	T
476.2070312	n/a	121909	responseSmallT	correct	n/a	0.55078	no	n/a	n/a
477.2695312	n/a	122181	largeTSmallH	correct	incongruent	0.60156	no	T	H
477.8710938	n/a	122335	responseSmallH	correct	n/a	0.60156	no	n/a	n/a
478.9375	n/a	122608	largeHSmallT	correct	incongruent	0.9375	no	H	T
479.875	n/a	122848	responseSmallT	correct	n/a	0.9375	no	n/a	n/a
480.9492188	n/a	123123	largeHSmallH	correct	congruent	0.50391	no	H	H
481.453125	n/a	123252	responseSmallH	correct	n/a	0.50391	no	n/a	n/a
482.5234375	n/a	123526	largeHSmallT	correct	incongruent	0.60156	no	H	T
483.125	n/a	123680	responseSmallT	correct	n/a	0.60156	no	n/a	n/a
484.1875	n/a	123952	largeTSmallT	correct	congruent	0.73047	no	T	T
484.9179688	n/a	124139	responseSmallT	correct	n/a	0.73047	no	n/a	n/a
485.9882812	n/a	124413	largeHSmallT	correct	incongruent	0.59766	no	H	T
486.5859375	n/a	124566	responseSmallT	correct	n/a	0.59766	no	n/a	n/a
487.65625	n/a	124840	largeHSmallT	correct	incongruent	0.55469	no	H	T
488.2109375	n/a	124982	responseSmallT	correct	n/a	0.55469	no	n/a	n/a
489.28125	n/a	125256	largeTSmallH	correct	incongruent	0.53125	no	T	H
489.8125	n/a	125392	responseSmallH	correct	n/a	0.53125	no	n/a	n/a
490.8828125	n/a	125666	largeHSmallH	correct	congruent	0.64062	no	H	H
491.5234375	n/a	125830	responseSmallH	correct	n/a	0.64062	no	n/a	n/a
492.5898438	n/a	126103	largeHSmallH	correct	congruent	0.6875	no	H	H
493.2773438	n/a	126279	responseSmallH	correct	n/a	0.6875	no	n/a	n/a
494.3476562	n/a	126553	largeHSmallT	correct	incongruent	0.54688	no	H	T
494.8945312	n/a	126693	responseSmallT	correct	n/a	0.54688	no	n/a	n/a
495.9765625	n/a	126970	largeHSmallT	correct	incongruent	0.53516	no	H	T
496.5117188	n/a	127107	responseSmallT	correct	n/a	0.53516	no	n/a	n/a
497.5742188	n/a	127379	largeTSmallH	correct	incongruent	0.57031	no	T	H
498.1445312	n/a	127525	responseSmallH	correct	n/a	0.57031	no	n/a	n/a
499.2148438	n/a	127799	largeTSmallT	correct	congruent	0.68359	no	T	T
499.8984375	n/a	127974	responseSmallT	correct	n/a	0.68359	no	n/a	n/a
500.9609375	n/a	128246	largeHSmallT	correct	incongruent	0.86719	no	H	T
501.828125	n/a	128468	responseSmallT	correct	n/a	0.86719	no	n/a	n/a
502.8945312	n/a	128741	largeTSmallH	correct	incongruent	0.59375	no	T	H
503.4882812	n/a	128893	responseSmallH	correct	n/a	0.59375	no	n/a	n/a
504.546875	n/a	129164	largeTSmallT	correct	congruent	0.57031	no	T	T
505.1171875	n/a	129310	responseSmallT	correct	n/a	0.57031	no	n/a	n/a
506.1875	n/a	129584	largeTSmallT	correct	congruent	0.74219	no	T	T
506.9296875	n/a	129774	responseSmallT	correct	n/a	0.74219	no	n/a	n/a
508	n/a	130048	largeTSmallH	correct	incongruent	0.92188	no	T	H
508.921875	n/a	130284	responseSmallH	correct	n/a	0.92188	no	n/a	n/a
510	n/a	130560	largeHSmallT	correct	incongruent	0.58594	no	H	T
510.5859375	n/a	130710	responseSmallT	correct	n/a	0.58594	no	n/a	n/a
511.640625	n/a	130980	largeTSmallH	correct	incongruent	1.6445	yes	T	H
513.2851562	n/a	131401	responseSmallH	correct	n/a	1.6445	yes	n/a	n/a
514.3476562	n/a	131673	largeTSmallH	correct	incongruent	0.63281	no	T	H
514.9804688	n/a	131835	responseSmallH	correct	n/a	0.63281	no	n/a	n/a
516.0429688	n/a	132107	largeHSmallH	correct	congruent	0.73047	no	H	H
516.7734375	n/a	132294	responseSmallH	correct	n/a	0.73047	no	n/a	n/a
517.8398438	n/a	132567	largeHSmallH	correct	congruent	0.55859	no	H	H
518.3984375	n/a	132710	responseSmallH	correct	n/a	0.55859	no	n/a	n/a
519.46875	n/a	132984	largeTSmallH	correct	incongruent	0.55859	no	T	H
520.0273438	n/a	133127	responseSmallH	correct	n/a	0.55859	no	n/a	n/a
521.109375	n/a	133404	largeTSmallH	correct	incongruent	0.47656	no	T	H
521.5859375	n/a	133526	responseSmallH	correct	n/a	0.47656	no	n/a	n/a
522.65625	n/a	133800	largeTSmallH	correct	incongruent	0.61719	no	T	H
523.2734375	n/a	133958	responseSmallH	correct	n/a	0.61719	no	n/a	n/a
524.3476562	n/a	134233	largeHSmallH	correct	congruent	0.47266	no	H	H
524.8203125	n/a	134354	responseSmallH	correct	n/a	0.47266	no	n/a	n/a
525.8945312	n/a	134629	largeTSmallT	correct	congruent	0.48047	no	T	T
526.375	n/a	134752	responseSmallT	correct	n/a	0.48047	no	n/a	n/a
527.4296875	n/a	135022	largeTSmallT	correct	congruent	0.44141	no	T	T
527.8710938	n/a	135135	responseSmallT	correct	n/a	0.44141	no	n/a	n/a
528.9335938	n/a	135407	largeHSmallH	correct	congruent	0.48047	no	H	H
529.4140625	n/a	135530	responseSmallH	correct	n/a	0.48047	no	n/a	n/a
530.4804688	n/a	135803	largeHSmallT	error	incongruent	0.50391	no	H	T
530.984375	n/a	135932	responseSmallH	error	n/a	0.50391	no	n/a	n/a
532.0546875	n/a	136206	largeHSmallH	correct	congruent	0.51953	no	H	H
532.5742188	n/a	136339	responseSmallH	correct	n/a	0.51953	no	n/a	n/a
533.640625	n/a	136612	largeHSmallT	correct	incongruent	0.59375	no	H	T
534.234375	n/a	136764	responseSmallT	correct	n/a	0.59375	no	n/a	n/a
535.2929688	n/a	137035	largeTSmallH	correct	incongruent	0.54688	no	T	H
535.8398438	n/a	137175	responseSmallH	correct	n/a	0.54688	no	n/a	n/a
536.90625	n/a	137448	largeHSmallT	correct	incongruent	0.56641	no	H	T
537.4726562	n/a	137593	responseSmallT	correct	n/a	0.56641	no	n/a	n/a
538.546875	n/a	137868	largeTSmallH	correct	incongruent	0.73047	no	T	H
539.2773438	n/a	138055	responseSmallH	correct	n/a	0.73047	no	n/a	n/a
540.3359375	n/a	138326	largeTSmallH	correct	incongruent	0.48047	no	T	H
540.8164062	n/a	138449	responseSmallH	correct	n/a	0.48047	no	n/a	n/a
541.8828125	n/a	138722	largeTSmallT	correct	congruent	0.83984	no	T	T
542.7226562	n/a	138937	responseSmallT	correct	n/a	0.83984	no	n/a	n/a
543.7890625	n/a	139210	largeTSmallH	correct	incongruent	0.78125	no	T	H
544.5703125	n/a	139410	responseSmallH	correct	n/a	0.78125	no	n/a	n/a
545.640625	n/a	139684	largeHSmallH	correct	congruent	0.52734	no	H	H
546.1679688	n/a	139819	responseSmallH	correct	n/a	0.52734	no	n/a	n/a
547.2265625	n/a	140090	largeHSmallT	correct	incongruent	0.58203	no	H	T
547.8085938	n/a	140239	responseSmallT	correct	n/a	0.58203	no	n/a	n/a
548.8671875	n/a	140510	largeHSmallH	correct	congruent	0.5625	no	H	H
549.4296875	n/a	140654	responseSmallH	correct	n/a	0.5625	no	n/a	n/a
550.4921875	n/a	140926	largeTSmallH	correct	incongruent	0.57031	no	T	H
551.0625	n/a	141072	responseSmallH	correct	n/a	0.57031	no	n/a	n/a
552.1328125	n/a	141346	largeTSmallT	correct	congruent	0.55469	no	T	T
552.6875	n/a	141488	responseSmallT	correct	n/a	0.55469	no	n/a	n/a
553.7460938	n/a	141759	largeTSmallT	correct	congruent	0.91406	no	T	T
554.6601562	n/a	141993	responseSmallT	correct	n/a	0.91406	no	n/a	n/a
555.734375	n/a	142268	largeHSmallH	correct	congruent	0.48438	no	H	H
556.21875	n/a	142392	responseSmallH	correct	n/a	0.48438	no	n/a	n/a
557.2929688	n/a	142667	largeHSmallH	correct	congruent	0.70312	no	H	H
557.9960938	n/a	142847	responseSmallH	correct	n/a	0.70312	no	n/a	n/a
559.0664062	n/a	143121	largeHSmallT	correct	incongruent	0.55469	no	H	T
559.6210938	n/a	143263	responseSmallT	correct	n/a	0.55469	no	n/a	n/a
560.6953125	n/a	143538	largeHSmallT	error	incongruent	0.38281	no	H	T
561.078125	n/a	143636	responseSmallH	error	n/a	0.38281	no	n/a	n/a
562.1484375	n/a	143910	largeTSmallH	correct	incongruent	0.75391	no	T	H
562.9023438	n/a	144103	responseSmallH	correct	n/a	0.75391	no	n/a	n/a
563.9726562	n/a	144377	largeHSmallH	correct	congruent	0.63281	no	H	H
564.6054688	n/a	144539	responseSmallH	correct	n/a	0.63281	no	n/a	n/a
565.6679688	n/a	144811	largeHSmallT	correct	incongruent	0.44922	no	H	T
566.1171875	n/a	144926	responseSmallT	correct	n/a	0.44922	no	n/a	n/a
567.1875	n/a	145200	largeTSmallT	correct	congruent	0.51562	no	T	T
567.703125	n/a	145332	responseSmallT	correct	n/a	0.51562	no	n/a	n/a
568.7734375	n/a	145606	largeHSmallH	correct	congruent	0.46094	no	H	H
569.234375	n/a	145724	responseSmallH	correct	n/a	0.46094	no	n/a	n/a
570.3085938	n/a	145999	largeHSmallT	correct	incongruent	0.38281	no	H	T
570.6914062	n/a	146097	responseSmallT	correct	n/a	0.38281	no	n/a	n/a
571.7617188	n/a	146371	largeHSmallT	correct	incongruent	0.55469	no	H	T
572.3164062	n/a	146513	responseSmallT	correct	n/a	0.55469	no	n/a	n/a
573.3867188	n/a	146787	largeTSmallT	correct	congruent	0.5	no	T	T
573.8867188	n/a	146915	responseSmallT	correct	n/a	0.5	no	n/a	n/a
574.9453125	n/a	147186	largeTSmallT	correct	congruent	0.39453	no	T	T
575.3398438	n/a	147287	responseSmallT	correct	n/a	0.39453	no	n/a	n/a
576.3984375	n/a	147558	largeHSmallH	correct	congruent	0.44141	no	H	H
576.8398438	n/a	147671	responseSmallH	correct	n/a	0.44141	no	n/a	n/a
577.90625	n/a	147944	largeTSmallT	correct	congruent	0.42969	no	T	T
578.3359375	n/a	148054	responseSmallT	correct	n/a	0.42969	no	n/a	n/a
579.3984375	n/a	148326	largeHSmallT	correct	incongruent	0.48047	no	H	T
579.8789062	n/a	148449	responseSmallT	correct	n/a	0.48047	no	n/a	n/a
580.9453125	n/a	148722	largeTSmallH	correct	incongruent	0.57812	no	T	H
581.5234375	n/a	148870	responseSmallH	correct	n/a	0.57812	no	n/a	n/a
582.5859375	n/a	149142	largeHSmallH	correct	congruent	0.69141	no	H	H
583.2773438	n/a	149319	responseSmallH	correct	n/a	0.69141	no	n/a	n/a
584.3476562	n/a	149593	largeTSmallH	correct	incongruent	0.80859	no	T	H
585.15625	n/a	149800	responseSmallH	correct	n/a	0.80859	no	n/a	n/a
586.2148438	n/a	150071	largeTSmallH	correct	incongruent	0.51562	no	T	H
586.7304688	n/a	150203	responseSmallH	correct	n/a	0.51562	no	n/a	n/a
587.7851562	n/a	150473	largeTSmallH	correct	incongruent	0.51172	no	T	H
588.296875	n/a	150604	responseSmallH	correct	n/a	0.51172	no	n/a	n/a
589.375	n/a	150880	largeTSmallT	correct	congruent	0.76172	no	T	T
590.1367188	n/a	151075	responseSmallT	correct	n/a	0.76172	no	n/a	n/a
591.2148438	n/a	151351	largeHSmallT	correct	incongruent	0.94531	no	H	T
592.1601562	n/a	151593	responseSmallT	correct	n/a	0.94531	no	n/a	n/a
593.2265625	n/a	151866	largeHSmallT	correct	incongruent	0.52734	no	H	T
593.7539062	n/a	152001	responseSmallT	correct	n/a	0.52734	no	n/a	n/a
594.828125	n/a	152276	largeTSmallT	correct	congruent	0.54688	no	T	T
595.375	n/a	152416	responseSmallT	correct	n/a	0.54688	no	n/a	n/a
596.453125	n/a	152692	largeHSmallH	correct	congruent	0.71875	no	H	H
597.171875	n/a	152876	responseSmallH	correct	n/a	0.71875	no	n/a	n/a
598.2382812	n/a	153149	largeTSmallT	correct	congruent	0.53906	no	T	T
598.7773438	n/a	153287	responseSmallT	correct	n/a	0.53906	no	n/a	n/a
599.8515625	n/a	153562	largeHSmallH	correct	congruent	0.49609	no	H	H
600.3476562	n/a	153689	responseSmallH	correct	n/a	0.49609	no	n/a	n/a
601.4140625	n/a	153962	largeHSmallH	correct	congruent	0.55078	no	H	H
601.9648438	n/a	154103	responseSmallH	correct	n/a	0.55078	no	n/a	n/a
603.0390625	n/a	154378	largeHSmallH	correct	congruent	0.6875	no	H	H
603.7265625	n/a	154554	responseSmallH	correct	n/a	0.6875	no	n/a	n/a
604.8007812	n/a	154829	largeTSmallT	correct	congruent	0.44141	no	T	T
605.2421875	n/a	154942	responseSmallT	correct	n/a	0.44141	no	n/a	n/a
606.3046875	n/a	155214	largeHSmallH	correct	congruent	0.58984	no	H	H
606.8945312	n/a	155365	responseSmallH	correct	n/a	0.58984	no	n/a	n/a
607.9609375	n/a	155638	largeHSmallT	correct	incongruent	0.53125	no	H	T
608.4921875	n/a	155774	responseSmallT	correct	n/a	0.53125	no	n/a	n/a
609.5585938	n/a	156047	largeHSmallT	correct	incongruent	2.2734	yes	H	T
611.8320312	n/a	156629	responseSmallT	correct	n/a	2.2734	yes	n/a	n/a
612.8945312	n/a	156901	largeHSmallH	correct	congruent	0.53125	no	H	H
613.4257812	n/a	157037	responseSmallH	correct	n/a	0.53125	no	n/a	n/a
614.4921875	n/a	157310	largeHSmallH	correct	congruent	0.56641	no	H	H
615.0585938	n/a	157455	responseSmallH	correct	n/a	0.56641	no	n/a	n/a
616.1210938	n/a	157727	largeTSmallT	correct	congruent	0.47266	no	T	T
616.59375	n/a	157848	responseSmallT	correct	n/a	0.47266	no	n/a	n/a
617.6640625	n/a	158122	largeHSmallH	correct	congruent	0.44531	no	H	H
618.109375	n/a	158236	responseSmallH	correct	n/a	0.44531	no	n/a	n/a
619.1875	n/a	158512	largeTSmallT	correct	congruent	0.53516	no	T	T
619.7226562	n/a	158649	responseSmallT	correct	n/a	0.53516	no	n/a	n/a
620.7851562	n/a	158921	largeHSmallT	correct	incongruent	0.61719	no	H	T
621.4023438	n/a	159079	responseSmallT	correct	n/a	0.61719	no	n/a	n/a
622.4648438	n/a	159351	largeHSmallT	correct	incongruent	0.51953	no	H	T
622.984375	n/a	159484	responseSmallT	correct	n/a	0.51953	no	n/a	n/a
624.0507812	n/a	159757	largeHSmallH	correct	congruent	0.51953	no	H	H
624.5703125	n/a	159890	responseSmallH	correct	n/a	0.51953	no	n/a	n/a
625.640625	n/a	160164	largeTSmallH	correct	incongruent	1.7227	yes	T	H
627.3632812	n/a	160605	responseSmallH	correct	n/a	1.7227	yes	n/a	n/a
628.4257812	n/a	160877	largeTSmallT	correct	congruent	0.53906	no	T	T
628.9648438	n/a	161015	responseSmallT	correct	n/a	0.53906	no	n/a	n/a
630.0390625	n/a	161290	largeTSmallH	correct	incongruent	0.48047	no	T	H
630.5195312	n/a	161413	responseSmallH	correct	n/a	0.48047	no	n/a	n/a
631.5859375	n/a	161686	largeHSmallT	correct	incongruent	0.45312	no	H	T
632.0390625	n/a	161802	responseSmallT	correct	n/a	0.45312	no	n/a	n/a
633.1054688	n/a	162075	largeHSmallH	correct	congruent	0.55859	no	H	H
633.6640625	n/a	162218	responseSmallH	correct	n/a	0.55859	no	n/a	n/a
634.7304688	n/a	162491	largeTSmallH	correct	incongruent	1.3125	no	T	H
636.0429688	n/a	162827	responseSmallH	correct	n/a	1.3125	no	n/a	n/a
637.1054688	n/a	163099	largeHSmallT	correct	incongruent	0.69141	no	H	T
637.796875	n/a	163276	responseSmallT	correct	n/a	0.69141	no	n/a	n/a
638.8671875	n/a	163550	largeHSmallH	correct	congruent	0.44531	no	H	H
639.3125	n/a	163664	responseSmallH	correct	n/a	0.44531	no	n/a	n/a
640.3867188	n/a	163939	largeHSmallH	correct	congruent	0.89062	no	H	H
641.2773438	n/a	164167	responseSmallH	correct	n/a	0.89062	no	n/a	n/a
642.34375	n/a	164440	largeHSmallT	correct	incongruent	0.67578	no	H	T
643.0195312	n/a	164613	responseSmallT	correct	n/a	0.67578	no	n/a	n/a
644.09375	n/a	164888	largeTSmallH	correct	incongruent	0.52344	no	T	H
644.6171875	n/a	165022	responseSmallH	correct	n/a	0.52344	no	n/a	n/a
645.6796875	n/a	165294	largeHSmallT	correct	incongruent	0.78125	no	H	T
646.4609375	n/a	165494	responseSmallT	correct	n/a	0.78125	no	n/a	n/a
647.5195312	n/a	165765	largeHSmallH	correct	congruent	0.55859	no	H	H
648.078125	n/a	165908	responseSmallH	correct	n/a	0.55859	no	n/a	n/a
649.1445312	n/a	166181	largeTSmallT	correct	congruent	0.82031	no	T	T
649.9648438	n/a	166391	responseSmallT	correct	n/a	0.82031	no	n/a	n/a
651.0390625	n/a	166666	largeTSmallH	correct	incongruent	1.4141	no	T	H
652.453125	n/a	167028	responseSmallH	correct	n/a	1.4141	no	n/a	n/a
653.5195312	n/a	167301	largeHSmallT	correct	incongruent	0.68359	no	H	T
654.203125	n/a	167476	responseSmallT	correct	n/a	0.68359	no	n/a	n/a
655.265625	n/a	167748	largeHSmallT	correct	incongruent	1.5938	yes	H	T
656.859375	n/a	168156	responseSmallT	correct	n/a	1.5938	yes	n/a	n/a
657.9335938	n/a	168431	largeTSmallT	correct	congruent	0.74609	no	T	T
658.6796875	n/a	168622	responseSmallT	correct	n/a	0.74609	no	n/a	n/a
659.7578125	n/a	168898	largeTSmallH	correct	incongruent	0.61328	no	T	H
660.3710938	n/a	169055	responseSmallH	correct	n/a	0.61328	no	n/a	n/a
661.4375	n/a	169328	largeHSmallT	correct	incongruent	0.53906	no	H	T
661.9765625	n/a	169466	responseSmallT	correct	n/a	0.53906	no	n/a	n/a
663.0507812	n/a	169741	largeTSmallT	correct	congruent	0.75781	no	T	T
663.8085938	n/a	169935	responseSmallT	correct	n/a	0.75781	no	n/a	n/a
664.8789062	n/a	170209	largeTSmallT	correct	congruent	0.48828	no	T	T
665.3671875	n/a	170334	responseSmallT	correct	n/a	0.48828	no	n/a	n/a
666.4375	n/a	170608	largeHSmallT	correct	incongruent	0.46094	no	H	T
666.8984375	n/a	170726	responseSmallT	correct	n/a	0.46094	no	n/a	n/a
667.9570312	n/a	170997	largeHSmallH	correct	congruent	0.66406	no	H	H
668.6210938	n/a	171167	responseSmallH	correct	n/a	0.66406	no	n/a	n/a
669.6914062	n/a	171441	largeTSmallH	correct	incongruent	1.1875	no	T	H
670.8789062	n/a	171745	responseSmallH	correct	n/a	1.1875	no	n/a	n/a
671.9570312	n/a	172021	largeTSmallT	correct	congruent	0.5625	no	T	T
672.5195312	n/a	172165	responseSmallT	correct	n/a	0.5625	no	n/a	n/a
673.5976562	n/a	172441	largeTSmallH	correct	incongruent	1.125	no	T	H
674.7226562	n/a	172729	responseSmallH	correct	n/a	1.125	no	n/a	n/a
675.7851562	n/a	173001	largeTSmallT	correct	congruent	0.55078	no	T	T
676.3359375	n/a	173142	responseSmallT	correct	n/a	0.55078	no	n/a	n/a
677.3984375	n/a	173414	largeHSmallH	correct	congruent	0.59375	no	H	H
677.9921875	n/a	173566	responseSmallH	correct	n/a	0.59375	no	n/a	n/a
679.0507812	n/a	173837	largeHSmallT	correct	incongruent	0.61328	no	H	T
679.6640625	n/a	173994	responseSmallT	correct	n/a	0.61328	no	n/a	n/a
680.7304688	n/a	174267	largeHSmallT	correct	incongruent	0.48828	no	H	T
681.21875	n/a	174392	responseSmallT	correct	n/a	0.48828	no	n/a	n/a
682.2773438	n/a	174663	largeHSmallH	correct	congruent	0.49219	no	H	H
682.7695312	n/a	174789	responseSmallH	correct	n/a	0.49219	no	n/a	n/a
683.8359375	n/a	175062	largeTSmallH	correct	incongruent	1.332	no	T	H
685.1679688	n/a	175403	responseSmallH	correct	n/a	1.332	no	n/a	n/a
686.2226562	n/a	175673	largeTSmallT	correct	congruent	0.51562	no	T	T
686.7382812	n/a	175805	responseSmallT	correct	n/a	0.51562	no	n/a	n/a
687.8125	n/a	176080	largeHSmallT	error	incongruent	0.61719	no	H	T
688.4296875	n/a	176238	responseSmallH	error	n/a	0.61719	no	n/a	n/a
689.5039062	n/a	176513	largeTSmallT	correct	congruent	0.50781	no	T	T
690.0117188	n/a	176643	responseSmallT	correct	n/a	0.50781	no	n/a	n/a
691.078125	n/a	176916	largeHSmallH	correct	congruent	1.2383	no	H	H
692.3164062	n/a	177233	responseSmallH	correct	n/a	1.2383	no	n/a	n/a
693.3828125	n/a	177506	largeTSmallT	correct	congruent	0.57422	no	T	T
693.9570312	n/a	177653	responseSmallT	correct	n/a	0.57422	no	n/a	n/a
695.0234375	n/a	177926	largeTSmallH	correct	incongruent	0.53125	no	T	H
695.5546875	n/a	178062	responseSmallH	correct	n/a	0.53125	no	n/a	n/a
696.625	n/a	178336	largeHSmallH	correct	congruent	0.76562	no	H	H
697.390625	n/a	178532	responseSmallH	correct	n/a	0.76562	no	n/a	n/a
698.4648438	n/a	178807	largeTSmallT	correct	congruent	0.39062	no	T	T
698.8554688	n/a	178907	responseSmallT	correct	n/a	0.39062	no	n/a	n/a
699.9296875	n/a	179182	largeHSmallT	correct	incongruent	0.83203	no	H	T
700.7617188	n/a	179395	responseSmallT	correct	n/a	0.83203	no	n/a	n/a
701.8242188	n/a	179667	largeTSmallT	correct	congruent	0.67188	no	T	T
702.4960938	n/a	179839	responseSmallT	correct	n/a	0.67188	no	n/a	n/a
703.5585938	n/a	180111	largeHSmallH	correct	congruent	0.42188	no	H	H
703.9804688	n/a	180219	responseSmallH	correct	n/a	0.42188	no	n/a	n/a
705.0390625	n/a	180490	largeTSmallT	correct	congruent	0.81641	no	T	T
705.8554688	n/a	180699	responseSmallT	correct	n/a	0.81641	no	n/a	n/a
706.9179688	n/a	180971	largeTSmallT	correct	congruent	0.51562	no	T	T
707.4335938	n/a	181103	responseSmallT	correct	n/a	0.51562	no	n/a	n/a
708.5039062	n/a	181377	largeTSmallT	correct	congruent	0.47656	no	T	T
708.9804688	n/a	181499	responseSmallT	correct	n/a	0.47656	no	n/a	n/a
710.0507812	n/a	181773	largeHSmallT	correct	incongruent	0.57422	no	H	T
710.625	n/a	181920	responseSmallT	correct	n/a	0.57422	no	n/a	n/a
711.6914062	n/a	182193	largeTSmallT	correct	congruent	0.84766	no	T	T
712.5390625	n/a	182410	responseSmallT	correct	n/a	0.84766	no	n/a	n/a
713.609375	n/a	182684	largeHSmallH	correct	congruent	0.69922	no	H	H
714.3085938	n/a	182863	responseSmallH	correct	n/a	0.69922	no	n/a	n/a
715.3828125	n/a	183138	largeHSmallH	correct	congruent	0.82422	no	H	H
716.2070312	n/a	183349	responseSmallH	correct	n/a	0.82422	no	n/a	n/a
717.2773438	n/a	183623	largeTSmallH	correct	incongruent	0.51562	no	T	H
717.7929688	n/a	183755	responseSmallH	correct	n/a	0.51562	no	n/a	n/a
718.8632812	n/a	184029	largeHSmallT	correct	incongruent	0.67188	no	H	T
719.5351562	n/a	184201	responseSmallT	correct	n/a	0.67188	no	n/a	n/a
720.609375	n/a	184476	largeTSmallH	correct	incongruent	0.64453	no	T	H
721.2539062	n/a	184641	responseSmallH	correct	n/a	0.64453	no	n/a	n/a
722.3320312	n/a	184917	largeTSmallH	correct	incongruent	0.66016	no	T	H
722.9921875	n/a	185086	responseSmallH	correct	n/a	0.66016	no	n/a	n/a
724.0625	n/a	185360	largeHSmallH	correct	congruent	0.45703	no	H	H
724.5195312	n/a	185477	responseSmallH	correct	n/a	0.45703	no	n/a	n/a
725.5820312	n/a	185749	largeHSmallH	correct	congruent	0.70312	no	H	H
726.2851562	n/a	185929	responseSmallH	correct	n/a	0.70312	no	n/a	n/a
727.34375	n/a	186200	largeTSmallT	correct	congruent	0.48828	no	T	T
727.8320312	n/a	186325	responseSmallT	correct	n/a	0.48828	no	n/a	n/a
728.890625	n/a	186596	largeHSmallT	correct	incongruent	1.3516	no	H	T
730.2421875	n/a	186942	responseSmallT	correct	n/a	1.3516	no	n/a	n/a
731.3164062	n/a	187217	largeTSmallH	correct	incongruent	0.49219	no	T	H
731.8085938	n/a	187343	responseSmallH	correct	n/a	0.49219	no	n/a	n/a
732.875	n/a	187616	largeTSmallT	correct	congruent	0.58594	no	T	T
733.4609375	n/a	187766	responseSmallT	correct	n/a	0.58594	no	n/a	n/a
734.53125	n/a	188040	largeTSmallT	correct	congruent	1.3984	no	T	T
735.9296875	n/a	188398	responseSmallT	correct	n/a	1.3984	no	n/a	n/a
736.9960938	n/a	188671	largeTSmallT	correct	congruent	0.59766	no	T	T
737.59375	n/a	188824	responseSmallT	correct	n/a	0.59766	no	n/a	n/a
738.6640625	n/a	189098	largeTSmallT	correct	congruent	0.96094	no	T	T
739.625	n/a	189344	responseSmallT	correct	n/a	0.96094	no	n/a	n/a
740.6914062	n/a	189617	largeTSmallH	correct	incongruent	0.70703	no	T	H
741.3984375	n/a	189798	responseSmallH	correct	n/a	0.70703	no	n/a	n/a
742.4648438	n/a	190071	largeHSmallH	correct	congruent	0.71875	no	H	H
743.1835938	n/a	190255	responseSmallH	correct	n/a	0.71875	no	n/a	n/a
753.2890625	n/a	192842	largeTSmallH	correct	incongruent	1.2969	no	T	H
754.5859375	n/a	193174	responseLargeT	correct	n/a	1.2969	no	n/a	n/a
755.6484375	n/a	193446	largeTSmallT	correct	congruent	0.96094	no	T	T
756.609375	n/a	193692	responseLargeT	correct	n/a	0.96094	no	n/a	n/a
757.6757812	n/a	193965	largeHSmallH	correct	congruent	0.53906	no	H	H
758.2148438	n/a	194103	responseLargeH	correct	n/a	0.53906	no	n/a	n/a
759.2890625	n/a	194378	largeTSmallT	correct	congruent	0.50391	no	T	T
759.7929688	n/a	194507	responseLargeT	correct	n/a	0.50391	no	n/a	n/a
760.8632812	n/a	194781	largeHSmallT	correct	incongruent	0.60938	no	H	T
761.4726562	n/a	194937	responseLargeH	correct	n/a	0.60938	no	n/a	n/a
762.5429688	n/a	195211	largeTSmallT	correct	congruent	0.46875	no	T	T
763.0117188	n/a	195331	responseLargeT	correct	n/a	0.46875	no	n/a	n/a
764.0742188	n/a	195603	largeHSmallH	correct	congruent	0.49219	no	H	H
764.5664062	n/a	195729	responseLargeH	correct	n/a	0.49219	no	n/a	n/a
765.6367188	n/a	196003	largeTSmallT	correct	congruent	0.50781	no	T	T
766.1445312	n/a	196133	responseLargeT	correct	n/a	0.50781	no	n/a	n/a
767.2109375	n/a	196406	largeTSmallH	correct	incongruent	0.44922	no	T	H
767.6601562	n/a	196521	responseLargeT	correct	n/a	0.44922	no	n/a	n/a
768.7148438	n/a	196791	largeHSmallT	correct	incongruent	0.59375	no	H	T
769.3085938	n/a	196943	responseLargeH	correct	n/a	0.59375	no	n/a	n/a
770.3828125	n/a	197218	largeHSmallT	correct	incongruent	0.53125	no	H	T
770.9140625	n/a	197354	responseLargeH	correct	n/a	0.53125	no	n/a	n/a
771.984375	n/a	197628	largeTSmallT	correct	congruent	0.51953	no	T	T
772.5039062	n/a	197761	responseLargeT	correct	n/a	0.51953	no	n/a	n/a
773.5703125	n/a	198034	largeHSmallT	correct	incongruent	0.41016	no	H	T
773.9804688	n/a	198139	responseLargeH	correct	n/a	0.41016	no	n/a	n/a
775.0507812	n/a	198413	largeHSmallT	correct	incongruent	0.60938	no	H	T
775.6601562	n/a	198569	responseLargeH	correct	n/a	0.60938	no	n/a	n/a
776.7304688	n/a	198843	largeHSmallT	correct	incongruent	0.50391	no	H	T
777.234375	n/a	198972	responseLargeH	correct	n/a	0.50391	no	n/a	n/a
778.3007812	n/a	199245	largeHSmallT	correct	incongruent	0.64062	no	H	T
778.9414062	n/a	199409	responseLargeH	correct	n/a	0.64062	no	n/a	n/a
780.0078125	n/a	199682	largeHSmallH	correct	congruent	0.64062	no	H	H
780.6484375	n/a	199846	responseLargeH	correct	n/a	0.64062	no	n/a	n/a
781.7148438	n/a	200119	largeTSmallT	correct	congruent	0.51562	no	T	T
782.2304688	n/a	200251	responseLargeT	correct	n/a	0.51562	no	n/a	n/a
783.2890625	n/a	200522	largeTSmallH	correct	incongruent	0.51172	no	T	H
783.8007812	n/a	200653	responseLargeT	correct	n/a	0.51172	no	n/a	n/a
784.8632812	n/a	200925	largeHSmallT	correct	incongruent	0.71094	no	H	T
785.5742188	n/a	201107	responseLargeH	correct	n/a	0.71094	no	n/a	n/a
786.6484375	n/a	201382	largeTSmallH	correct	incongruent	0.58984	no	T	H
787.2382812	n/a	201533	responseLargeT	correct	n/a	0.58984	no	n/a	n/a
788.3007812	n/a	201805	largeTSmallH	correct	incongruent	0.78906	no	T	H
789.0898438	n/a	202007	responseLargeT	correct	n/a	0.78906	no	n/a	n/a
790.15625	n/a	202280	largeTSmallT	correct	congruent	0.53125	no	T	T
790.6875	n/a	202416	responseLargeT	correct	n/a	0.53125	no	n/a	n/a
791.7539062	n/a	202689	largeHSmallH	correct	congruent	0.48438	no	H	H
792.2382812	n/a	202813	responseLargeH	correct	n/a	0.48438	no	n/a	n/a
793.3007812	n/a	203085	largeHSmallH	correct	congruent	0.58203	no	H	H
793.8828125	n/a	203234	responseLargeH	correct	n/a	0.58203	no	n/a	n/a
794.9414062	n/a	203505	largeTSmallH	correct	incongruent	0.38281	no	T	H
795.3242188	n/a	203603	responseLargeT	correct	n/a	0.38281	no	n/a	n/a
796.3945312	n/a	203877	largeHSmallT	correct	incongruent	0.55859	no	H	T
796.953125	n/a	204020	responseLargeH	correct	n/a	0.55859	no	n/a	n/a
798.0234375	n/a	204294	largeHSmallH	correct	congruent	0.51172	no	H	H
798.5351562	n/a	204425	responseLargeH	correct	n/a	0.51172	no	n/a	n/a
799.609375	n/a	204700	largeHSmallT	correct	incongruent	0.41406	no	H	T
800.0234375	n/a	204806	responseLargeH	correct	n/a	0.41406	no	n/a	n/a
801.0898438	n/a	205079	largeTSmallT	correct	congruent	0.44531	no	T	T
801.5351562	n/a	205193	responseLargeT	correct	n/a	0.44531	no	n/a	n/a
802.609375	n/a	205468	largeHSmallT	correct	incongruent	0.5	no	H	T
803.109375	n/a	205596	responseLargeH	correct	n/a	0.5	no	n/a	n/a
804.1835938	n/a	205871	largeHSmallT	correct	incongruent	0.53125	no	H	T
804.7148438	n/a	206007	responseLargeH	correct	n/a	0.53125	no	n/a	n/a
805.78125	n/a	206280	largeTSmallH	correct	incongruent	0.46484	no	T	H
806.2460938	n/a	206399	responseLargeT	correct	n/a	0.46484	no	n/a	n/a
807.3164062	n/a	206673	largeHSmallT	correct	incongruent	0.48047	no	H	T
807.796875	n/a	206796	responseLargeH	correct	n/a	0.48047	no	n/a	n/a
808.8632812	n/a	207069	largeTSmallT	correct	congruent	0.51172	no	T	T
809.375	n/a	207200	responseLargeT	correct	n/a	0.51172	no	n/a	n/a
810.4335938	n/a	207471	largeHSmallT	correct	incongruent	0.64062	no	H	T
811.0742188	n/a	207635	responseLargeH	correct	n/a	0.64062	no	n/a	n/a
812.140625	n/a	207908	largeHSmallH	correct	congruent	1.6719	yes	H	H
813.8125	n/a	208336	responseLargeH	correct	n/a	1.6719	yes	n/a	n/a
814.8867188	n/a	208611	largeTSmallH	correct	incongruent	0.91016	no	T	H
815.796875	n/a	208844	responseLargeT	correct	n/a	0.91016	no	n/a	n/a
816.8632812	n/a	209117	largeTSmallT	correct	congruent	0.85156	no	T	T
817.7148438	n/a	209335	responseLargeT	correct	n/a	0.85156	no	n/a	n/a
818.78125	n/a	209608	largeHSmallT	correct	incongruent	0.60547	no	H	T
819.3867188	n/a	209763	responseLargeH	correct	n/a	0.60547	no	n/a	n/a
820.4492188	n/a	210035	largeHSmallT	correct	incongruent	0.82031	no	H	T
821.2695312	n/a	210245	responseLargeH	correct	n/a	0.82031	no	n/a	n/a
822.3398438	n/a	210519	largeTSmallH	correct	incongruent	0.59375	no	T	H
822.9335938	n/a	210671	responseLargeT	correct	n/a	0.59375	no	n/a	n/a
823.9960938	n/a	210943	largeHSmallT	correct	incongruent	0.67969	no	H	T
824.6757812	n/a	211117	responseLargeH	correct	n/a	0.67969	no	n/a	n/a
825.7421875	n/a	211390	largeTSmallT	correct	congruent	0.51562	no	T	T
826.2578125	n/a	211522	responseLargeT	correct	n/a	0.51562	no	n/a	n/a
827.328125	n/a	211796	largeTSmallT	correct	congruent	1.1562	no	T	T
828.484375	n/a	212092	responseLargeT	correct	n/a	1.1562	no	n/a	n/a
829.5429688	n/a	212363	largeHSmallH	correct	congruent	0.42578	no	H	H
829.96875	n/a	212472	responseLargeH	correct	n/a	0.42578	no	n/a	n/a
831.046875	n/a	212748	largeHSmallH	correct	congruent	0.48438	no	H	H
831.53125	n/a	212872	responseLargeH	correct	n/a	0.48438	no	n/a	n/a
832.609375	n/a	213148	largeHSmallH	correct	congruent	0.51562	no	H	H
833.125	n/a	213280	responseLargeH	correct	n/a	0.51562	no	n/a	n/a
834.1953125	n/a	213554	largeTSmallT	correct	congruent	0.46484	no	T	T
834.6601562	n/a	213673	responseLargeT	correct	n/a	0.46484	no	n/a	n/a
835.7265625	n/a	213946	largeHSmallH	correct	congruent	0.49219	no	H	H
836.21875	n/a	214072	responseLargeH	correct	n/a	0.49219	no	n/a	n/a
837.2890625	n/a	214346	largeTSmallH	correct	incongruent	0.625	no	T	H
837.9140625	n/a	214506	responseLargeT	correct	n/a	0.625	no	n/a	n/a
838.9804688	n/a	214779	largeHSmallH	correct	congruent	0.57422	no	H	H
839.5546875	n/a	214926	responseLargeH	correct	n/a	0.57422	no	n/a	n/a
840.6210938	n/a	215199	largeHSmallT	correct	incongruent	0.48438	no	H	T
841.1054688	n/a	215323	responseLargeH	correct	n/a	0.48438	no	n/a	n/a
842.1679688	n/a	215595	largeTSmallH	correct	incongruent	0.5	no	T	H
842.6679688	n/a	215723	responseLargeT	correct	n/a	0.5	no	n/a	n/a
843.7421875	n/a	215998	largeHSmallH	correct	congruent	0.56641	no	H	H
844.3085938	n/a	216143	responseLargeH	correct	n/a	0.56641	no	n/a	n/a
845.3828125	n/a	216418	largeTSmallT	correct	congruent	0.8125	no	T	T
846.1953125	n/a	216626	responseLargeT	correct	n/a	0.8125	no	n/a	n/a
847.2734375	n/a	216902	largeTSmallH	correct	incongruent	0.81641	no	T	H
848.0898438	n/a	217111	responseLargeT	correct	n/a	0.81641	no	n/a	n/a
849.15625	n/a	217384	largeTSmallH	correct	incongruent	0.625	no	T	H
849.78125	n/a	217544	responseLargeT	correct	n/a	0.625	no	n/a	n/a
850.859375	n/a	217820	largeTSmallH	correct	incongruent	0.48047	no	T	H
851.3398438	n/a	217943	responseLargeT	correct	n/a	0.48047	no	n/a	n/a
852.421875	n/a	218220	largeHSmallT	correct	incongruent	0.75	no	H	T
853.171875	n/a	218412	responseLargeH	correct	n/a	0.75	no	n/a	n/a
854.2460938	n/a	218687	largeHSmallH	correct	congruent	0.63281	no	H	H
854.8789062	n/a	218849	responseLargeH	correct	n/a	0.63281	no	n/a	n/a
855.9414062	n/a	219121	largeTSmallH	correct	incongruent	0.57422	no	T	H
856.515625	n/a	219268	responseLargeT	correct	n/a	0.57422	no	n/a	n/a
857.5820312	n/a	219541	largeTSmallT	correct	congruent	0.48828	no	T	T
858.0703125	n/a	219666	responseLargeT	correct	n/a	0.48828	no	n/a	n/a
859.140625	n/a	219940	largeHSmallH	correct	congruent	0.53516	no	H	H
859.6757812	n/a	220077	responseLargeH	correct	n/a	0.53516	no	n/a	n/a
860.7421875	n/a	220350	largeTSmallT	correct	congruent	0.44531	no	T	T
861.1875	n/a	220464	responseLargeT	correct	n/a	0.44531	no	n/a	n/a
862.2617188	n/a	220739	largeHSmallH	correct	congruent	0.53125	no	H	H
862.7929688	n/a	220875	responseLargeH	correct	n/a	0.53125	no	n/a	n/a
863.859375	n/a	221148	largeTSmallT	correct	congruent	0.53516	no	T	T
864.3945312	n/a	221285	responseLargeT	correct	n/a	0.53516	no	n/a	n/a
865.4609375	n/a	221558	largeHSmallT	correct	incongruent	0.41797	no	H	T
865.8789062	n/a	221665	responseLargeH	correct	n/a	0.41797	no	n/a	n/a
866.9414062	n/a	221937	largeTSmallH	correct	incongruent	0.48828	no	T	H
867.4296875	n/a	222062	responseLargeT	correct	n/a	0.48828	no	n/a	n/a
868.5	n/a	222336	largeTSmallT	correct	congruent	0.35938	no	T	T
868.859375	n/a	222428	responseLargeT	correct	n/a	0.35938	no	n/a	n/a
869.9257812	n/a	222701	largeTSmallT	correct	congruent	0.48828	no	T	T
870.4140625	n/a	222826	responseLargeT	correct	n/a	0.48828	no	n/a	n/a
871.4726562	n/a	223097	largeTSmallH	correct	incongruent	0.71484	no	T	H
872.1875	n/a	223280	responseLargeT	correct	n/a	0.71484	no	n/a	n/a
873.2617188	n/a	223555	largeTSmallH	correct	incongruent	0.32031	no	T	H
873.5820312	n/a	223637	responseLargeT	correct	n/a	0.32031	no	n/a	n/a
874.6484375	n/a	223910	largeHSmallH	correct	congruent	0.57812	no	H	H
875.2265625	n/a	224058	responseLargeH	correct	n/a	0.57812	no	n/a	n/a
876.3007812	n/a	224333	largeTSmallH	correct	incongruent	0.54297	no	T	H
876.84375	n/a	224472	responseLargeT	correct	n/a	0.54297	no	n/a	n/a
877.8984375	n/a	224742	largeHSmallH	correct	congruent	0.56641	no	H	H
878.4648438	n/a	224887	responseLargeH	correct	n/a	0.56641	no	n/a	n/a
879.5273438	n/a	225159	largeTSmallT	correct	congruent	0.48047	no	T	T
880.0078125	n/a	225282	responseLargeT	correct	n/a	0.48047	no	n/a	n/a
881.0742188	n/a	225555	largeHSmallT	correct	incongruent	0.49219	no	H	T
881.5664062	n/a	225681	responseLargeH	correct	n/a	0.49219	no	n/a	n/a
882.6328125	n/a	225954	largeHSmallT	correct	incongruent	0.48828	no	H	T
883.1210938	n/a	226079	responseLargeH	correct	n/a	0.48828	no	n/a	n/a
884.1953125	n/a	226354	largeHSmallT	correct	incongruent	0.41406	no	H	T
884.609375	n/a	226460	responseLargeH	correct	n/a	0.41406	no	n/a	n/a
885.671875	n/a	226732	largeHSmallT	correct	incongruent	0.52734	no	H	T
886.1992188	n/a	226867	responseLargeH	correct	n/a	0.52734	no	n/a	n/a
887.2617188	n/a	227139	largeTSmallH	correct	incongruent	0.46484	no	T	H
887.7265625	n/a	227258	responseLargeT	correct	n/a	0.46484	no	n/a	n/a
888.7929688	n/a	227531	largeTSmallH	error	incongruent	0.42188	no	T	H
889.2148438	n/a	227639	responseLargeH	error	n/a	0.42188	no	n/a	n/a
890.2734375	n/a	227910	largeTSmallH	correct	incongruent	0.4375	no	T	H
890.7109375	n/a	228022	responseLargeT	correct	n/a	0.4375	no	n/a	n/a
891.78125	n/a	228296	largeHSmallT	correct	incongruent	0.35156	no	H	T
892.1328125	n/a	228386	responseLargeH	correct	n/a	0.35156	no	n/a	n/a
893.1914062	n/a	228657	largeHSmallT	correct	incongruent	0.67578	no	H	T
893.8671875	n/a	228830	responseLargeH	correct	n/a	0.67578	no	n/a	n/a
894.9414062	n/a	229105	largeHSmallH	correct	congruent	0.66016	no	H	H
895.6015625	n/a	229274	responseLargeH	correct	n/a	0.66016	no	n/a	n/a
896.671875	n/a	229548	largeHSmallH	correct	congruent	0.89062	no	H	H
897.5625	n/a	229776	responseLargeH	correct	n/a	0.89062	no	n/a	n/a
898.6210938	n/a	230047	largeHSmallT	correct	incongruent	0.75391	no	H	T
899.375	n/a	230240	responseLargeH	correct	n/a	0.75391	no	n/a	n/a
900.4453125	n/a	230514	largeHSmallH	correct	congruent	0.4375	no	H	H
900.8828125	n/a	230626	responseLargeH	correct	n/a	0.4375	no	n/a	n/a
901.9414062	n/a	230897	largeHSmallT	correct	incongruent	0.52734	no	H	T
902.46875	n/a	231032	responseLargeH	correct	n/a	0.52734	no	n/a	n/a
903.5390625	n/a	231306	largeTSmallH	correct	incongruent	0.625	no	T	H
904.1640625	n/a	231466	responseLargeT	correct	n/a	0.625	no	n/a	n/a
905.21875	n/a	231736	largeTSmallH	correct	incongruent	0.96875	no	T	H
906.1875	n/a	231984	responseLargeT	correct	n/a	0.96875	no	n/a	n/a
907.2460938	n/a	232255	largeHSmallH	correct	congruent	0.70703	no	H	H
907.953125	n/a	232436	responseLargeH	correct	n/a	0.70703	no	n/a	n/a
909.0195312	n/a	232709	largeTSmallT	correct	congruent	1.1055	no	T	T
910.125	n/a	232992	responseLargeT	correct	n/a	1.1055	no	n/a	n/a
911.1914062	n/a	233265	largeHSmallH	correct	congruent	0.73438	no	H	H
911.9257812	n/a	233453	responseLargeH	correct	n/a	0.73438	no	n/a	n/a
912.9921875	n/a	233726	largeTSmallT	correct	congruent	0.61328	no	T	T
913.6054688	n/a	233883	responseLargeT	correct	n/a	0.61328	no	n/a	n/a
914.671875	n/a	234156	largeTSmallH	correct	incongruent	0.61719	no	T	H
915.2890625	n/a	234314	responseLargeT	correct	n/a	0.61719	no	n/a	n/a
916.3671875	n/a	234590	largeHSmallH	correct	congruent	0.59766	no	H	H
916.9648438	n/a	234743	responseLargeH	correct	n/a	0.59766	no	n/a	n/a
918.03125	n/a	235016	largeTSmallT	correct	congruent	0.42969	no	T	T
918.4609375	n/a	235126	responseLargeT	correct	n/a	0.42969	no	n/a	n/a
919.5273438	n/a	235399	largeTSmallT	error	congruent	0.50391	no	T	T
920.03125	n/a	235528	responseLargeH	error	n/a	0.50391	no	n/a	n/a
921.0976562	n/a	235801	largeTSmallH	error	incongruent	0.78516	no	T	H
921.8828125	n/a	236002	responseLargeH	error	n/a	0.78516	no	n/a	n/a
922.9648438	n/a	236279	largeTSmallH	correct	incongruent	0.92578	no	T	H
923.890625	n/a	236516	responseLargeT	correct	n/a	0.92578	no	n/a	n/a
924.953125	n/a	236788	largeTSmallT	correct	congruent	0.44141	no	T	T
925.3945312	n/a	236901	responseLargeT	correct	n/a	0.44141	no	n/a	n/a
926.4726562	n/a	237177	largeTSmallH	correct	incongruent	2.1523	yes	T	H
928.625	n/a	237728	responseLargeT	correct	n/a	2.1523	yes	n/a	n/a
929.6992188	n/a	238003	largeTSmallT	correct	congruent	0.51172	no	T	T
930.2109375	n/a	238134	responseLargeT	correct	n/a	0.51172	no	n/a	n/a
931.2734375	n/a	238406	largeHSmallH	correct	congruent	0.60938	no	H	H
931.8828125	n/a	238562	responseLargeH	correct	n/a	0.60938	no	n/a	n/a
932.9375	n/a	238832	largeTSmallT	correct	congruent	0.79688	no	T	T
933.734375	n/a	239036	responseLargeT	correct	n/a	0.79688	no	n/a	n/a
934.8046875	n/a	239310	largeHSmallH	correct	congruent	0.51953	no	H	H
935.3242188	n/a	239443	responseLargeH	correct	n/a	0.51953	no	n/a	n/a
936.390625	n/a	239716	largeHSmallT	correct	incongruent	0.53906	no	H	T
936.9296875	n/a	239854	responseLargeH	correct	n/a	0.53906	no	n/a	n/a
937.9921875	n/a	240126	largeHSmallT	correct	incongruent	0.69531	no	H	T
938.6875	n/a	240304	responseLargeH	correct	n/a	0.69531	no	n/a	n/a
939.765625	n/a	240580	largeHSmallH	correct	congruent	0.72656	no	H	H
940.4921875	n/a	240766	responseLargeH	correct	n/a	0.72656	no	n/a	n/a
941.5507812	n/a	241037	largeTSmallH	correct	incongruent	0.53516	no	T	H
942.0859375	n/a	241174	responseLargeT	correct	n/a	0.53516	no	n/a	n/a
943.1640625	n/a	241450	largeHSmallH	correct	congruent	0.45703	no	H	H
943.6210938	n/a	241567	responseLargeH	correct	n/a	0.45703	no	n/a	n/a
944.6835938	n/a	241839	largeHSmallH	correct	congruent	0.46875	no	H	H
945.1523438	n/a	241959	responseLargeH	correct	n/a	0.46875	no	n/a	n/a
946.21875	n/a	242232	largeTSmallH	correct	incongruent	0.79297	no	T	H
947.0117188	n/a	242435	responseLargeT	correct	n/a	0.79297	no	n/a	n/a
948.0742188	n/a	242707	largeTSmallT	correct	congruent	1.3555	no	T	T
949.4296875	n/a	243054	responseLargeT	correct	n/a	1.3555	no	n/a	n/a
950.5	n/a	243328	largeTSmallH	correct	incongruent	1.0469	no	T	H
951.546875	n/a	243596	responseLargeT	correct	n/a	1.0469	no	n/a	n/a
952.6171875	n/a	243870	largeTSmallT	correct	congruent	0.51562	no	T	T
953.1328125	n/a	244002	responseLargeT	correct	n/a	0.51562	no	n/a	n/a
954.2070312	n/a	244277	largeTSmallH	correct	incongruent	0.32812	no	T	H
954.5351562	n/a	244361	responseLargeT	correct	n/a	0.32812	no	n/a	n/a
955.6054688	n/a	244635	largeTSmallH	correct	incongruent	0.57031	no	T	H
956.1757812	n/a	244781	responseLargeT	correct	n/a	0.57031	no	n/a	n/a
957.2460938	n/a	245055	largeTSmallT	correct	congruent	0.29688	no	T	T
957.5429688	n/a	245131	responseLargeT	correct	n/a	0.29688	no	n/a	n/a
958.6054688	n/a	245403	largeHSmallT	correct	incongruent	0.66406	no	H	T
959.2695312	n/a	245573	responseLargeH	correct	n/a	0.66406	no	n/a	n/a
960.3398438	n/a	245847	largeHSmallT	correct	incongruent	0.66406	no	H	T
961.0039062	n/a	246017	responseLargeH	correct	n/a	0.66406	no	n/a	n/a
962.0703125	n/a	246290	largeTSmallT	correct	congruent	0.76172	no	T	T
962.8320312	n/a	246485	responseLargeT	correct	n/a	0.76172	no	n/a	n/a
963.8984375	n/a	246758	largeTSmallH	correct	incongruent	0.85938	no	T	H
964.7578125	n/a	246978	responseLargeT	correct	n/a	0.85938	no	n/a	n/a
965.8320312	n/a	247253	largeTSmallH	correct	incongruent	0.82031	no	T	H
966.6523438	n/a	247463	responseLargeT	correct	n/a	0.82031	no	n/a	n/a
967.7109375	n/a	247734	largeHSmallT	correct	incongruent	2.4844	yes	H	T
970.1953125	n/a	248370	responseLargeH	correct	n/a	2.4844	yes	n/a	n/a
971.2578125	n/a	248642	largeHSmallT	correct	incongruent	0.75391	no	H	T
972.0117188	n/a	248835	responseLargeH	correct	n/a	0.75391	no	n/a	n/a
973.0859375	n/a	249110	largeHSmallT	correct	incongruent	1.0938	no	H	T
974.1796875	n/a	249390	responseLargeH	correct	n/a	1.0938	no	n/a	n/a
975.2460938	n/a	249663	largeTSmallT	correct	congruent	0.61328	no	T	T
975.859375	n/a	249820	responseLargeT	correct	n/a	0.61328	no	n/a	n/a
976.9257812	n/a	250093	largeHSmallH	correct	congruent	0.73828	no	H	H
977.6640625	n/a	250282	responseLargeH	correct	n/a	0.73828	no	n/a	n/a
978.7265625	n/a	250554	largeHSmallT	correct	incongruent	1.0625	no	H	T
979.7890625	n/a	250826	responseLargeH	correct	n/a	1.0625	no	n/a	n/a
980.859375	n/a	251100	largeTSmallH	correct	incongruent	0.34375	no	T	H
981.203125	n/a	251188	responseLargeT	correct	n/a	0.34375	no	n/a	n/a
982.2695312	n/a	251461	largeTSmallH	correct	incongruent	1.0586	no	T	H
983.328125	n/a	251732	responseLargeT	correct	n/a	1.0586	no	n/a	n/a
984.390625	n/a	252004	largeHSmallH	correct	congruent	1.2734	no	H	H
985.6640625	n/a	252330	responseLargeH	correct	n/a	1.2734	no	n/a	n/a
986.7382812	n/a	252605	largeTSmallT	correct	congruent	0.65625	no	T	T
987.3945312	n/a	252773	responseLargeT	correct	n/a	0.65625	no	n/a	n/a
988.4570312	n/a	253045	largeTSmallT	correct	congruent	0.57812	no	T	T
989.0351562	n/a	253193	responseLargeT	correct	n/a	0.57812	no	n/a	n/a
990.0976562	n/a	253465	largeHSmallT	correct	incongruent	0.57422	no	H	T
990.671875	n/a	253612	responseLargeH	correct	n/a	0.57422	no	n/a	n/a
991.7382812	n/a	253885	largeTSmallH	correct	incongruent	0.69922	no	T	H
992.4375	n/a	254064	responseLargeT	correct	n/a	0.69922	no	n/a	n/a
993.4960938	n/a	254335	largeHSmallT	correct	incongruent	0.52734	no	H	T
994.0234375	n/a	254470	responseLargeH	correct	n/a	0.52734	no	n/a	n/a
995.0976562	n/a	254745	largeTSmallT	correct	congruent	0.5625	no	T	T
995.6601562	n/a	254889	responseLargeT	correct	n/a	0.5625	no	n/a	n/a
996.7382812	n/a	255165	largeTSmallH	error	incongruent	0.82812	no	T	H
997.5664062	n/a	255377	responseLargeH	error	n/a	0.82812	no	n/a	n/a
998.6328125	n/a	255650	largeTSmallT	correct	congruent	1.0273	no	T	T
999.6601562	n/a	255913	responseLargeT	correct	n/a	1.0273	no	n/a	n/a
1000.722656	n/a	256185	largeTSmallH	correct	incongruent	0.67578	no	T	H
1001.398438	n/a	256358	responseLargeT	correct	n/a	0.67578	no	n/a	n/a
1002.472656	n/a	256633	largeHSmallH	correct	congruent	0.60156	no	H	H
1003.074219	n/a	256787	responseLargeH	correct	n/a	0.60156	no	n/a	n/a
1004.136719	n/a	257059	largeHSmallT	correct	incongruent	1.1562	no	H	T
1005.292969	n/a	257355	responseLargeH	correct	n/a	1.1562	no	n/a	n/a
1006.363281	n/a	257629	largeHSmallH	correct	congruent	0.54688	no	H	H
1006.910156	n/a	257769	responseLargeH	correct	n/a	0.54688	no	n/a	n/a
1007.976562	n/a	258042	largeHSmallH	correct	congruent	1.5586	yes	H	H
1009.535156	n/a	258441	responseLargeH	correct	n/a	1.5586	yes	n/a	n/a
1010.605469	n/a	258715	largeTSmallH	correct	incongruent	1.5586	yes	T	H
1012.164062	n/a	259114	responseLargeT	correct	n/a	1.5586	yes	n/a	n/a
1013.242188	n/a	259390	largeTSmallT	correct	congruent	0.60156	no	T	T
1013.84375	n/a	259544	responseLargeT	correct	n/a	0.60156	no	n/a	n/a
1014.910156	n/a	259817	largeHSmallH	correct	congruent	0.56641	no	H	H
1015.476562	n/a	259962	responseLargeH	correct	n/a	0.56641	no	n/a	n/a
1016.550781	n/a	260237	largeHSmallT	correct	incongruent	0.9375	no	H	T
1017.488281	n/a	260477	responseLargeH	correct	n/a	0.9375	no	n/a	n/a
1018.5625	n/a	260752	largeHSmallT	correct	incongruent	1.25	no	H	T
1019.8125	n/a	261072	responseLargeH	correct	n/a	1.25	no	n/a	n/a
1020.882812	n/a	261346	largeHSmallH	correct	congruent	0.66797	no	H	H
1021.550781	n/a	261517	responseLargeH	correct	n/a	0.66797	no	n/a	n/a
1022.617188	n/a	261790	largeHSmallH	correct	congruent	0.45312	no	H	H
1023.070312	n/a	261906	responseLargeH	correct	n/a	0.45312	no	n/a	n/a
1024.136719	n/a	262179	largeHSmallH	correct	congruent	0.40625	no	H	H
1024.542969	n/a	262283	responseLargeH	correct	n/a	0.40625	no	n/a	n/a
1025.605469	n/a	262555	largeTSmallT	correct	congruent	0.55469	no	T	T
1026.160156	n/a	262697	responseLargeT	correct	n/a	0.55469	no	n/a	n/a
1027.230469	n/a	262971	largeTSmallH	correct	incongruent	1.6211	yes	T	H
1028.851562	n/a	263386	responseLargeT	correct	n/a	1.6211	yes	n/a	n/a
1029.910156	n/a	263657	largeTSmallT	correct	congruent	2.6562	yes	T	T
1032.566406	n/a	264337	responseLargeT	correct	n/a	2.6562	yes	n/a	n/a
1033.644531	n/a	264613	largeHSmallH	correct	congruent	0.48438	no	H	H
1034.128906	n/a	264737	responseLargeH	correct	n/a	0.48438	no	n/a	n/a
1035.203125	n/a	265012	largeHSmallT	correct	incongruent	1.0625	no	H	T
1036.265625	n/a	265284	responseLargeH	correct	n/a	1.0625	no	n/a	n/a
1037.335938	n/a	265558	largeTSmallT	correct	congruent	0.45312	no	T	T
1037.789062	n/a	265674	responseLargeT	correct	n/a	0.45312	no	n/a	n/a
1038.855469	n/a	265947	largeTSmallT	correct	congruent	0.68359	no	T	T
1039.539062	n/a	266122	responseLargeT	correct	n/a	0.68359	no	n/a	n/a
1040.601562	n/a	266394	largeTSmallH	correct	incongruent	1.293	no	T	H
1041.894531	n/a	266725	responseLargeT	correct	n/a	1.293	no	n/a	n/a
1042.949219	n/a	266995	largeHSmallT	correct	incongruent	1.0742	no	H	T
1044.023438	n/a	267270	responseLargeH	correct	n/a	1.0742	no	n/a	n/a
1045.097656	n/a	267545	largeTSmallT	correct	congruent	0.88672	no	T	T
1045.984375	n/a	267772	responseLargeT	correct	n/a	0.88672	no	n/a	n/a
1047.054688	n/a	268046	largeHSmallH	correct	congruent	0.5	no	H	H
1047.554688	n/a	268174	responseLargeH	correct	n/a	0.5	no	n/a	n/a
1048.617188	n/a	268446	largeHSmallT	correct	incongruent	0.55078	no	H	T
1049.167969	n/a	268587	responseLargeH	correct	n/a	0.55078	no	n/a	n/a
1050.242188	n/a	268862	largeHSmallH	correct	congruent	0.64844	no	H	H
1050.890625	n/a	269028	responseLargeH	correct	n/a	0.64844	no	n/a	n/a
1051.949219	n/a	269299	largeHSmallH	correct	congruent	0.71484	no	H	H
1052.664062	n/a	269482	responseLargeH	correct	n/a	0.71484	no	n/a	n/a
1053.738281	n/a	269757	largeTSmallH	correct	incongruent	2.582	yes	T	H
1056.320312	n/a	270418	responseLargeT	correct	n/a	2.582	yes	n/a	n/a
1057.390625	n/a	270692	largeHSmallH	correct	congruent	1.3672	no	H	H
1058.757812	n/a	271042	responseLargeH	correct	n/a	1.3672	no	n/a	n/a
1059.816406	n/a	271313	largeTSmallT	correct	congruent	0.48047	no	T	T
1060.296875	n/a	271436	responseLargeT	correct	n/a	0.48047	no	n/a	n/a
1061.363281	n/a	271709	largeHSmallT	correct	incongruent	0.53906	no	H	T
1061.902344	n/a	271847	responseLargeH	correct	n/a	0.53906	no	n/a	n/a
1062.976562	n/a	272122	largeHSmallH	correct	congruent	0.59375	no	H	H
1063.570312	n/a	272274	responseLargeH	correct	n/a	0.59375	no	n/a	n/a
1064.644531	n/a	272549	largeHSmallH	correct	congruent	0.65625	no	H	H
1065.300781	n/a	272717	responseLargeH	correct	n/a	0.65625	no	n/a	n/a
1066.375	n/a	272992	largeHSmallT	correct	incongruent	0.48438	no	H	T
1066.859375	n/a	273116	responseLargeH	correct	n/a	0.48438	no	n/a	n/a
1067.9375	n/a	273392	largeTSmallT	correct	congruent	0.52734	no	T	T
1068.464844	n/a	273527	responseLargeT	correct	n/a	0.52734	no	n/a	n/a
1069.535156	n/a	273801	largeTSmallT	correct	congruent	0.52734	no	T	T
1070.0625	n/a	273936	responseLargeT	correct	n/a	0.52734	no	n/a	n/a
1071.136719	n/a	274211	largeHSmallT	correct	incongruent	2.3672	yes	H	T
1073.503906	n/a	274817	responseLargeH	correct	n/a	2.3672	yes	n/a	n/a
1074.574219	n/a	275091	largeHSmallH	correct	congruent	0.55469	no	H	H
1075.128906	n/a	275233	responseLargeH	correct	n/a	0.55469	no	n/a	n/a
1076.203125	n/a	275508	largeTSmallH	correct	incongruent	0.55078	no	T	H
1076.753906	n/a	275649	responseLargeT	correct	n/a	0.55078	no	n/a	n/a
1077.816406	n/a	275921	largeHSmallH	correct	congruent	0.64844	no	H	H
1078.464844	n/a	276087	responseLargeH	correct	n/a	0.64844	no	n/a	n/a
1079.535156	n/a	276361	largeHSmallT	correct	incongruent	0.48047	no	H	T
1080.015625	n/a	276484	responseLargeH	correct	n/a	0.48047	no	n/a	n/a
1081.082031	n/a	276757	largeTSmallH	error	incongruent	0.40625	no	T	H
1081.488281	n/a	276861	responseLargeH	error	n/a	0.40625	no	n/a	n/a
1082.550781	n/a	277133	largeTSmallT	correct	congruent	0.375	no	T	T
1082.925781	n/a	277229	responseLargeT	correct	n/a	0.375	no	n/a	n/a
1084.003906	n/a	277505	largeHSmallH	correct	congruent	0.49219	no	H	H
1084.496094	n/a	277631	responseLargeH	correct	n/a	0.49219	no	n/a	n/a
1085.5625	n/a	277904	largeTSmallH	correct	incongruent	0.6875	no	T	H
1086.25	n/a	278080	responseLargeT	correct	n/a	0.6875	no	n/a	n/a
1087.324219	n/a	278355	largeHSmallT	correct	incongruent	0.71875	no	H	T
1088.042969	n/a	278539	responseLargeH	correct	n/a	0.71875	no	n/a	n/a
1089.121094	n/a	278815	largeTSmallH	correct	incongruent	0.80078	no	T	H
1089.921875	n/a	279020	responseLargeT	correct	n/a	0.80078	no	n/a	n/a
1090.988281	n/a	279293	largeTSmallH	correct	incongruent	2.9922	yes	T	H
1093.980469	n/a	280059	responseLargeT	correct	n/a	2.9922	yes	n/a	n/a
1095.042969	n/a	280331	largeTSmallT	correct	congruent	0.64453	no	T	T
1095.6875	n/a	280496	responseLargeT	correct	n/a	0.64453	no	n/a	n/a
1096.761719	n/a	280771	largeHSmallT	error	incongruent	0.42578	no	H	T
1097.1875	n/a	280880	responseLargeT	error	n/a	0.42578	no	n/a	n/a
1098.253906	n/a	281153	largeTSmallT	correct	congruent	0.66016	no	T	T
1098.914062	n/a	281322	responseLargeT	correct	n/a	0.66016	no	n/a	n/a
1099.976562	n/a	281594	largeHSmallH	correct	congruent	1.3281	no	H	H
1101.304688	n/a	281934	responseLargeH	correct	n/a	1.3281	no	n/a	n/a
1102.375	n/a	282208	largeTSmallH	correct	incongruent	1.2852	no	T	H
1103.660156	n/a	282537	responseLargeT	correct	n/a	1.2852	no	n/a	n/a
1104.734375	n/a	282812	largeTSmallT	correct	congruent	1.5156	yes	T	T
1106.25	n/a	283200	responseLargeT	correct	n/a	1.5156	yes	n/a	n/a
1107.320312	n/a	283474	largeTSmallT	correct	congruent	0.64062	no	T	T
1107.960938	n/a	283638	responseLargeT	correct	n/a	0.64062	no	n/a	n/a
1109.027344	n/a	283911	largeHSmallH	correct	congruent	0.54688	no	H	H
1109.574219	n/a	284051	responseLargeH	correct	n/a	0.54688	no	n/a	n/a
1119.882812	n/a	286690	largeTSmallT	correct	congruent	3.0586	yes	T	T
1122.941406	n/a	287473	responseSmallT	correct	n/a	3.0586	yes	n/a	n/a
1124.015625	n/a	287748	largeTSmallT	correct	congruent	0.76562	no	T	T
1124.78125	n/a	287944	responseSmallT	correct	n/a	0.76562	no	n/a	n/a
1125.855469	n/a	288219	largeHSmallH	correct	congruent	1.3594	no	H	H
1127.214844	n/a	288567	responseSmallH	correct	n/a	1.3594	no	n/a	n/a
1128.292969	n/a	288843	largeHSmallH	correct	congruent	0.49219	no	H	H
1128.785156	n/a	288969	responseSmallH	correct	n/a	0.49219	no	n/a	n/a
1129.839844	n/a	289239	largeTSmallT	correct	congruent	0.53125	no	T	T
1130.371094	n/a	289375	responseSmallT	correct	n/a	0.53125	no	n/a	n/a
1131.441406	n/a	289649	largeHSmallH	correct	congruent	0.50391	no	H	H
1131.945312	n/a	289778	responseSmallH	correct	n/a	0.50391	no	n/a	n/a
1133.015625	n/a	290052	largeTSmallT	correct	congruent	0.73047	no	T	T
1133.746094	n/a	290239	responseSmallT	correct	n/a	0.73047	no	n/a	n/a
1134.800781	n/a	290509	largeTSmallH	correct	incongruent	0.62891	no	T	H
1135.429688	n/a	290670	responseSmallH	correct	n/a	0.62891	no	n/a	n/a
1136.496094	n/a	290943	largeHSmallT	correct	incongruent	0.64453	no	H	T
1137.140625	n/a	291108	responseSmallT	correct	n/a	0.64453	no	n/a	n/a
1138.214844	n/a	291383	largeHSmallH	correct	congruent	0.51562	no	H	H
1138.730469	n/a	291515	responseSmallH	correct	n/a	0.51562	no	n/a	n/a
1139.800781	n/a	291789	largeTSmallH	correct	incongruent	0.52344	no	T	H
1140.324219	n/a	291923	responseSmallH	correct	n/a	0.52344	no	n/a	n/a
1141.386719	n/a	292195	largeTSmallH	correct	incongruent	0.50391	no	T	H
1141.890625	n/a	292324	responseSmallH	correct	n/a	0.50391	no	n/a	n/a
1142.949219	n/a	292595	largeHSmallH	correct	congruent	0.47266	no	H	H
1143.421875	n/a	292716	responseSmallH	correct	n/a	0.47266	no	n/a	n/a
1144.496094	n/a	292991	largeHSmallT	correct	incongruent	0.5625	no	H	T
1145.058594	n/a	293135	responseSmallT	correct	n/a	0.5625	no	n/a	n/a
1146.121094	n/a	293407	largeHSmallH	correct	congruent	0.50391	no	H	H
1146.625	n/a	293536	responseSmallH	correct	n/a	0.50391	no	n/a	n/a
1147.695312	n/a	293810	largeHSmallH	correct	congruent	0.5	no	H	H
1148.195312	n/a	293938	responseSmallH	correct	n/a	0.5	no	n/a	n/a
1149.269531	n/a	294213	largeTSmallH	correct	incongruent	0.52734	no	T	H
1149.796875	n/a	294348	responseSmallH	correct	n/a	0.52734	no	n/a	n/a
1150.867188	n/a	294622	largeTSmallH	correct	incongruent	0.46484	no	T	H
1151.332031	n/a	294741	responseSmallH	correct	n/a	0.46484	no	n/a	n/a
1152.402344	n/a	295015	largeHSmallH	correct	congruent	0.40234	no	H	H
1152.804688	n/a	295118	responseSmallH	correct	n/a	0.40234	no	n/a	n/a
1153.867188	n/a	295390	largeTSmallH	correct	incongruent	0.44531	no	T	H
1154.3125	n/a	295504	responseSmallH	correct	n/a	0.44531	no	n/a	n/a
1155.386719	n/a	295779	largeHSmallH	correct	congruent	0.50781	no	H	H
1155.894531	n/a	295909	responseSmallH	correct	n/a	0.50781	no	n/a	n/a
1156.960938	n/a	296182	largeHSmallT	correct	incongruent	0.61328	no	H	T
1157.574219	n/a	296339	responseSmallT	correct	n/a	0.61328	no	n/a	n/a
1158.640625	n/a	296612	largeTSmallH	correct	incongruent	0.67969	no	T	H
1159.320312	n/a	296786	responseSmallH	correct	n/a	0.67969	no	n/a	n/a
1160.386719	n/a	297059	largeHSmallT	correct	incongruent	0.71094	no	H	T
1161.097656	n/a	297241	responseSmallT	correct	n/a	0.71094	no	n/a	n/a
1162.175781	n/a	297517	largeTSmallT	correct	congruent	1.1797	no	T	T
1163.355469	n/a	297819	responseSmallT	correct	n/a	1.1797	no	n/a	n/a
1164.414062	n/a	298090	largeTSmallT	correct	congruent	0.78906	no	T	T
1165.203125	n/a	298292	responseSmallT	correct	n/a	0.78906	no	n/a	n/a
1166.28125	n/a	298568	largeHSmallH	correct	congruent	0.51172	no	H	H
1166.792969	n/a	298699	responseSmallH	correct	n/a	0.51172	no	n/a	n/a
1167.867188	n/a	298974	largeTSmallH	correct	incongruent	0.63672	no	T	H
1168.503906	n/a	299137	responseSmallH	correct	n/a	0.63672	no	n/a	n/a
1169.585938	n/a	299414	largeHSmallH	correct	congruent	0.51562	no	H	H
1170.101562	n/a	299546	responseSmallH	correct	n/a	0.51562	no	n/a	n/a
1171.171875	n/a	299820	largeTSmallT	correct	congruent	0.55469	no	T	T
1171.726562	n/a	299962	responseSmallT	correct	n/a	0.55469	no	n/a	n/a
1172.789062	n/a	300234	largeHSmallT	correct	incongruent	1.043	no	H	T
1173.832031	n/a	300501	responseSmallT	correct	n/a	1.043	no	n/a	n/a
1174.90625	n/a	300776	largeTSmallT	correct	congruent	0.42188	no	T	T
1175.328125	n/a	300884	responseSmallT	correct	n/a	0.42188	no	n/a	n/a
1176.398438	n/a	301158	largeHSmallT	error	incongruent	0.52344	no	H	T
1176.921875	n/a	301292	responseSmallH	error	n/a	0.52344	no	n/a	n/a
1177.988281	n/a	301565	largeHSmallT	correct	incongruent	0.67969	no	H	T
1178.667969	n/a	301739	responseSmallT	correct	n/a	0.67969	no	n/a	n/a
1179.734375	n/a	302012	largeHSmallT	correct	incongruent	0.44531	no	H	T
1180.179688	n/a	302126	responseSmallT	correct	n/a	0.44531	no	n/a	n/a
1181.253906	n/a	302401	largeTSmallH	correct	incongruent	0.53125	no	T	H
1181.785156	n/a	302537	responseSmallH	correct	n/a	0.53125	no	n/a	n/a
1182.851562	n/a	302810	largeHSmallT	correct	incongruent	0.85156	no	H	T
1183.703125	n/a	303028	responseSmallT	correct	n/a	0.85156	no	n/a	n/a
1184.773438	n/a	303302	largeTSmallT	correct	congruent	0.51953	no	T	T
1185.292969	n/a	303435	responseSmallT	correct	n/a	0.51953	no	n/a	n/a
1186.359375	n/a	303708	largeHSmallT	correct	incongruent	0.62891	no	H	T
1186.988281	n/a	303869	responseSmallT	correct	n/a	0.62891	no	n/a	n/a
1188.054688	n/a	304142	largeHSmallT	correct	incongruent	0.41016	no	H	T
1188.464844	n/a	304247	responseSmallT	correct	n/a	0.41016	no	n/a	n/a
1189.535156	n/a	304521	largeHSmallT	correct	incongruent	0.82031	no	H	T
1190.355469	n/a	304731	responseSmallT	correct	n/a	0.82031	no	n/a	n/a
1191.425781	n/a	305005	largeHSmallT	correct	incongruent	1.4844	no	H	T
1192.910156	n/a	305385	responseSmallT	correct	n/a	1.4844	no	n/a	n/a
1193.972656	n/a	305657	largeTSmallH	correct	incongruent	2.125	yes	T	H
1196.097656	n/a	306201	responseSmallH	correct	n/a	2.125	yes	n/a	n/a
1197.160156	n/a	306473	largeTSmallT	correct	congruent	0.48047	no	T	T
1197.640625	n/a	306596	responseSmallT	correct	n/a	0.48047	no	n/a	n/a
1198.707031	n/a	306869	largeTSmallH	correct	incongruent	6.3867	yes	T	H
1205.09375	n/a	308504	responseSmallH	correct	n/a	6.3867	yes	n/a	n/a
1206.160156	n/a	308777	largeHSmallT	correct	incongruent	0.50781	no	H	T
1206.667969	n/a	308907	responseSmallT	correct	n/a	0.50781	no	n/a	n/a
1207.734375	n/a	309180	largeTSmallH	correct	incongruent	0.96484	no	T	H
1208.699219	n/a	309427	responseSmallH	correct	n/a	0.96484	no	n/a	n/a
1209.773438	n/a	309702	largeHSmallH	correct	congruent	0.45703	no	H	H
1210.230469	n/a	309819	responseSmallH	correct	n/a	0.45703	no	n/a	n/a
1211.292969	n/a	310091	largeHSmallH	correct	congruent	0.375	no	H	H
1211.667969	n/a	310187	responseSmallH	correct	n/a	0.375	no	n/a	n/a
1212.734375	n/a	310460	largeHSmallT	correct	incongruent	0.59375	no	H	T
1213.328125	n/a	310612	responseSmallT	correct	n/a	0.59375	no	n/a	n/a
1214.398438	n/a	310886	largeHSmallH	correct	congruent	0.42188	no	H	H
1214.820312	n/a	310994	responseSmallH	correct	n/a	0.42188	no	n/a	n/a
1215.878906	n/a	311265	largeTSmallT	correct	congruent	0.51562	no	T	T
1216.394531	n/a	311397	responseSmallT	correct	n/a	0.51562	no	n/a	n/a
1217.453125	n/a	311668	largeHSmallT	correct	incongruent	0.55078	no	H	T
1218.003906	n/a	311809	responseSmallT	correct	n/a	0.55078	no	n/a	n/a
1219.066406	n/a	312081	largeHSmallH	correct	congruent	0.45703	no	H	H
1219.523438	n/a	312198	responseSmallH	correct	n/a	0.45703	no	n/a	n/a
1220.597656	n/a	312473	largeTSmallT	correct	congruent	0.49219	no	T	T
1221.089844	n/a	312599	responseSmallT	correct	n/a	0.49219	no	n/a	n/a
1222.160156	n/a	312873	largeHSmallT	correct	incongruent	0.72266	no	H	T
1222.882812	n/a	313058	responseSmallT	correct	n/a	0.72266	no	n/a	n/a
1223.945312	n/a	313330	largeTSmallT	correct	congruent	0.4375	no	T	T
1224.382812	n/a	313442	responseSmallT	correct	n/a	0.4375	no	n/a	n/a
1225.4375	n/a	313712	largeHSmallT	correct	incongruent	0.54297	no	H	T
1225.980469	n/a	313851	responseSmallT	correct	n/a	0.54297	no	n/a	n/a
1227.050781	n/a	314125	largeHSmallH	correct	congruent	2.3281	yes	H	H
1229.378906	n/a	314721	responseSmallH	correct	n/a	2.3281	yes	n/a	n/a
1230.453125	n/a	314996	largeTSmallH	correct	incongruent	0.83984	no	T	H
1231.292969	n/a	315211	responseSmallH	correct	n/a	0.83984	no	n/a	n/a
1232.359375	n/a	315484	largeTSmallT	correct	congruent	0.50391	no	T	T
1232.863281	n/a	315613	responseSmallT	correct	n/a	0.50391	no	n/a	n/a
1233.933594	n/a	315887	largeHSmallT	correct	incongruent	0.55078	no	H	T
1234.484375	n/a	316028	responseSmallT	correct	n/a	0.55078	no	n/a	n/a
1235.558594	n/a	316303	largeTSmallH	correct	incongruent	0.46094	no	T	H
1236.019531	n/a	316421	responseSmallH	correct	n/a	0.46094	no	n/a	n/a
1237.078125	n/a	316692	largeHSmallT	correct	incongruent	0.53516	no	H	T
1237.613281	n/a	316829	responseSmallT	correct	n/a	0.53516	no	n/a	n/a
1238.691406	n/a	317105	largeHSmallH	correct	congruent	0.5	no	H	H
1239.191406	n/a	317233	responseSmallH	correct	n/a	0.5	no	n/a	n/a
1240.265625	n/a	317508	largeTSmallH	correct	incongruent	0.61719	no	T	H
1240.882812	n/a	317666	responseSmallH	correct	n/a	0.61719	no	n/a	n/a
1241.945312	n/a	317938	largeTSmallT	correct	congruent	3.2344	yes	T	T
1245.179688	n/a	318766	responseSmallT	correct	n/a	3.2344	yes	n/a	n/a
1246.253906	n/a	319041	largeTSmallT	correct	congruent	0.77734	no	T	T
1247.03125	n/a	319240	responseSmallT	correct	n/a	0.77734	no	n/a	n/a
1248.09375	n/a	319512	largeHSmallH	correct	congruent	4.4531	yes	H	H
1252.546875	n/a	320652	responseSmallH	correct	n/a	4.4531	yes	n/a	n/a
1253.613281	n/a	320925	largeHSmallT	correct	incongruent	0.75	no	H	T
1254.363281	n/a	321117	responseSmallT	correct	n/a	0.75	no	n/a	n/a
1255.425781	n/a	321389	largeHSmallH	correct	congruent	3.2734	yes	H	H
1258.699219	n/a	322227	responseSmallH	correct	n/a	3.2734	yes	n/a	n/a
1259.757812	n/a	322498	largeTSmallT	correct	congruent	0.44141	no	T	T
1260.199219	n/a	322611	responseSmallT	correct	n/a	0.44141	no	n/a	n/a
1261.265625	n/a	322884	largeHSmallH	correct	congruent	0.53906	no	H	H
1261.804688	n/a	323022	responseSmallH	correct	n/a	0.53906	no	n/a	n/a
1262.863281	n/a	323293	largeHSmallH	correct	congruent	0.49219	no	H	H
1263.355469	n/a	323419	responseSmallH	correct	n/a	0.49219	no	n/a	n/a
1264.425781	n/a	323693	largeHSmallT	correct	incongruent	0.53125	no	H	T
1264.957031	n/a	323829	responseSmallT	correct	n/a	0.53125	no	n/a	n/a
1266.023438	n/a	324102	largeHSmallT	correct	incongruent	0.65234	no	H	T
1266.675781	n/a	324269	responseSmallT	correct	n/a	0.65234	no	n/a	n/a
1267.730469	n/a	324539	largeTSmallH	correct	incongruent	0.42969	no	T	H
1268.160156	n/a	324649	responseSmallH	correct	n/a	0.42969	no	n/a	n/a
1269.226562	n/a	324922	largeHSmallT	correct	incongruent	0.45703	no	H	T
1269.683594	n/a	325039	responseSmallT	correct	n/a	0.45703	no	n/a	n/a
1270.746094	n/a	325311	largeTSmallH	correct	incongruent	0.48047	no	T	H
1271.226562	n/a	325434	responseSmallH	correct	n/a	0.48047	no	n/a	n/a
1272.292969	n/a	325707	largeTSmallT	correct	congruent	0.41406	no	T	T
1272.707031	n/a	325813	responseSmallT	correct	n/a	0.41406	no	n/a	n/a
1273.769531	n/a	326085	largeHSmallH	correct	congruent	0.94531	no	H	H
1274.714844	n/a	326327	responseSmallH	correct	n/a	0.94531	no	n/a	n/a
1275.785156	n/a	326601	largeHSmallH	correct	congruent	4.8242	yes	H	H
1280.609375	n/a	327836	responseSmallH	correct	n/a	4.8242	yes	n/a	n/a
1281.679688	n/a	328110	largeHSmallT	correct	incongruent	0.51953	no	H	T
1282.199219	n/a	328243	responseSmallT	correct	n/a	0.51953	no	n/a	n/a
1283.277344	n/a	328519	largeTSmallH	correct	incongruent	0.57812	no	T	H
1283.855469	n/a	328667	responseSmallH	correct	n/a	0.57812	no	n/a	n/a
1284.929688	n/a	328942	largeTSmallH	correct	incongruent	1.1953	no	T	H
1286.125	n/a	329248	responseSmallH	correct	n/a	1.1953	no	n/a	n/a
1287.183594	n/a	329519	largeHSmallH	correct	congruent	4.4961	yes	H	H
1291.679688	n/a	330670	responseSmallH	correct	n/a	4.4961	yes	n/a	n/a
1292.746094	n/a	330943	largeTSmallT	correct	congruent	0.58203	no	T	T
1293.328125	n/a	331092	responseSmallT	correct	n/a	0.58203	no	n/a	n/a
1294.398438	n/a	331366	largeHSmallH	correct	congruent	1.0508	no	H	H
1295.449219	n/a	331635	responseSmallH	correct	n/a	1.0508	no	n/a	n/a
1296.515625	n/a	331908	largeTSmallT	correct	congruent	0.85156	no	T	T
1297.367188	n/a	332126	responseSmallT	correct	n/a	0.85156	no	n/a	n/a
1298.4375	n/a	332400	largeTSmallT	correct	congruent	0.65234	no	T	T
1299.089844	n/a	332567	responseSmallT	correct	n/a	0.65234	no	n/a	n/a
1300.15625	n/a	332840	largeTSmallH	correct	incongruent	1.4961	no	T	H
1301.652344	n/a	333223	responseSmallH	correct	n/a	1.4961	no	n/a	n/a
1302.71875	n/a	333496	largeHSmallH	correct	congruent	0.51172	no	H	H
1303.230469	n/a	333627	responseSmallH	correct	n/a	0.51172	no	n/a	n/a
1304.304688	n/a	333902	largeTSmallT	correct	congruent	0.49219	no	T	T
1304.796875	n/a	334028	responseSmallT	correct	n/a	0.49219	no	n/a	n/a
1305.863281	n/a	334301	largeTSmallT	correct	congruent	1.1094	no	T	T
1306.972656	n/a	334585	responseSmallT	correct	n/a	1.1094	no	n/a	n/a
1308.050781	n/a	334861	largeHSmallH	correct	congruent	0.48828	no	H	H
1308.539062	n/a	334986	responseSmallH	correct	n/a	0.48828	no	n/a	n/a
1309.609375	n/a	335260	largeHSmallT	correct	incongruent	0.58203	no	H	T
1310.191406	n/a	335409	responseSmallT	correct	n/a	0.58203	no	n/a	n/a
1311.265625	n/a	335684	largeHSmallT	correct	incongruent	0.53516	no	H	T
1311.800781	n/a	335821	responseSmallT	correct	n/a	0.53516	no	n/a	n/a
1312.863281	n/a	336093	largeHSmallH	correct	congruent	0.44531	no	H	H
1313.308594	n/a	336207	responseSmallH	correct	n/a	0.44531	no	n/a	n/a
1314.382812	n/a	336482	largeTSmallT	correct	congruent	0.53516	no	T	T
1314.917969	n/a	336619	responseSmallT	correct	n/a	0.53516	no	n/a	n/a
1315.984375	n/a	336892	largeHSmallT	correct	incongruent	0.64844	no	H	T
1316.632812	n/a	337058	responseSmallT	correct	n/a	0.64844	no	n/a	n/a
1317.703125	n/a	337332	largeTSmallT	correct	congruent	0.90625	no	T	T
1318.609375	n/a	337564	responseSmallT	correct	n/a	0.90625	no	n/a	n/a
1319.664062	n/a	337834	largeHSmallT	correct	incongruent	1.0078	no	H	T
1320.671875	n/a	338092	responseSmallT	correct	n/a	1.0078	no	n/a	n/a
1321.742188	n/a	338366	largeHSmallT	correct	incongruent	0.47266	no	H	T
1322.214844	n/a	338487	responseSmallT	correct	n/a	0.47266	no	n/a	n/a
1323.289062	n/a	338762	largeTSmallH	correct	incongruent	0.93359	no	T	H
1324.222656	n/a	339001	responseSmallH	correct	n/a	0.93359	no	n/a	n/a
1325.289062	n/a	339274	largeTSmallH	correct	incongruent	0.5	no	T	H
1325.789062	n/a	339402	responseSmallH	correct	n/a	0.5	no	n/a	n/a
1326.863281	n/a	339677	largeTSmallH	correct	incongruent	0.49219	no	T	H
1327.355469	n/a	339803	responseSmallH	correct	n/a	0.49219	no	n/a	n/a
1328.421875	n/a	340076	largeTSmallT	correct	congruent	0.75781	no	T	T
1329.179688	n/a	340270	responseSmallT	correct	n/a	0.75781	no	n/a	n/a
1330.25	n/a	340544	largeTSmallT	correct	congruent	1.332	no	T	T
1331.582031	n/a	340885	responseSmallT	correct	n/a	1.332	no	n/a	n/a
1332.648438	n/a	341158	largeHSmallH	correct	congruent	0.51172	no	H	H
1333.160156	n/a	341289	responseSmallH	correct	n/a	0.51172	no	n/a	n/a
1334.222656	n/a	341561	largeHSmallH	correct	congruent	0.87891	no	H	H
1335.101562	n/a	341786	responseSmallH	correct	n/a	0.87891	no	n/a	n/a
1336.171875	n/a	342060	largeTSmallH	correct	incongruent	2.5469	yes	T	H
1338.71875	n/a	342712	responseSmallH	correct	n/a	2.5469	yes	n/a	n/a
1339.796875	n/a	342988	largeTSmallH	correct	incongruent	0.54688	no	T	H
1340.34375	n/a	343128	responseSmallH	correct	n/a	0.54688	no	n/a	n/a
1341.410156	n/a	343401	largeTSmallT	correct	congruent	0.80469	no	T	T
1342.214844	n/a	343607	responseSmallT	correct	n/a	0.80469	no	n/a	n/a
1343.289062	n/a	343882	largeHSmallT	correct	incongruent	0.85156	no	H	T
1344.140625	n/a	344100	responseSmallT	correct	n/a	0.85156	no	n/a	n/a
1345.210938	n/a	344374	largeTSmallH	correct	incongruent	0.68359	no	T	H
1345.894531	n/a	344549	responseSmallH	correct	n/a	0.68359	no	n/a	n/a
1346.96875	n/a	344824	largeHSmallT	correct	incongruent	0.59766	no	H	T
1347.566406	n/a	344977	responseSmallT	correct	n/a	0.59766	no	n/a	n/a
1348.636719	n/a	345251	largeTSmallH	correct	incongruent	0.56641	no	T	H
1349.203125	n/a	345396	responseSmallH	correct	n/a	0.56641	no	n/a	n/a
1350.277344	n/a	345671	largeTSmallT	correct	congruent	0.69141	no	T	T
1350.96875	n/a	345848	responseSmallT	correct	n/a	0.69141	no	n/a	n/a
1352.035156	n/a	346121	largeHSmallH	correct	congruent	0.64844	no	H	H
1352.683594	n/a	346287	responseSmallH	correct	n/a	0.64844	no	n/a	n/a
1353.757812	n/a	346562	largeTSmallT	correct	congruent	1.3555	no	T	T
1355.113281	n/a	346909	responseSmallT	correct	n/a	1.3555	no	n/a	n/a
1356.167969	n/a	347179	largeTSmallT	correct	congruent	1.0898	no	T	T
1357.257812	n/a	347458	responseSmallT	correct	n/a	1.0898	no	n/a	n/a
1358.328125	n/a	347732	largeHSmallT	correct	incongruent	1.8633	yes	H	T
1360.191406	n/a	348209	responseSmallT	correct	n/a	1.8633	yes	n/a	n/a
1361.261719	n/a	348483	largeTSmallT	correct	congruent	1.3516	no	T	T
1362.613281	n/a	348829	responseSmallT	correct	n/a	1.3516	no	n/a	n/a
1363.675781	n/a	349101	largeHSmallT	correct	incongruent	0.42969	no	H	T
1364.105469	n/a	349211	responseSmallT	correct	n/a	0.42969	no	n/a	n/a
1365.167969	n/a	349483	largeTSmallH	error	incongruent	1.2109	no	T	H
1366.378906	n/a	349793	responseSmallT	error	n/a	1.2109	no	n/a	n/a
1367.4375	n/a	350064	largeHSmallH	correct	congruent	1.4375	no	H	H
1368.875	n/a	350432	responseSmallH	correct	n/a	1.4375	no	n/a	n/a
1369.941406	n/a	350705	largeHSmallH	correct	congruent	0.89844	no	H	H
1370.839844	n/a	350935	responseSmallH	correct	n/a	0.89844	no	n/a	n/a
1371.914062	n/a	351210	largeHSmallT	correct	incongruent	0.60938	no	H	T
