onset	duration	sample	value	response_type	congruence	response_time	response_out_of_range	largeletter	smallletter
12.4765625	n/a	3194	largeTSmallT	correct	congruent	0.70703	no	T	T
13.18359375	n/a	3375	responseLargeT	correct	n/a	0.70703	no	n/a	n/a
14.2578125	n/a	3650	largeHSmallH	correct	congruent	0.62109	no	H	H
14.87890625	n/a	3809	responseLargeH	correct	n/a	0.62109	no	n/a	n/a
15.953125	n/a	4084	largeHSmallH	correct	congruent	0.54297	no	H	H
16.49609375	n/a	4223	responseLargeH	correct	n/a	0.54297	no	n/a	n/a
17.578125	n/a	4500	largeHSmallH	correct	congruent	0.51562	no	H	H
18.09375	n/a	4632	responseLargeH	correct	n/a	0.51562	no	n/a	n/a
19.16796875	n/a	4907	largeHSmallT	error	incongruent	0.75391	no	H	T
19.921875	n/a	5100	responseLargeT	error	n/a	0.75391	no	n/a	n/a
20.9921875	n/a	5374	largeTSmallT	correct	congruent	0.60938	no	T	T
21.6015625	n/a	5530	responseLargeT	correct	n/a	0.60938	no	n/a	n/a
22.671875	n/a	5804	largeHSmallH	correct	congruent	0.5	no	H	H
23.171875	n/a	5932	responseLargeH	correct	n/a	0.5	no	n/a	n/a
24.2578125	n/a	6210	largeHSmallH	correct	congruent	0.71484	no	H	H
24.97265625	n/a	6393	responseLargeH	correct	n/a	0.71484	no	n/a	n/a
26.046875	n/a	6668	largeHSmallT	correct	incongruent	0.56641	no	H	T
26.61328125	n/a	6813	responseLargeH	correct	n/a	0.56641	no	n/a	n/a
27.6875	n/a	7088	largeHSmallT	correct	incongruent	0.53906	no	H	T
28.2265625	n/a	7226	responseLargeH	correct	n/a	0.53906	no	n/a	n/a
29.3125	n/a	7504	largeHSmallT	correct	incongruent	0.47266	no	H	T
29.78515625	n/a	7625	responseLargeH	correct	n/a	0.47266	no	n/a	n/a
30.84765625	n/a	7897	largeHSmallH	correct	congruent	0.44922	no	H	H
31.296875	n/a	8012	responseLargeH	correct	n/a	0.44922	no	n/a	n/a
32.3671875	n/a	8286	largeHSmallH	correct	congruent	0.42188	no	H	H
32.7890625	n/a	8394	responseLargeH	correct	n/a	0.42188	no	n/a	n/a
33.859375	n/a	8668	largeTSmallH	correct	incongruent	0.58594	no	T	H
34.4453125	n/a	8818	responseLargeT	correct	n/a	0.58594	no	n/a	n/a
35.51171875	n/a	9091	largeHSmallT	correct	incongruent	0.57422	no	H	T
36.0859375	n/a	9238	responseLargeH	correct	n/a	0.57422	no	n/a	n/a
37.15234375	n/a	9511	largeHSmallT	correct	incongruent	0.44141	no	H	T
37.59375	n/a	9624	responseLargeH	correct	n/a	0.44141	no	n/a	n/a
38.671875	n/a	9900	largeTSmallH	correct	incongruent	0.60938	no	T	H
39.28125	n/a	10056	responseLargeT	correct	n/a	0.60938	no	n/a	n/a
40.3515625	n/a	10330	largeTSmallT	correct	congruent	0.51953	no	T	T
40.87109375	n/a	10463	responseLargeT	correct	n/a	0.51953	no	n/a	n/a
41.9375	n/a	10736	largeHSmallT	error	incongruent	0.40234	no	H	T
42.33984375	n/a	10839	responseLargeT	error	n/a	0.40234	no	n/a	n/a
43.40625	n/a	11112	largeTSmallT	correct	congruent	0.61719	no	T	T
44.0234375	n/a	11270	responseLargeT	correct	n/a	0.61719	no	n/a	n/a
45.09765625	n/a	11545	largeTSmallH	correct	incongruent	0.61328	no	T	H
45.7109375	n/a	11702	responseLargeT	correct	n/a	0.61328	no	n/a	n/a
46.77734375	n/a	11975	largeHSmallH	correct	congruent	0.47656	no	H	H
47.25390625	n/a	12097	responseLargeH	correct	n/a	0.47656	no	n/a	n/a
48.32421875	n/a	12371	largeHSmallT	error	incongruent	0.63672	no	H	T
48.9609375	n/a	12534	responseLargeT	error	n/a	0.63672	no	n/a	n/a
50.046875	n/a	12812	largeHSmallH	correct	congruent	0.66016	no	H	H
50.70703125	n/a	12981	responseLargeH	correct	n/a	0.66016	no	n/a	n/a
51.79296875	n/a	13259	largeTSmallT	correct	congruent	0.57812	no	T	T
52.37109375	n/a	13407	responseLargeT	correct	n/a	0.57812	no	n/a	n/a
53.4453125	n/a	13682	largeTSmallH	correct	incongruent	0.68359	no	T	H
54.12890625	n/a	13857	responseLargeT	correct	n/a	0.68359	no	n/a	n/a
55.20703125	n/a	14133	largeTSmallH	correct	incongruent	0.60938	no	T	H
55.81640625	n/a	14289	responseLargeT	correct	n/a	0.60938	no	n/a	n/a
56.88671875	n/a	14563	largeTSmallH	correct	incongruent	0.50781	no	T	H
57.39453125	n/a	14693	responseLargeT	correct	n/a	0.50781	no	n/a	n/a
58.45703125	n/a	14965	largeHSmallH	correct	congruent	0.55859	no	H	H
59.015625	n/a	15108	responseLargeH	correct	n/a	0.55859	no	n/a	n/a
60.0859375	n/a	15382	largeHSmallT	correct	incongruent	0.35938	no	H	T
60.4453125	n/a	15474	responseLargeH	correct	n/a	0.35938	no	n/a	n/a
61.51171875	n/a	15747	largeTSmallT	correct	congruent	0.60547	no	T	T
62.1171875	n/a	15902	responseLargeT	correct	n/a	0.60547	no	n/a	n/a
63.19140625	n/a	16177	largeHSmallH	correct	congruent	0.54688	no	H	H
63.73828125	n/a	16317	responseLargeH	correct	n/a	0.54688	no	n/a	n/a
64.81640625	n/a	16593	largeTSmallT	correct	congruent	0.59766	no	T	T
65.4140625	n/a	16746	responseLargeT	correct	n/a	0.59766	no	n/a	n/a
66.484375	n/a	17020	largeHSmallH	correct	congruent	0.44141	no	H	H
66.92578125	n/a	17133	responseLargeH	correct	n/a	0.44141	no	n/a	n/a
67.9921875	n/a	17406	largeTSmallH	correct	incongruent	0.52734	no	T	H
68.51953125	n/a	17541	responseLargeT	correct	n/a	0.52734	no	n/a	n/a
69.578125	n/a	17812	largeTSmallH	correct	incongruent	0.60938	no	T	H
70.1875	n/a	17968	responseLargeT	correct	n/a	0.60938	no	n/a	n/a
71.2578125	n/a	18242	largeTSmallH	correct	incongruent	0.49609	no	T	H
71.75390625	n/a	18369	responseLargeT	correct	n/a	0.49609	no	n/a	n/a
72.83203125	n/a	18645	largeTSmallT	correct	congruent	0.47656	no	T	T
73.30859375	n/a	18767	responseLargeT	correct	n/a	0.47656	no	n/a	n/a
74.37890625	n/a	19041	largeHSmallH	correct	congruent	0.53516	no	H	H
74.9140625	n/a	19178	responseLargeH	correct	n/a	0.53516	no	n/a	n/a
75.9765625	n/a	19450	largeTSmallT	correct	congruent	0.55469	no	T	T
76.53125	n/a	19592	responseLargeT	correct	n/a	0.55469	no	n/a	n/a
77.60546875	n/a	19867	largeHSmallT	correct	incongruent	0.44922	no	H	T
78.0546875	n/a	19982	responseLargeH	correct	n/a	0.44922	no	n/a	n/a
79.13671875	n/a	20259	largeTSmallT	correct	congruent	0.4375	no	T	T
79.57421875	n/a	20371	responseLargeT	correct	n/a	0.4375	no	n/a	n/a
80.64453125	n/a	20645	largeHSmallH	correct	congruent	0.39453	no	H	H
81.0390625	n/a	20746	responseLargeH	correct	n/a	0.39453	no	n/a	n/a
82.109375	n/a	21020	largeTSmallT	correct	congruent	0.50391	no	T	T
82.61328125	n/a	21149	responseLargeT	correct	n/a	0.50391	no	n/a	n/a
83.68359375	n/a	21423	largeHSmallH	correct	congruent	0.51953	no	H	H
84.203125	n/a	21556	responseLargeH	correct	n/a	0.51953	no	n/a	n/a
85.28515625	n/a	21833	largeHSmallH	correct	congruent	0.61719	no	H	H
85.90234375	n/a	21991	responseLargeH	correct	n/a	0.61719	no	n/a	n/a
86.9765625	n/a	22266	largeTSmallH	correct	incongruent	0.74609	no	T	H
87.72265625	n/a	22457	responseLargeT	correct	n/a	0.74609	no	n/a	n/a
88.7890625	n/a	22730	largeHSmallH	correct	congruent	0.48828	no	H	H
89.27734375	n/a	22855	responseLargeH	correct	n/a	0.48828	no	n/a	n/a
90.3515625	n/a	23130	largeHSmallH	correct	congruent	0.52344	no	H	H
90.875	n/a	23264	responseLargeH	correct	n/a	0.52344	no	n/a	n/a
91.9375	n/a	23536	largeTSmallH	correct	incongruent	0.41797	no	T	H
92.35546875	n/a	23643	responseLargeT	correct	n/a	0.41797	no	n/a	n/a
93.41796875	n/a	23915	largeTSmallT	error	congruent	0.40234	no	T	T
93.8203125	n/a	24018	responseLargeH	error	n/a	0.40234	no	n/a	n/a
94.8828125	n/a	24290	largeHSmallH	correct	congruent	0.72656	no	H	H
95.609375	n/a	24476	responseLargeH	correct	n/a	0.72656	no	n/a	n/a
96.68359375	n/a	24751	largeHSmallT	error	incongruent	0.56641	no	H	T
97.25	n/a	24896	responseLargeT	error	n/a	0.56641	no	n/a	n/a
98.32421875	n/a	25171	largeTSmallT	correct	congruent	0.89062	no	T	T
99.21484375	n/a	25399	responseLargeT	correct	n/a	0.89062	no	n/a	n/a
100.2851562	n/a	25673	largeHSmallT	correct	incongruent	0.76172	no	H	T
101.046875	n/a	25868	responseLargeH	correct	n/a	0.76172	no	n/a	n/a
102.109375	n/a	26140	largeHSmallH	correct	congruent	0.57031	no	H	H
102.6796875	n/a	26286	responseLargeH	correct	n/a	0.57031	no	n/a	n/a
103.75	n/a	26560	largeTSmallH	correct	incongruent	0.58984	no	T	H
104.3398438	n/a	26711	responseLargeT	correct	n/a	0.58984	no	n/a	n/a
105.4023438	n/a	26983	largeHSmallH	correct	congruent	0.82422	no	H	H
106.2265625	n/a	27194	responseLargeH	correct	n/a	0.82422	no	n/a	n/a
107.3125	n/a	27472	largeTSmallT	correct	congruent	0.45703	no	T	T
107.7695312	n/a	27589	responseLargeT	correct	n/a	0.45703	no	n/a	n/a
108.8320312	n/a	27861	largeTSmallH	correct	incongruent	0.45703	no	T	H
109.2890625	n/a	27978	responseLargeT	correct	n/a	0.45703	no	n/a	n/a
110.3632812	n/a	28253	largeHSmallH	correct	congruent	0.54688	no	H	H
110.9101562	n/a	28393	responseLargeH	correct	n/a	0.54688	no	n/a	n/a
111.9921875	n/a	28670	largeTSmallH	correct	incongruent	0.51953	no	T	H
112.5117188	n/a	28803	responseLargeT	correct	n/a	0.51953	no	n/a	n/a
113.578125	n/a	29076	largeHSmallT	correct	incongruent	0.59375	no	H	T
114.171875	n/a	29228	responseLargeH	correct	n/a	0.59375	no	n/a	n/a
115.2421875	n/a	29502	largeHSmallT	correct	incongruent	0.48828	no	H	T
115.7304688	n/a	29627	responseLargeH	correct	n/a	0.48828	no	n/a	n/a
116.8046875	n/a	29902	largeTSmallH	correct	incongruent	0.54297	no	T	H
117.3476562	n/a	30041	responseLargeT	correct	n/a	0.54297	no	n/a	n/a
118.4179688	n/a	30315	largeTSmallT	correct	congruent	0.83984	no	T	T
119.2578125	n/a	30530	responseLargeT	correct	n/a	0.83984	no	n/a	n/a
120.3359375	n/a	30806	largeTSmallT	correct	congruent	0.51953	no	T	T
120.8554688	n/a	30939	responseLargeT	correct	n/a	0.51953	no	n/a	n/a
121.921875	n/a	31212	largeHSmallT	correct	incongruent	0.53125	no	H	T
122.453125	n/a	31348	responseLargeH	correct	n/a	0.53125	no	n/a	n/a
123.5351562	n/a	31625	largeHSmallT	correct	incongruent	0.43359	no	H	T
123.96875	n/a	31736	responseLargeH	correct	n/a	0.43359	no	n/a	n/a
125.0429688	n/a	32011	largeTSmallH	correct	incongruent	0.60547	no	T	H
125.6484375	n/a	32166	responseLargeT	correct	n/a	0.60547	no	n/a	n/a
126.7226562	n/a	32441	largeHSmallH	correct	congruent	0.72656	no	H	H
127.4492188	n/a	32627	responseLargeH	correct	n/a	0.72656	no	n/a	n/a
128.5234375	n/a	32902	largeTSmallH	correct	incongruent	0.67969	no	T	H
129.203125	n/a	33076	responseLargeT	correct	n/a	0.67969	no	n/a	n/a
130.2695312	n/a	33349	largeTSmallH	correct	incongruent	0.84766	no	T	H
131.1171875	n/a	33566	responseLargeT	correct	n/a	0.84766	no	n/a	n/a
132.1914062	n/a	33841	largeTSmallH	correct	incongruent	0.42188	no	T	H
132.6132812	n/a	33949	responseLargeT	correct	n/a	0.42188	no	n/a	n/a
133.6835938	n/a	34223	largeTSmallT	correct	congruent	0.52344	no	T	T
134.2070312	n/a	34357	responseLargeT	correct	n/a	0.52344	no	n/a	n/a
135.2695312	n/a	34629	largeHSmallT	correct	incongruent	0.38672	no	H	T
135.65625	n/a	34728	responseLargeH	correct	n/a	0.38672	no	n/a	n/a
136.7226562	n/a	35001	largeHSmallT	correct	incongruent	0.62891	no	H	T
137.3515625	n/a	35162	responseLargeH	correct	n/a	0.62891	no	n/a	n/a
138.4296875	n/a	35438	largeHSmallT	correct	incongruent	0.44141	no	H	T
138.8710938	n/a	35551	responseLargeH	correct	n/a	0.44141	no	n/a	n/a
139.9375	n/a	35824	largeTSmallT	correct	congruent	0.67578	no	T	T
140.6132812	n/a	35997	responseLargeT	correct	n/a	0.67578	no	n/a	n/a
141.6835938	n/a	36271	largeHSmallT	correct	incongruent	0.54688	no	H	T
142.2304688	n/a	36411	responseLargeH	correct	n/a	0.54688	no	n/a	n/a
143.296875	n/a	36684	largeTSmallT	correct	congruent	0.61328	no	T	T
143.9101562	n/a	36841	responseLargeT	correct	n/a	0.61328	no	n/a	n/a
144.9765625	n/a	37114	largeTSmallH	correct	incongruent	0.60547	no	T	H
145.5820312	n/a	37269	responseLargeT	correct	n/a	0.60547	no	n/a	n/a
146.6445312	n/a	37541	largeTSmallT	correct	congruent	0.47266	no	T	T
147.1171875	n/a	37662	responseLargeT	correct	n/a	0.47266	no	n/a	n/a
148.1914062	n/a	37937	largeHSmallH	error	congruent	0.28516	no	H	H
148.4765625	n/a	38010	responseLargeT	error	n/a	0.28516	no	n/a	n/a
149.5507812	n/a	38285	largeHSmallH	correct	congruent	0.60938	no	H	H
150.1601562	n/a	38441	responseLargeH	correct	n/a	0.60938	no	n/a	n/a
151.2304688	n/a	38715	largeTSmallH	correct	incongruent	0.75781	no	T	H
151.9882812	n/a	38909	responseLargeT	correct	n/a	0.75781	no	n/a	n/a
153.0546875	n/a	39182	largeHSmallT	correct	incongruent	0.42969	no	H	T
153.484375	n/a	39292	responseLargeH	correct	n/a	0.42969	no	n/a	n/a
154.5625	n/a	39568	largeTSmallT	correct	congruent	0.63672	no	T	T
155.1992188	n/a	39731	responseLargeT	correct	n/a	0.63672	no	n/a	n/a
156.2695312	n/a	40005	largeHSmallT	correct	incongruent	1.0547	no	H	T
157.3242188	n/a	40275	responseLargeH	correct	n/a	1.0547	no	n/a	n/a
158.390625	n/a	40548	largeHSmallT	correct	incongruent	0.56641	no	H	T
158.9570312	n/a	40693	responseLargeH	correct	n/a	0.56641	no	n/a	n/a
160.0273438	n/a	40967	largeTSmallH	correct	incongruent	0.57812	no	T	H
160.6054688	n/a	41115	responseLargeT	correct	n/a	0.57812	no	n/a	n/a
161.6679688	n/a	41387	largeTSmallT	correct	congruent	0.84766	no	T	T
162.515625	n/a	41604	responseLargeT	correct	n/a	0.84766	no	n/a	n/a
163.5898438	n/a	41879	largeTSmallT	correct	congruent	0.56641	no	T	T
164.15625	n/a	42024	responseLargeT	correct	n/a	0.56641	no	n/a	n/a
165.2304688	n/a	42299	largeTSmallH	correct	incongruent	0.59766	no	T	H
165.828125	n/a	42452	responseLargeT	correct	n/a	0.59766	no	n/a	n/a
166.8945312	n/a	42725	largeTSmallT	correct	congruent	0.50391	no	T	T
167.3984375	n/a	42854	responseLargeT	correct	n/a	0.50391	no	n/a	n/a
168.46875	n/a	43128	largeHSmallT	correct	incongruent	0.39844	no	H	T
168.8671875	n/a	43230	responseLargeH	correct	n/a	0.39844	no	n/a	n/a
169.9335938	n/a	43503	largeHSmallH	correct	congruent	0.5625	no	H	H
170.4960938	n/a	43647	responseLargeH	correct	n/a	0.5625	no	n/a	n/a
171.5625	n/a	43920	largeTSmallT	correct	congruent	0.55859	no	T	T
172.1210938	n/a	44063	responseLargeT	correct	n/a	0.55859	no	n/a	n/a
173.203125	n/a	44340	largeTSmallH	correct	incongruent	0.62891	no	T	H
173.8320312	n/a	44501	responseLargeT	correct	n/a	0.62891	no	n/a	n/a
174.8945312	n/a	44773	largeTSmallT	correct	congruent	0.55859	no	T	T
175.453125	n/a	44916	responseLargeT	correct	n/a	0.55859	no	n/a	n/a
176.5234375	n/a	45190	largeHSmallT	correct	incongruent	0.58984	no	H	T
177.1132812	n/a	45341	responseLargeH	correct	n/a	0.58984	no	n/a	n/a
178.1757812	n/a	45613	largeHSmallH	correct	congruent	0.57031	no	H	H
178.7460938	n/a	45759	responseLargeH	correct	n/a	0.57031	no	n/a	n/a
179.8164062	n/a	46033	largeTSmallH	correct	incongruent	0.63281	no	T	H
180.4492188	n/a	46195	responseLargeT	correct	n/a	0.63281	no	n/a	n/a
181.5078125	n/a	46466	largeHSmallH	correct	congruent	0.50781	no	H	H
182.015625	n/a	46596	responseLargeH	correct	n/a	0.50781	no	n/a	n/a
183.09375	n/a	46872	largeTSmallH	correct	incongruent	0.59766	no	T	H
183.6914062	n/a	47025	responseLargeT	correct	n/a	0.59766	no	n/a	n/a
184.7617188	n/a	47299	largeHSmallT	correct	incongruent	0.51562	no	H	T
185.2773438	n/a	47431	responseLargeH	correct	n/a	0.51562	no	n/a	n/a
186.3476562	n/a	47705	largeTSmallT	correct	congruent	0.48047	no	T	T
186.828125	n/a	47828	responseLargeT	correct	n/a	0.48047	no	n/a	n/a
187.8945312	n/a	48101	largeHSmallT	correct	incongruent	0.43359	no	H	T
188.328125	n/a	48212	responseLargeH	correct	n/a	0.43359	no	n/a	n/a
189.3867188	n/a	48483	largeHSmallT	correct	incongruent	0.58594	no	H	T
189.9726562	n/a	48633	responseLargeH	correct	n/a	0.58594	no	n/a	n/a
191.0429688	n/a	48907	largeHSmallH	correct	congruent	0.47656	no	H	H
191.5195312	n/a	49029	responseLargeH	correct	n/a	0.47656	no	n/a	n/a
192.5898438	n/a	49303	largeTSmallT	correct	congruent	0.52734	no	T	T
193.1171875	n/a	49438	responseLargeT	correct	n/a	0.52734	no	n/a	n/a
194.1875	n/a	49712	largeTSmallT	correct	congruent	0.42578	no	T	T
194.6132812	n/a	49821	responseLargeT	correct	n/a	0.42578	no	n/a	n/a
195.6796875	n/a	50094	largeTSmallH	correct	incongruent	0.67578	no	T	H
196.3554688	n/a	50267	responseLargeT	correct	n/a	0.67578	no	n/a	n/a
197.4296875	n/a	50542	largeHSmallT	correct	incongruent	0.72656	no	H	T
198.15625	n/a	50728	responseLargeH	correct	n/a	0.72656	no	n/a	n/a
199.2148438	n/a	50999	largeHSmallT	correct	incongruent	0.57031	no	H	T
199.7851562	n/a	51145	responseLargeH	correct	n/a	0.57031	no	n/a	n/a
200.8554688	n/a	51419	largeTSmallH	correct	incongruent	0.69531	no	T	H
201.5507812	n/a	51597	responseLargeT	correct	n/a	0.69531	no	n/a	n/a
202.6132812	n/a	51869	largeHSmallH	correct	congruent	0.63281	no	H	H
203.2460938	n/a	52031	responseLargeH	correct	n/a	0.63281	no	n/a	n/a
204.3203125	n/a	52306	largeHSmallT	correct	incongruent	0.57422	no	H	T
204.8945312	n/a	52453	responseLargeH	correct	n/a	0.57422	no	n/a	n/a
205.9609375	n/a	52726	largeHSmallH	correct	congruent	0.50781	no	H	H
206.46875	n/a	52856	responseLargeH	correct	n/a	0.50781	no	n/a	n/a
207.5351562	n/a	53129	largeHSmallH	correct	congruent	0.47266	no	H	H
208.0078125	n/a	53250	responseLargeH	correct	n/a	0.47266	no	n/a	n/a
209.0820312	n/a	53525	largeHSmallT	correct	incongruent	0.45703	no	H	T
209.5390625	n/a	53642	responseLargeH	correct	n/a	0.45703	no	n/a	n/a
210.6132812	n/a	53917	largeHSmallT	correct	incongruent	0.43359	no	H	T
211.046875	n/a	54028	responseLargeH	correct	n/a	0.43359	no	n/a	n/a
212.1210938	n/a	54303	largeHSmallH	correct	congruent	0.40625	no	H	H
212.5273438	n/a	54407	responseLargeH	correct	n/a	0.40625	no	n/a	n/a
213.6015625	n/a	54682	largeTSmallH	correct	incongruent	0.57812	no	T	H
214.1796875	n/a	54830	responseLargeT	correct	n/a	0.57812	no	n/a	n/a
215.2421875	n/a	55102	largeHSmallT	error	incongruent	0.53125	no	H	T
215.7734375	n/a	55238	responseLargeT	error	n/a	0.53125	no	n/a	n/a
216.8554688	n/a	55515	largeHSmallH	correct	congruent	0.65234	no	H	H
217.5078125	n/a	55682	responseLargeH	correct	n/a	0.65234	no	n/a	n/a
218.5742188	n/a	55955	largeTSmallH	correct	incongruent	0.62891	no	T	H
219.203125	n/a	56116	responseLargeT	correct	n/a	0.62891	no	n/a	n/a
220.28125	n/a	56392	largeTSmallH	correct	incongruent	0.51172	no	T	H
220.7929688	n/a	56523	responseLargeT	correct	n/a	0.51172	no	n/a	n/a
221.8554688	n/a	56795	largeHSmallH	correct	congruent	0.55469	no	H	H
222.4101562	n/a	56937	responseLargeH	correct	n/a	0.55469	no	n/a	n/a
223.4804688	n/a	57211	largeHSmallH	correct	congruent	0.63281	no	H	H
224.1132812	n/a	57373	responseLargeH	correct	n/a	0.63281	no	n/a	n/a
225.1757812	n/a	57645	largeHSmallT	correct	incongruent	0.98438	no	H	T
226.1601562	n/a	57897	responseLargeH	correct	n/a	0.98438	no	n/a	n/a
227.2265625	n/a	58170	largeTSmallT	correct	congruent	0.72656	no	T	T
227.953125	n/a	58356	responseLargeT	correct	n/a	0.72656	no	n/a	n/a
229.015625	n/a	58628	largeHSmallH	correct	congruent	0.52344	no	H	H
229.5390625	n/a	58762	responseLargeH	correct	n/a	0.52344	no	n/a	n/a
230.6132812	n/a	59037	largeTSmallH	correct	incongruent	0.46875	no	T	H
231.0820312	n/a	59157	responseLargeT	correct	n/a	0.46875	no	n/a	n/a
232.1484375	n/a	59430	largeHSmallH	correct	congruent	0.51172	no	H	H
232.6601562	n/a	59561	responseLargeH	correct	n/a	0.51172	no	n/a	n/a
233.734375	n/a	59836	largeHSmallT	correct	incongruent	0.54688	no	H	T
234.28125	n/a	59976	responseLargeH	correct	n/a	0.54688	no	n/a	n/a
235.3476562	n/a	60249	largeTSmallT	correct	congruent	0.55859	no	T	T
235.90625	n/a	60392	responseLargeT	correct	n/a	0.55859	no	n/a	n/a
236.9726562	n/a	60665	largeTSmallH	correct	incongruent	0.50391	no	T	H
237.4765625	n/a	60794	responseLargeT	correct	n/a	0.50391	no	n/a	n/a
238.546875	n/a	61068	largeHSmallT	correct	incongruent	0.57812	no	H	T
239.125	n/a	61216	responseLargeH	correct	n/a	0.57812	no	n/a	n/a
240.1992188	n/a	61491	largeTSmallT	correct	congruent	0.72266	no	T	T
240.921875	n/a	61676	responseLargeT	correct	n/a	0.72266	no	n/a	n/a
242	n/a	61952	largeTSmallH	correct	incongruent	0.69141	no	T	H
242.6914062	n/a	62129	responseLargeT	correct	n/a	0.69141	no	n/a	n/a
243.7617188	n/a	62403	largeTSmallH	correct	incongruent	0.51953	no	T	H
244.28125	n/a	62536	responseLargeT	correct	n/a	0.51953	no	n/a	n/a
245.3476562	n/a	62809	largeTSmallH	correct	incongruent	0.51562	no	T	H
245.8632812	n/a	62941	responseLargeT	correct	n/a	0.51562	no	n/a	n/a
246.9453125	n/a	63218	largeTSmallT	correct	congruent	0.51562	no	T	T
247.4609375	n/a	63350	responseLargeT	correct	n/a	0.51562	no	n/a	n/a
248.5351562	n/a	63625	largeHSmallH	correct	congruent	0.59766	no	H	H
249.1328125	n/a	63778	responseLargeH	correct	n/a	0.59766	no	n/a	n/a
250.1992188	n/a	64051	largeHSmallH	correct	congruent	0.66797	no	H	H
250.8671875	n/a	64222	responseLargeH	correct	n/a	0.66797	no	n/a	n/a
251.9335938	n/a	64495	largeTSmallT	correct	congruent	0.55469	no	T	T
252.4882812	n/a	64637	responseLargeT	correct	n/a	0.55469	no	n/a	n/a
253.5585938	n/a	64911	largeHSmallH	correct	congruent	0.93359	no	H	H
254.4921875	n/a	65150	responseLargeH	correct	n/a	0.93359	no	n/a	n/a
255.5742188	n/a	65427	largeTSmallT	correct	congruent	0.51172	no	T	T
256.0859375	n/a	65558	responseLargeT	correct	n/a	0.51172	no	n/a	n/a
257.1601562	n/a	65833	largeTSmallT	correct	congruent	0.51172	no	T	T
257.671875	n/a	65964	responseLargeT	correct	n/a	0.51172	no	n/a	n/a
258.7460938	n/a	66239	largeHSmallH	correct	congruent	0.47266	no	H	H
259.21875	n/a	66360	responseLargeH	correct	n/a	0.47266	no	n/a	n/a
260.2929688	n/a	66635	largeTSmallT	correct	congruent	0.54688	no	T	T
260.8398438	n/a	66775	responseLargeT	correct	n/a	0.54688	no	n/a	n/a
261.90625	n/a	67048	largeHSmallT	correct	incongruent	0.5	no	H	T
262.40625	n/a	67176	responseLargeH	correct	n/a	0.5	no	n/a	n/a
263.4804688	n/a	67451	largeTSmallT	correct	congruent	0.42188	no	T	T
263.9023438	n/a	67559	responseLargeT	correct	n/a	0.42188	no	n/a	n/a
264.9726562	n/a	67833	largeTSmallT	correct	congruent	0.55078	no	T	T
265.5234375	n/a	67974	responseLargeT	correct	n/a	0.55078	no	n/a	n/a
266.6015625	n/a	68250	largeHSmallT	correct	incongruent	0.54688	no	H	T
267.1484375	n/a	68390	responseLargeH	correct	n/a	0.54688	no	n/a	n/a
268.2265625	n/a	68666	largeHSmallT	correct	incongruent	0.50391	no	H	T
268.7304688	n/a	68795	responseLargeH	correct	n/a	0.50391	no	n/a	n/a
269.8007812	n/a	69069	largeHSmallT	correct	incongruent	0.48828	no	H	T
270.2890625	n/a	69194	responseLargeH	correct	n/a	0.48828	no	n/a	n/a
271.359375	n/a	69468	largeTSmallH	correct	incongruent	0.54688	no	T	H
271.90625	n/a	69608	responseLargeT	correct	n/a	0.54688	no	n/a	n/a
272.9726562	n/a	69881	largeTSmallH	correct	incongruent	0.41797	no	T	H
273.390625	n/a	69988	responseLargeT	correct	n/a	0.41797	no	n/a	n/a
274.4648438	n/a	70263	largeHSmallT	correct	incongruent	0.53125	no	H	T
274.9960938	n/a	70399	responseLargeH	correct	n/a	0.53125	no	n/a	n/a
276.0664062	n/a	70673	largeTSmallH	correct	incongruent	0.60547	no	T	H
276.671875	n/a	70828	responseLargeT	correct	n/a	0.60547	no	n/a	n/a
277.734375	n/a	71100	largeHSmallH	correct	congruent	0.47656	no	H	H
278.2109375	n/a	71222	responseLargeH	correct	n/a	0.47656	no	n/a	n/a
279.28125	n/a	71496	largeTSmallH	correct	incongruent	0.4375	no	T	H
279.71875	n/a	71608	responseLargeT	correct	n/a	0.4375	no	n/a	n/a
280.8007812	n/a	71885	largeHSmallH	correct	congruent	0.46094	no	H	H
281.2617188	n/a	72003	responseLargeH	correct	n/a	0.46094	no	n/a	n/a
282.3320312	n/a	72277	largeTSmallT	correct	congruent	0.54688	no	T	T
282.8789062	n/a	72417	responseLargeT	correct	n/a	0.54688	no	n/a	n/a
283.9453125	n/a	72690	largeHSmallT	correct	incongruent	0.69531	no	H	T
284.640625	n/a	72868	responseLargeH	correct	n/a	0.69531	no	n/a	n/a
285.7070312	n/a	73141	largeTSmallH	correct	incongruent	0.44531	no	T	H
286.1523438	n/a	73255	responseLargeT	correct	n/a	0.44531	no	n/a	n/a
287.2265625	n/a	73530	largeTSmallH	correct	incongruent	0.5625	no	T	H
287.7890625	n/a	73674	responseLargeT	correct	n/a	0.5625	no	n/a	n/a
288.8671875	n/a	73950	largeTSmallT	correct	congruent	0.41016	no	T	T
289.2773438	n/a	74055	responseLargeT	correct	n/a	0.41016	no	n/a	n/a
290.3476562	n/a	74329	largeHSmallH	correct	congruent	0.51172	no	H	H
290.859375	n/a	74460	responseLargeH	correct	n/a	0.51172	no	n/a	n/a
291.9335938	n/a	74735	largeTSmallH	correct	incongruent	0.57422	no	T	H
292.5078125	n/a	74882	responseLargeT	correct	n/a	0.57422	no	n/a	n/a
293.5742188	n/a	75155	largeTSmallH	correct	incongruent	0.64844	no	T	H
294.2226562	n/a	75321	responseLargeT	correct	n/a	0.64844	no	n/a	n/a
295.3046875	n/a	75598	largeTSmallT	correct	congruent	0.58984	no	T	T
295.8945312	n/a	75749	responseLargeT	correct	n/a	0.58984	no	n/a	n/a
296.9726562	n/a	76025	largeTSmallT	correct	congruent	0.49219	no	T	T
297.4648438	n/a	76151	responseLargeT	correct	n/a	0.49219	no	n/a	n/a
298.53125	n/a	76424	largeTSmallT	correct	congruent	0.49609	no	T	T
299.0273438	n/a	76551	responseLargeT	correct	n/a	0.49609	no	n/a	n/a
300.09375	n/a	76824	largeHSmallT	correct	incongruent	0.53125	no	H	T
300.625	n/a	76960	responseLargeH	correct	n/a	0.53125	no	n/a	n/a
301.7070312	n/a	77237	largeTSmallH	correct	incongruent	0.63281	no	T	H
302.3398438	n/a	77399	responseLargeT	correct	n/a	0.63281	no	n/a	n/a
303.4140625	n/a	77674	largeTSmallH	error	incongruent	0.41406	no	T	H
303.828125	n/a	77780	responseLargeH	error	n/a	0.41406	no	n/a	n/a
304.890625	n/a	78052	largeHSmallT	correct	incongruent	1.1172	no	H	T
306.0078125	n/a	78338	responseLargeH	correct	n/a	1.1172	no	n/a	n/a
307.078125	n/a	78612	largeTSmallT	correct	congruent	0.51953	no	T	T
307.5976562	n/a	78745	responseLargeT	correct	n/a	0.51953	no	n/a	n/a
308.6640625	n/a	79018	largeTSmallT	correct	congruent	0.32812	no	T	T
308.9921875	n/a	79102	responseLargeT	correct	n/a	0.32812	no	n/a	n/a
310.0664062	n/a	79377	largeTSmallH	correct	incongruent	0.50781	no	T	H
310.5742188	n/a	79507	responseLargeT	correct	n/a	0.50781	no	n/a	n/a
311.6523438	n/a	79783	largeHSmallH	correct	congruent	0.47656	no	H	H
312.1289062	n/a	79905	responseLargeH	correct	n/a	0.47656	no	n/a	n/a
313.1992188	n/a	80179	largeHSmallH	correct	congruent	0.44531	no	H	H
313.6445312	n/a	80293	responseLargeH	correct	n/a	0.44531	no	n/a	n/a
314.7070312	n/a	80565	largeHSmallT	correct	incongruent	1.0586	no	H	T
315.765625	n/a	80836	responseLargeH	correct	n/a	1.0586	no	n/a	n/a
316.8398438	n/a	81111	largeTSmallT	correct	congruent	0.52734	no	T	T
317.3671875	n/a	81246	responseLargeT	correct	n/a	0.52734	no	n/a	n/a
318.4375	n/a	81520	largeHSmallT	correct	incongruent	0.50781	no	H	T
318.9453125	n/a	81650	responseLargeH	correct	n/a	0.50781	no	n/a	n/a
320.0117188	n/a	81923	largeTSmallH	correct	incongruent	0.875	no	T	H
320.8867188	n/a	82147	responseLargeT	correct	n/a	0.875	no	n/a	n/a
321.9570312	n/a	82421	largeTSmallH	correct	incongruent	0.51562	no	T	H
322.4726562	n/a	82553	responseLargeT	correct	n/a	0.51562	no	n/a	n/a
323.546875	n/a	82828	largeTSmallT	correct	congruent	0.4375	no	T	T
323.984375	n/a	82940	responseLargeT	correct	n/a	0.4375	no	n/a	n/a
325.0507812	n/a	83213	largeHSmallH	correct	congruent	0.41016	no	H	H
325.4609375	n/a	83318	responseLargeH	correct	n/a	0.41016	no	n/a	n/a
326.53125	n/a	83592	largeHSmallT	correct	incongruent	0.46875	no	H	T
327	n/a	83712	responseLargeH	correct	n/a	0.46875	no	n/a	n/a
328.078125	n/a	83988	largeTSmallT	correct	congruent	0.63672	no	T	T
328.7148438	n/a	84151	responseLargeT	correct	n/a	0.63672	no	n/a	n/a
329.7734375	n/a	84422	largeHSmallH	correct	congruent	0.55469	no	H	H
330.328125	n/a	84564	responseLargeH	correct	n/a	0.55469	no	n/a	n/a
331.3984375	n/a	84838	largeHSmallT	correct	incongruent	0.61719	no	H	T
332.015625	n/a	84996	responseLargeH	correct	n/a	0.61719	no	n/a	n/a
333.078125	n/a	85268	largeHSmallT	correct	incongruent	0.51562	no	H	T
333.59375	n/a	85400	responseLargeH	correct	n/a	0.51562	no	n/a	n/a
334.6640625	n/a	85674	largeTSmallT	correct	congruent	0.55859	no	T	T
335.2226562	n/a	85817	responseLargeT	correct	n/a	0.55859	no	n/a	n/a
336.3046875	n/a	86094	largeHSmallH	error	congruent	0.39844	no	H	H
336.703125	n/a	86196	responseLargeT	error	n/a	0.39844	no	n/a	n/a
337.7851562	n/a	86473	largeTSmallH	correct	incongruent	0.83203	no	T	H
338.6171875	n/a	86686	responseLargeT	correct	n/a	0.83203	no	n/a	n/a
345.3828125	n/a	88418	largeHSmallH	correct	congruent	0.55469	no	H	H
345.9375	n/a	88560	responseSmallH	correct	n/a	0.55469	no	n/a	n/a
346.9960938	n/a	88831	largeTSmallT	correct	congruent	0.49609	no	T	T
347.4921875	n/a	88958	responseSmallT	correct	n/a	0.49609	no	n/a	n/a
348.5585938	n/a	89231	largeTSmallH	correct	incongruent	0.43359	no	T	H
348.9921875	n/a	89342	responseSmallH	correct	n/a	0.43359	no	n/a	n/a
350.0507812	n/a	89613	largeHSmallT	correct	incongruent	0.48438	no	H	T
350.5351562	n/a	89737	responseSmallT	correct	n/a	0.48438	no	n/a	n/a
351.5976562	n/a	90009	largeHSmallH	correct	congruent	0.42188	no	H	H
352.0195312	n/a	90117	responseSmallH	correct	n/a	0.42188	no	n/a	n/a
353.078125	n/a	90388	largeHSmallT	correct	incongruent	0.40234	no	H	T
353.4804688	n/a	90491	responseSmallT	correct	n/a	0.40234	no	n/a	n/a
354.5429688	n/a	90763	largeTSmallT	correct	congruent	0.50781	no	T	T
355.0507812	n/a	90893	responseSmallT	correct	n/a	0.50781	no	n/a	n/a
356.1289062	n/a	91169	largeHSmallT	correct	incongruent	0.41016	no	H	T
356.5390625	n/a	91274	responseSmallT	correct	n/a	0.41016	no	n/a	n/a
357.609375	n/a	91548	largeHSmallH	correct	congruent	0.40234	no	H	H
358.0117188	n/a	91651	responseSmallH	correct	n/a	0.40234	no	n/a	n/a
359.0898438	n/a	91927	largeHSmallH	correct	congruent	0.53125	no	H	H
359.6210938	n/a	92063	responseSmallH	correct	n/a	0.53125	no	n/a	n/a
360.6914062	n/a	92337	largeTSmallT	correct	congruent	0.56641	no	T	T
361.2578125	n/a	92482	responseSmallT	correct	n/a	0.56641	no	n/a	n/a
362.3320312	n/a	92757	largeHSmallH	correct	congruent	0.59375	no	H	H
362.9257812	n/a	92909	responseSmallH	correct	n/a	0.59375	no	n/a	n/a
363.9960938	n/a	93183	largeHSmallT	correct	incongruent	0.61719	no	H	T
364.6132812	n/a	93341	responseSmallT	correct	n/a	0.61719	no	n/a	n/a
365.6914062	n/a	93617	largeTSmallH	correct	incongruent	0.47266	no	T	H
366.1640625	n/a	93738	responseSmallH	correct	n/a	0.47266	no	n/a	n/a
367.2382812	n/a	94013	largeTSmallT	correct	congruent	0.53125	no	T	T
367.7695312	n/a	94149	responseSmallT	correct	n/a	0.53125	no	n/a	n/a
368.8359375	n/a	94422	largeHSmallH	correct	congruent	0.53516	no	H	H
369.3710938	n/a	94559	responseSmallH	correct	n/a	0.53516	no	n/a	n/a
370.4492188	n/a	94835	largeHSmallH	correct	congruent	0.53906	no	H	H
370.9882812	n/a	94973	responseSmallH	correct	n/a	0.53906	no	n/a	n/a
372.0507812	n/a	95245	largeHSmallT	correct	incongruent	0.52344	no	H	T
372.5742188	n/a	95379	responseSmallT	correct	n/a	0.52344	no	n/a	n/a
373.6484375	n/a	95654	largeHSmallT	correct	incongruent	0.62891	no	H	T
374.2773438	n/a	95815	responseSmallT	correct	n/a	0.62891	no	n/a	n/a
375.34375	n/a	96088	largeTSmallT	correct	congruent	0.55469	no	T	T
375.8984375	n/a	96230	responseSmallT	correct	n/a	0.55469	no	n/a	n/a
376.96875	n/a	96504	largeTSmallH	correct	incongruent	0.45312	no	T	H
377.421875	n/a	96620	responseSmallH	correct	n/a	0.45312	no	n/a	n/a
378.4882812	n/a	96893	largeHSmallH	correct	congruent	0.53906	no	H	H
379.0273438	n/a	97031	responseSmallH	correct	n/a	0.53906	no	n/a	n/a
380.1054688	n/a	97307	largeTSmallT	correct	congruent	0.72266	no	T	T
380.828125	n/a	97492	responseSmallT	correct	n/a	0.72266	no	n/a	n/a
381.9023438	n/a	97767	largeHSmallH	correct	congruent	0.55469	no	H	H
382.4570312	n/a	97909	responseSmallH	correct	n/a	0.55469	no	n/a	n/a
383.515625	n/a	98180	largeTSmallH	correct	incongruent	0.50391	no	T	H
384.0195312	n/a	98309	responseSmallH	correct	n/a	0.50391	no	n/a	n/a
385.0898438	n/a	98583	largeTSmallH	correct	incongruent	0.54688	no	T	H
385.6367188	n/a	98723	responseSmallH	correct	n/a	0.54688	no	n/a	n/a
386.703125	n/a	98996	largeTSmallT	correct	congruent	0.62891	no	T	T
387.3320312	n/a	99157	responseSmallT	correct	n/a	0.62891	no	n/a	n/a
388.3984375	n/a	99430	largeTSmallT	correct	congruent	0.62891	no	T	T
389.0273438	n/a	99591	responseSmallT	correct	n/a	0.62891	no	n/a	n/a
390.1015625	n/a	99866	largeHSmallT	correct	incongruent	0.55859	no	H	T
390.6601562	n/a	100009	responseSmallT	correct	n/a	0.55859	no	n/a	n/a
391.7304688	n/a	100283	largeTSmallH	correct	incongruent	0.48828	no	T	H
392.21875	n/a	100408	responseSmallH	correct	n/a	0.48828	no	n/a	n/a
393.2890625	n/a	100682	largeTSmallH	correct	incongruent	0.57422	no	T	H
393.8632812	n/a	100829	responseSmallH	correct	n/a	0.57422	no	n/a	n/a
394.9414062	n/a	101105	largeHSmallT	correct	incongruent	0.48438	no	H	T
395.4257812	n/a	101229	responseSmallT	correct	n/a	0.48438	no	n/a	n/a
396.5039062	n/a	101505	largeTSmallT	correct	congruent	0.46094	no	T	T
396.9648438	n/a	101623	responseSmallT	correct	n/a	0.46094	no	n/a	n/a
398.0234375	n/a	101894	largeTSmallT	correct	congruent	0.60547	no	T	T
398.6289062	n/a	102049	responseSmallT	correct	n/a	0.60547	no	n/a	n/a
399.703125	n/a	102324	largeHSmallT	correct	incongruent	0.48438	no	H	T
400.1875	n/a	102448	responseSmallT	correct	n/a	0.48438	no	n/a	n/a
401.2617188	n/a	102723	largeHSmallT	correct	incongruent	0.45703	no	H	T
401.71875	n/a	102840	responseSmallT	correct	n/a	0.45703	no	n/a	n/a
402.78125	n/a	103112	largeHSmallH	correct	congruent	0.37891	no	H	H
403.1601562	n/a	103209	responseSmallH	correct	n/a	0.37891	no	n/a	n/a
404.234375	n/a	103484	largeTSmallT	correct	congruent	0.51953	no	T	T
404.7539062	n/a	103617	responseSmallT	correct	n/a	0.51953	no	n/a	n/a
405.8242188	n/a	103891	largeTSmallH	correct	incongruent	0.38281	no	T	H
406.2070312	n/a	103989	responseSmallH	correct	n/a	0.38281	no	n/a	n/a
407.2773438	n/a	104263	largeHSmallH	correct	congruent	0.59375	no	H	H
407.8710938	n/a	104415	responseSmallH	correct	n/a	0.59375	no	n/a	n/a
408.9414062	n/a	104689	largeHSmallH	correct	congruent	0.50781	no	H	H
409.4492188	n/a	104819	responseSmallH	correct	n/a	0.50781	no	n/a	n/a
410.53125	n/a	105096	largeHSmallT	correct	incongruent	0.51562	no	H	T
411.046875	n/a	105228	responseSmallT	correct	n/a	0.51562	no	n/a	n/a
412.1171875	n/a	105502	largeTSmallT	correct	congruent	0.44531	no	T	T
412.5625	n/a	105616	responseSmallT	correct	n/a	0.44531	no	n/a	n/a
413.6210938	n/a	105887	largeHSmallH	correct	congruent	0.53516	no	H	H
414.15625	n/a	106024	responseSmallH	correct	n/a	0.53516	no	n/a	n/a
415.2226562	n/a	106297	largeTSmallH	correct	incongruent	0.43359	no	T	H
415.65625	n/a	106408	responseSmallH	correct	n/a	0.43359	no	n/a	n/a
416.7304688	n/a	106683	largeHSmallH	correct	congruent	0.50781	no	H	H
417.2382812	n/a	106813	responseSmallH	correct	n/a	0.50781	no	n/a	n/a
418.3007812	n/a	107085	largeHSmallT	correct	incongruent	0.40625	no	H	T
418.7070312	n/a	107189	responseSmallT	correct	n/a	0.40625	no	n/a	n/a
419.7695312	n/a	107461	largeHSmallH	correct	congruent	0.40234	no	H	H
420.171875	n/a	107564	responseSmallH	correct	n/a	0.40234	no	n/a	n/a
421.234375	n/a	107836	largeHSmallT	correct	incongruent	0.42578	no	H	T
421.6601562	n/a	107945	responseSmallT	correct	n/a	0.42578	no	n/a	n/a
422.7421875	n/a	108222	largeTSmallT	correct	congruent	0.56641	no	T	T
423.3085938	n/a	108367	responseSmallT	correct	n/a	0.56641	no	n/a	n/a
424.3828125	n/a	108642	largeHSmallH	correct	congruent	0.50781	no	H	H
424.890625	n/a	108772	responseSmallH	correct	n/a	0.50781	no	n/a	n/a
425.96875	n/a	109048	largeTSmallT	correct	congruent	0.50391	no	T	T
426.4726562	n/a	109177	responseSmallT	correct	n/a	0.50391	no	n/a	n/a
427.5429688	n/a	109451	largeTSmallT	correct	congruent	0.38281	no	T	T
427.9257812	n/a	109549	responseSmallT	correct	n/a	0.38281	no	n/a	n/a
428.9960938	n/a	109823	largeHSmallT	correct	incongruent	0.58594	no	H	T
429.5820312	n/a	109973	responseSmallT	correct	n/a	0.58594	no	n/a	n/a
430.6484375	n/a	110246	largeHSmallH	correct	congruent	0.56641	no	H	H
431.2148438	n/a	110391	responseSmallH	correct	n/a	0.56641	no	n/a	n/a
432.2890625	n/a	110666	largeHSmallH	correct	congruent	0.51953	no	H	H
432.8085938	n/a	110799	responseSmallH	correct	n/a	0.51953	no	n/a	n/a
433.875	n/a	111072	largeTSmallH	correct	incongruent	0.53516	no	T	H
434.4101562	n/a	111209	responseSmallH	correct	n/a	0.53516	no	n/a	n/a
435.4882812	n/a	111485	largeTSmallT	correct	congruent	0.55469	no	T	T
436.0429688	n/a	111627	responseSmallT	correct	n/a	0.55469	no	n/a	n/a
437.1015625	n/a	111898	largeHSmallT	correct	incongruent	0.51172	no	H	T
437.6132812	n/a	112029	responseSmallT	correct	n/a	0.51172	no	n/a	n/a
438.6757812	n/a	112301	largeTSmallH	correct	incongruent	0.41797	no	T	H
439.09375	n/a	112408	responseSmallH	correct	n/a	0.41797	no	n/a	n/a
440.1679688	n/a	112683	largeTSmallH	correct	incongruent	0.55469	no	T	H
440.7226562	n/a	112825	responseSmallH	correct	n/a	0.55469	no	n/a	n/a
441.78125	n/a	113096	largeHSmallH	correct	congruent	0.59375	no	H	H
442.375	n/a	113248	responseSmallH	correct	n/a	0.59375	no	n/a	n/a
443.4609375	n/a	113526	largeTSmallH	correct	incongruent	0.40234	no	T	H
443.8632812	n/a	113629	responseSmallH	correct	n/a	0.40234	no	n/a	n/a
444.9414062	n/a	113905	largeHSmallT	correct	incongruent	0.54297	no	H	T
445.484375	n/a	114044	responseSmallT	correct	n/a	0.54297	no	n/a	n/a
446.5546875	n/a	114318	largeHSmallH	error	congruent	0.41016	no	H	H
446.9648438	n/a	114423	responseSmallT	error	n/a	0.41016	no	n/a	n/a
448.0351562	n/a	114697	largeTSmallT	correct	congruent	0.86719	no	T	T
448.9023438	n/a	114919	responseSmallT	correct	n/a	0.86719	no	n/a	n/a
449.9804688	n/a	115195	largeTSmallT	correct	congruent	0.55859	no	T	T
450.5390625	n/a	115338	responseSmallT	correct	n/a	0.55859	no	n/a	n/a
451.609375	n/a	115612	largeHSmallH	correct	congruent	0.43359	no	H	H
452.0429688	n/a	115723	responseSmallH	correct	n/a	0.43359	no	n/a	n/a
453.1132812	n/a	115997	largeHSmallH	correct	congruent	0.5	no	H	H
453.6132812	n/a	116125	responseSmallH	correct	n/a	0.5	no	n/a	n/a
454.6875	n/a	116400	largeHSmallH	correct	congruent	0.5	no	H	H
455.1875	n/a	116528	responseSmallH	correct	n/a	0.5	no	n/a	n/a
456.2617188	n/a	116803	largeTSmallH	correct	incongruent	0.43359	no	T	H
456.6953125	n/a	116914	responseSmallH	correct	n/a	0.43359	no	n/a	n/a
457.7539062	n/a	117185	largeTSmallT	correct	congruent	0.52344	no	T	T
458.2773438	n/a	117319	responseSmallT	correct	n/a	0.52344	no	n/a	n/a
459.3554688	n/a	117595	largeTSmallH	correct	incongruent	0.52344	no	T	H
459.8789062	n/a	117729	responseSmallH	correct	n/a	0.52344	no	n/a	n/a
460.953125	n/a	118004	largeHSmallT	correct	incongruent	0.62109	no	H	T
461.5742188	n/a	118163	responseSmallT	correct	n/a	0.62109	no	n/a	n/a
462.6484375	n/a	118438	largeHSmallH	correct	congruent	0.50781	no	H	H
463.15625	n/a	118568	responseSmallH	correct	n/a	0.50781	no	n/a	n/a
464.234375	n/a	118844	largeHSmallT	correct	incongruent	0.44531	no	H	T
464.6796875	n/a	118958	responseSmallT	correct	n/a	0.44531	no	n/a	n/a
465.7539062	n/a	119233	largeHSmallH	correct	congruent	0.5625	no	H	H
466.3164062	n/a	119377	responseSmallH	correct	n/a	0.5625	no	n/a	n/a
467.3828125	n/a	119650	largeTSmallH	correct	incongruent	0.61719	no	T	H
468	n/a	119808	responseSmallH	correct	n/a	0.61719	no	n/a	n/a
469.0742188	n/a	120083	largeHSmallH	correct	congruent	0.48828	no	H	H
469.5625	n/a	120208	responseSmallH	correct	n/a	0.48828	no	n/a	n/a
470.6328125	n/a	120482	largeHSmallT	correct	incongruent	0.51562	no	H	T
471.1484375	n/a	120614	responseSmallT	correct	n/a	0.51562	no	n/a	n/a
472.2226562	n/a	120889	largeTSmallT	correct	congruent	0.47656	no	T	T
472.6992188	n/a	121011	responseSmallT	correct	n/a	0.47656	no	n/a	n/a
473.765625	n/a	121284	largeTSmallH	error	incongruent	0.59766	no	T	H
474.3632812	n/a	121437	responseSmallT	error	n/a	0.59766	no	n/a	n/a
475.4335938	n/a	121711	largeTSmallT	correct	congruent	0.83203	no	T	T
476.265625	n/a	121924	responseSmallT	correct	n/a	0.83203	no	n/a	n/a
477.3398438	n/a	122199	largeTSmallT	correct	congruent	0.90234	no	T	T
478.2421875	n/a	122430	responseSmallT	correct	n/a	0.90234	no	n/a	n/a
479.3164062	n/a	122705	largeHSmallH	correct	congruent	0.46484	no	H	H
479.78125	n/a	122824	responseSmallH	correct	n/a	0.46484	no	n/a	n/a
480.8476562	n/a	123097	largeHSmallH	correct	congruent	0.43359	no	H	H
481.28125	n/a	123208	responseSmallH	correct	n/a	0.43359	no	n/a	n/a
482.3398438	n/a	123479	largeTSmallH	correct	incongruent	0.58594	no	T	H
482.9257812	n/a	123629	responseSmallH	correct	n/a	0.58594	no	n/a	n/a
484.0078125	n/a	123906	largeTSmallT	correct	congruent	0.57031	no	T	T
484.578125	n/a	124052	responseSmallT	correct	n/a	0.57031	no	n/a	n/a
485.6484375	n/a	124326	largeHSmallT	correct	incongruent	0.70703	no	H	T
486.3554688	n/a	124507	responseSmallT	correct	n/a	0.70703	no	n/a	n/a
487.4335938	n/a	124783	largeHSmallH	correct	congruent	0.49609	no	H	H
487.9296875	n/a	124910	responseSmallH	correct	n/a	0.49609	no	n/a	n/a
489.0078125	n/a	125186	largeTSmallH	correct	incongruent	0.57422	no	T	H
489.5820312	n/a	125333	responseSmallH	correct	n/a	0.57422	no	n/a	n/a
490.6601562	n/a	125609	largeHSmallT	correct	incongruent	0.64062	no	H	T
491.3007812	n/a	125773	responseSmallT	correct	n/a	0.64062	no	n/a	n/a
492.3789062	n/a	126049	largeHSmallH	correct	congruent	0.59375	no	H	H
492.9726562	n/a	126201	responseSmallH	correct	n/a	0.59375	no	n/a	n/a
494.046875	n/a	126476	largeHSmallH	correct	congruent	0.55859	no	H	H
494.6054688	n/a	126619	responseSmallH	correct	n/a	0.55859	no	n/a	n/a
495.6875	n/a	126896	largeTSmallT	correct	congruent	0.60156	no	T	T
496.2890625	n/a	127050	responseSmallT	correct	n/a	0.60156	no	n/a	n/a
497.3554688	n/a	127323	largeHSmallT	correct	incongruent	0.56641	no	H	T
497.921875	n/a	127468	responseSmallT	correct	n/a	0.56641	no	n/a	n/a
498.9921875	n/a	127742	largeHSmallT	correct	incongruent	0.51172	no	H	T
499.5039062	n/a	127873	responseSmallT	correct	n/a	0.51172	no	n/a	n/a
500.5664062	n/a	128145	largeTSmallH	correct	incongruent	0.5625	no	T	H
501.1289062	n/a	128289	responseSmallH	correct	n/a	0.5625	no	n/a	n/a
502.2070312	n/a	128565	largeHSmallH	correct	congruent	0.55859	no	H	H
502.765625	n/a	128708	responseSmallH	correct	n/a	0.55859	no	n/a	n/a
503.8476562	n/a	128985	largeTSmallT	correct	congruent	0.58203	no	T	T
504.4296875	n/a	129134	responseSmallT	correct	n/a	0.58203	no	n/a	n/a
505.5	n/a	129408	largeTSmallH	correct	incongruent	0.48828	no	T	H
505.9882812	n/a	129533	responseSmallH	correct	n/a	0.48828	no	n/a	n/a
507.0585938	n/a	129807	largeTSmallT	correct	congruent	0.62891	no	T	T
507.6875	n/a	129968	responseSmallT	correct	n/a	0.62891	no	n/a	n/a
508.7539062	n/a	130241	largeTSmallT	correct	congruent	0.60938	no	T	T
509.3632812	n/a	130397	responseSmallT	correct	n/a	0.60938	no	n/a	n/a
510.4453125	n/a	130674	largeHSmallT	correct	incongruent	0.55469	no	H	T
511	n/a	130816	responseSmallT	correct	n/a	0.55469	no	n/a	n/a
512.0742188	n/a	131091	largeTSmallT	correct	congruent	0.49219	no	T	T
512.5664062	n/a	131217	responseSmallT	correct	n/a	0.49219	no	n/a	n/a
513.6484375	n/a	131494	largeTSmallH	correct	incongruent	0.67188	no	T	H
514.3203125	n/a	131666	responseSmallH	correct	n/a	0.67188	no	n/a	n/a
515.3945312	n/a	131941	largeTSmallT	correct	congruent	0.65234	no	T	T
516.046875	n/a	132108	responseSmallT	correct	n/a	0.65234	no	n/a	n/a
517.1132812	n/a	132381	largeHSmallH	correct	congruent	0.63672	no	H	H
517.75	n/a	132544	responseSmallH	correct	n/a	0.63672	no	n/a	n/a
518.8203125	n/a	132818	largeHSmallT	correct	incongruent	0.43359	no	H	T
519.2539062	n/a	132929	responseSmallT	correct	n/a	0.43359	no	n/a	n/a
520.3125	n/a	133200	largeTSmallT	correct	congruent	0.57812	no	T	T
520.890625	n/a	133348	responseSmallT	correct	n/a	0.57812	no	n/a	n/a
521.953125	n/a	133620	largeHSmallH	correct	congruent	0.50391	no	H	H
522.4570312	n/a	133749	responseSmallH	correct	n/a	0.50391	no	n/a	n/a
523.5273438	n/a	134023	largeHSmallT	correct	incongruent	0.47266	no	H	T
524	n/a	134144	responseSmallT	correct	n/a	0.47266	no	n/a	n/a
525.0742188	n/a	134419	largeHSmallH	correct	congruent	0.66797	no	H	H
525.7421875	n/a	134590	responseSmallH	correct	n/a	0.66797	no	n/a	n/a
526.8203125	n/a	134866	largeTSmallH	correct	incongruent	0.54688	no	T	H
527.3671875	n/a	135006	responseSmallH	correct	n/a	0.54688	no	n/a	n/a
528.4335938	n/a	135279	largeTSmallH	correct	incongruent	0.5	no	T	H
528.9335938	n/a	135407	responseSmallH	correct	n/a	0.5	no	n/a	n/a
530.0078125	n/a	135682	largeHSmallT	correct	incongruent	0.60156	no	H	T
530.609375	n/a	135836	responseSmallT	correct	n/a	0.60156	no	n/a	n/a
531.671875	n/a	136108	largeTSmallH	correct	incongruent	0.43359	no	T	H
532.1054688	n/a	136219	responseSmallH	correct	n/a	0.43359	no	n/a	n/a
533.1679688	n/a	136491	largeHSmallH	correct	congruent	0.55078	no	H	H
533.71875	n/a	136632	responseSmallH	correct	n/a	0.55078	no	n/a	n/a
534.7929688	n/a	136907	largeTSmallT	correct	congruent	0.51953	no	T	T
535.3125	n/a	137040	responseSmallT	correct	n/a	0.51953	no	n/a	n/a
536.3789062	n/a	137313	largeHSmallT	correct	incongruent	0.59375	no	H	T
536.9726562	n/a	137465	responseSmallT	correct	n/a	0.59375	no	n/a	n/a
538.03125	n/a	137736	largeHSmallH	correct	congruent	0.44141	no	H	H
538.4726562	n/a	137849	responseSmallH	correct	n/a	0.44141	no	n/a	n/a
539.5507812	n/a	138125	largeTSmallT	correct	congruent	0.42578	no	T	T
539.9765625	n/a	138234	responseSmallT	correct	n/a	0.42578	no	n/a	n/a
541.046875	n/a	138508	largeHSmallH	correct	congruent	0.42188	no	H	H
541.46875	n/a	138616	responseSmallH	correct	n/a	0.42188	no	n/a	n/a
542.5507812	n/a	138893	largeTSmallT	correct	congruent	0.45312	no	T	T
543.0039062	n/a	139009	responseSmallT	correct	n/a	0.45312	no	n/a	n/a
544.0742188	n/a	139283	largeHSmallH	correct	congruent	0.52734	no	H	H
544.6015625	n/a	139418	responseSmallH	correct	n/a	0.52734	no	n/a	n/a
545.671875	n/a	139692	largeHSmallH	correct	congruent	0.58984	no	H	H
546.2617188	n/a	139843	responseSmallH	correct	n/a	0.58984	no	n/a	n/a
547.3398438	n/a	140119	largeHSmallT	correct	incongruent	0.71484	no	H	T
548.0546875	n/a	140302	responseSmallT	correct	n/a	0.71484	no	n/a	n/a
549.140625	n/a	140580	largeTSmallT	correct	congruent	0.53125	no	T	T
549.671875	n/a	140716	responseSmallT	correct	n/a	0.53125	no	n/a	n/a
550.7382812	n/a	140989	largeTSmallH	correct	incongruent	0.53906	no	T	H
551.2773438	n/a	141127	responseSmallH	correct	n/a	0.53906	no	n/a	n/a
552.3398438	n/a	141399	largeHSmallH	correct	congruent	0.55078	no	H	H
552.890625	n/a	141540	responseSmallH	correct	n/a	0.55078	no	n/a	n/a
553.9648438	n/a	141815	largeTSmallT	correct	congruent	0.56641	no	T	T
554.53125	n/a	141960	responseSmallT	correct	n/a	0.56641	no	n/a	n/a
555.6054688	n/a	142235	largeTSmallT	correct	congruent	0.65625	no	T	T
556.2617188	n/a	142403	responseSmallT	correct	n/a	0.65625	no	n/a	n/a
557.3398438	n/a	142679	largeTSmallH	correct	incongruent	0.52734	no	T	H
557.8671875	n/a	142814	responseSmallH	correct	n/a	0.52734	no	n/a	n/a
558.9375	n/a	143088	largeTSmallT	correct	congruent	0.54688	no	T	T
559.484375	n/a	143228	responseSmallT	correct	n/a	0.54688	no	n/a	n/a
560.5546875	n/a	143502	largeTSmallT	correct	congruent	0.60156	no	T	T
561.15625	n/a	143656	responseSmallT	correct	n/a	0.60156	no	n/a	n/a
562.21875	n/a	143928	largeTSmallH	error	incongruent	0.46094	no	T	H
562.6796875	n/a	144046	responseSmallT	error	n/a	0.46094	no	n/a	n/a
563.7539062	n/a	144321	largeTSmallH	correct	incongruent	0.51172	no	T	H
564.265625	n/a	144452	responseSmallH	correct	n/a	0.51172	no	n/a	n/a
565.3398438	n/a	144727	largeHSmallT	correct	incongruent	0.59375	no	H	T
565.9335938	n/a	144879	responseSmallT	correct	n/a	0.59375	no	n/a	n/a
567.0039062	n/a	145153	largeHSmallH	correct	congruent	0.46875	no	H	H
567.4726562	n/a	145273	responseSmallH	correct	n/a	0.46875	no	n/a	n/a
568.5390625	n/a	145546	largeTSmallH	correct	incongruent	0.57812	no	T	H
569.1171875	n/a	145694	responseSmallH	correct	n/a	0.57812	no	n/a	n/a
570.1914062	n/a	145969	largeHSmallT	correct	incongruent	0.44922	no	H	T
570.640625	n/a	146084	responseSmallT	correct	n/a	0.44922	no	n/a	n/a
571.7265625	n/a	146362	largeTSmallT	correct	congruent	0.53516	no	T	T
572.2617188	n/a	146499	responseSmallT	correct	n/a	0.53516	no	n/a	n/a
573.3398438	n/a	146775	largeTSmallH	correct	incongruent	0.51562	no	T	H
573.8554688	n/a	146907	responseSmallH	correct	n/a	0.51562	no	n/a	n/a
574.9375	n/a	147184	largeTSmallH	correct	incongruent	0.55469	no	T	H
575.4921875	n/a	147326	responseSmallH	correct	n/a	0.55469	no	n/a	n/a
576.5507812	n/a	147597	largeHSmallT	correct	incongruent	0.46875	no	H	T
577.0195312	n/a	147717	responseSmallT	correct	n/a	0.46875	no	n/a	n/a
578.0859375	n/a	147990	largeTSmallH	error	incongruent	0.34766	no	T	H
578.4335938	n/a	148079	responseSmallT	error	n/a	0.34766	no	n/a	n/a
579.5	n/a	148352	largeTSmallH	correct	incongruent	0.45703	no	T	H
579.9570312	n/a	148469	responseSmallH	correct	n/a	0.45703	no	n/a	n/a
581.03125	n/a	148744	largeHSmallT	correct	incongruent	0.61328	no	H	T
581.6445312	n/a	148901	responseSmallT	correct	n/a	0.61328	no	n/a	n/a
582.7265625	n/a	149178	largeHSmallT	correct	incongruent	0.5625	no	H	T
583.2890625	n/a	149322	responseSmallT	correct	n/a	0.5625	no	n/a	n/a
584.3515625	n/a	149594	largeTSmallH	correct	incongruent	0.46484	no	T	H
584.8164062	n/a	149713	responseSmallH	correct	n/a	0.46484	no	n/a	n/a
585.8828125	n/a	149986	largeHSmallT	correct	incongruent	0.57031	no	H	T
586.453125	n/a	150132	responseSmallT	correct	n/a	0.57031	no	n/a	n/a
587.5234375	n/a	150406	largeTSmallH	correct	incongruent	0.66016	no	T	H
588.1835938	n/a	150575	responseSmallH	correct	n/a	0.66016	no	n/a	n/a
589.2578125	n/a	150850	largeTSmallT	correct	congruent	0.48438	no	T	T
589.7421875	n/a	150974	responseSmallT	correct	n/a	0.48438	no	n/a	n/a
590.8164062	n/a	151249	largeHSmallT	correct	incongruent	0.5625	no	H	T
591.3789062	n/a	151393	responseSmallT	correct	n/a	0.5625	no	n/a	n/a
592.4570312	n/a	151669	largeTSmallH	correct	incongruent	0.51953	no	T	H
592.9765625	n/a	151802	responseSmallH	correct	n/a	0.51953	no	n/a	n/a
594.0429688	n/a	152075	largeHSmallT	correct	incongruent	0.50391	no	H	T
594.546875	n/a	152204	responseSmallT	correct	n/a	0.50391	no	n/a	n/a
595.6171875	n/a	152478	largeTSmallT	correct	congruent	0.57422	no	T	T
596.1914062	n/a	152625	responseSmallT	correct	n/a	0.57422	no	n/a	n/a
597.2578125	n/a	152898	largeTSmallH	correct	incongruent	0.6875	no	T	H
597.9453125	n/a	153074	responseSmallH	correct	n/a	0.6875	no	n/a	n/a
599.0195312	n/a	153349	largeHSmallH	correct	congruent	0.69922	no	H	H
599.71875	n/a	153528	responseSmallH	correct	n/a	0.69922	no	n/a	n/a
600.7773438	n/a	153799	largeHSmallT	correct	incongruent	0.62891	no	H	T
601.40625	n/a	153960	responseSmallT	correct	n/a	0.62891	no	n/a	n/a
602.484375	n/a	154236	largeHSmallH	correct	congruent	0.61328	no	H	H
603.0976562	n/a	154393	responseSmallH	correct	n/a	0.61328	no	n/a	n/a
604.1640625	n/a	154666	largeTSmallT	correct	congruent	0.52344	no	T	T
604.6875	n/a	154800	responseSmallT	correct	n/a	0.52344	no	n/a	n/a
605.765625	n/a	155076	largeTSmallT	correct	congruent	0.62891	no	T	T
606.3945312	n/a	155237	responseSmallT	correct	n/a	0.62891	no	n/a	n/a
607.4726562	n/a	155513	largeTSmallH	correct	incongruent	0.47656	no	T	H
607.9492188	n/a	155635	responseSmallH	correct	n/a	0.47656	no	n/a	n/a
609.0195312	n/a	155909	largeTSmallH	correct	incongruent	0.60156	no	T	H
609.6210938	n/a	156063	responseSmallH	correct	n/a	0.60156	no	n/a	n/a
610.6835938	n/a	156335	largeHSmallH	correct	congruent	0.70703	no	H	H
611.390625	n/a	156516	responseSmallH	correct	n/a	0.70703	no	n/a	n/a
612.4726562	n/a	156793	largeTSmallT	correct	congruent	0.45312	no	T	T
612.9257812	n/a	156909	responseSmallT	correct	n/a	0.45312	no	n/a	n/a
613.9921875	n/a	157182	largeTSmallH	correct	incongruent	0.49219	no	T	H
614.484375	n/a	157308	responseSmallH	correct	n/a	0.49219	no	n/a	n/a
615.5507812	n/a	157581	largeTSmallH	correct	incongruent	0.50781	no	T	H
616.0585938	n/a	157711	responseSmallH	correct	n/a	0.50781	no	n/a	n/a
617.1367188	n/a	157987	largeHSmallT	correct	incongruent	0.66016	no	H	T
617.796875	n/a	158156	responseSmallT	correct	n/a	0.66016	no	n/a	n/a
618.8554688	n/a	158427	largeHSmallT	correct	incongruent	0.53125	no	H	T
619.3867188	n/a	158563	responseSmallT	correct	n/a	0.53125	no	n/a	n/a
620.4570312	n/a	158837	largeHSmallT	correct	incongruent	0.60547	no	H	T
621.0625	n/a	158992	responseSmallT	correct	n/a	0.60547	no	n/a	n/a
622.1367188	n/a	159267	largeHSmallT	correct	incongruent	0.56641	no	H	T
622.703125	n/a	159412	responseSmallT	correct	n/a	0.56641	no	n/a	n/a
623.7773438	n/a	159687	largeHSmallT	correct	incongruent	0.69141	no	H	T
624.46875	n/a	159864	responseSmallT	correct	n/a	0.69141	no	n/a	n/a
625.5351562	n/a	160137	largeTSmallH	error	incongruent	0.44531	no	T	H
625.9804688	n/a	160251	responseSmallT	error	n/a	0.44531	no	n/a	n/a
627.0585938	n/a	160527	largeHSmallT	correct	incongruent	0.85156	no	H	T
627.9101562	n/a	160745	responseSmallT	correct	n/a	0.85156	no	n/a	n/a
628.9921875	n/a	161022	largeTSmallH	correct	incongruent	0.53906	no	T	H
629.53125	n/a	161160	responseSmallH	correct	n/a	0.53906	no	n/a	n/a
630.6171875	n/a	161438	largeTSmallT	correct	congruent	0.51562	no	T	T
631.1328125	n/a	161570	responseSmallT	correct	n/a	0.51562	no	n/a	n/a
632.203125	n/a	161844	largeHSmallT	correct	incongruent	0.79297	no	H	T
632.9960938	n/a	162047	responseSmallT	correct	n/a	0.79297	no	n/a	n/a
634.0703125	n/a	162322	largeHSmallH	correct	congruent	0.53516	no	H	H
634.6054688	n/a	162459	responseSmallH	correct	n/a	0.53516	no	n/a	n/a
635.6835938	n/a	162735	largeTSmallT	correct	congruent	0.53516	no	T	T
636.21875	n/a	162872	responseSmallT	correct	n/a	0.53516	no	n/a	n/a
637.2851562	n/a	163145	largeTSmallH	correct	incongruent	0.46484	no	T	H
637.75	n/a	163264	responseSmallH	correct	n/a	0.46484	no	n/a	n/a
638.8164062	n/a	163537	largeHSmallT	correct	incongruent	0.51953	no	H	T
639.3359375	n/a	163670	responseSmallT	correct	n/a	0.51953	no	n/a	n/a
640.4023438	n/a	163943	largeTSmallH	correct	incongruent	0.40234	no	T	H
640.8046875	n/a	164046	responseSmallH	correct	n/a	0.40234	no	n/a	n/a
641.8710938	n/a	164319	largeHSmallT	correct	incongruent	0.59766	no	H	T
642.46875	n/a	164472	responseSmallT	correct	n/a	0.59766	no	n/a	n/a
643.5351562	n/a	164745	largeHSmallH	correct	congruent	0.42969	no	H	H
643.9648438	n/a	164855	responseSmallH	correct	n/a	0.42969	no	n/a	n/a
645.0429688	n/a	165131	largeTSmallT	correct	congruent	0.4375	no	T	T
645.4804688	n/a	165243	responseSmallT	correct	n/a	0.4375	no	n/a	n/a
646.5507812	n/a	165517	largeHSmallH	correct	congruent	0.53125	no	H	H
647.0820312	n/a	165653	responseSmallH	correct	n/a	0.53125	no	n/a	n/a
648.1640625	n/a	165930	largeHSmallT	correct	incongruent	0.54297	no	H	T
648.7070312	n/a	166069	responseSmallT	correct	n/a	0.54297	no	n/a	n/a
649.7773438	n/a	166343	largeTSmallH	correct	incongruent	0.46875	no	T	H
650.2460938	n/a	166463	responseSmallH	correct	n/a	0.46875	no	n/a	n/a
651.3085938	n/a	166735	largeTSmallT	correct	congruent	0.49609	no	T	T
651.8046875	n/a	166862	responseSmallT	correct	n/a	0.49609	no	n/a	n/a
652.8710938	n/a	167135	largeHSmallH	correct	congruent	0.66016	no	H	H
653.53125	n/a	167304	responseSmallH	correct	n/a	0.66016	no	n/a	n/a
654.6015625	n/a	167578	largeHSmallH	correct	congruent	0.69922	no	H	H
655.3007812	n/a	167757	responseSmallH	correct	n/a	0.69922	no	n/a	n/a
656.3632812	n/a	168029	largeTSmallT	correct	congruent	0.55078	no	T	T
656.9140625	n/a	168170	responseSmallT	correct	n/a	0.55078	no	n/a	n/a
657.9882812	n/a	168445	largeTSmallT	correct	congruent	0.85938	no	T	T
658.8476562	n/a	168665	responseSmallT	correct	n/a	0.85938	no	n/a	n/a
659.921875	n/a	168940	largeHSmallT	correct	incongruent	0.56641	no	H	T
660.4882812	n/a	169085	responseSmallT	correct	n/a	0.56641	no	n/a	n/a
661.5625	n/a	169360	largeHSmallT	correct	incongruent	0.46094	no	H	T
662.0234375	n/a	169478	responseSmallT	correct	n/a	0.46094	no	n/a	n/a
663.0820312	n/a	169749	largeTSmallH	correct	incongruent	0.66016	no	T	H
663.7421875	n/a	169918	responseSmallH	correct	n/a	0.66016	no	n/a	n/a
664.8164062	n/a	170193	largeTSmallH	correct	incongruent	0.60547	no	T	H
665.421875	n/a	170348	responseSmallH	correct	n/a	0.60547	no	n/a	n/a
666.484375	n/a	170620	largeTSmallH	correct	incongruent	0.48047	no	T	H
666.9648438	n/a	170743	responseSmallH	correct	n/a	0.48047	no	n/a	n/a
672.640625	n/a	172196	largeTSmallH	correct	incongruent	0.63281	no	T	H
673.2734375	n/a	172358	responseLargeT	correct	n/a	0.63281	no	n/a	n/a
674.3476562	n/a	172633	largeHSmallT	correct	incongruent	0.44922	no	H	T
674.796875	n/a	172748	responseLargeH	correct	n/a	0.44922	no	n/a	n/a
675.8671875	n/a	173022	largeHSmallT	correct	incongruent	0.80469	no	H	T
676.671875	n/a	173228	responseLargeH	correct	n/a	0.80469	no	n/a	n/a
677.734375	n/a	173500	largeTSmallT	correct	congruent	0.46875	no	T	T
678.203125	n/a	173620	responseLargeT	correct	n/a	0.46875	no	n/a	n/a
679.28125	n/a	173896	largeTSmallT	correct	congruent	0.55859	no	T	T
679.8398438	n/a	174039	responseLargeT	correct	n/a	0.55859	no	n/a	n/a
680.921875	n/a	174316	largeHSmallH	correct	congruent	0.5	no	H	H
681.421875	n/a	174444	responseLargeH	correct	n/a	0.5	no	n/a	n/a
682.4960938	n/a	174719	largeHSmallT	correct	incongruent	0.66797	no	H	T
683.1640625	n/a	174890	responseLargeH	correct	n/a	0.66797	no	n/a	n/a
684.2304688	n/a	175163	largeTSmallH	correct	incongruent	0.49609	no	T	H
684.7265625	n/a	175290	responseLargeT	correct	n/a	0.49609	no	n/a	n/a
685.8007812	n/a	175565	largeHSmallT	correct	incongruent	0.41016	no	H	T
686.2109375	n/a	175670	responseLargeH	correct	n/a	0.41016	no	n/a	n/a
687.28125	n/a	175944	largeHSmallH	correct	congruent	0.50781	no	H	H
687.7890625	n/a	176074	responseLargeH	correct	n/a	0.50781	no	n/a	n/a
688.8554688	n/a	176347	largeHSmallH	correct	congruent	0.44141	no	H	H
689.296875	n/a	176460	responseLargeH	correct	n/a	0.44141	no	n/a	n/a
690.375	n/a	176736	largeTSmallH	correct	incongruent	0.5	no	T	H
690.875	n/a	176864	responseLargeT	correct	n/a	0.5	no	n/a	n/a
691.9492188	n/a	177139	largeHSmallT	correct	incongruent	0.59375	no	H	T
692.5429688	n/a	177291	responseLargeH	correct	n/a	0.59375	no	n/a	n/a
693.6132812	n/a	177565	largeTSmallH	correct	incongruent	0.57422	no	T	H
694.1875	n/a	177712	responseLargeT	correct	n/a	0.57422	no	n/a	n/a
695.2539062	n/a	177985	largeTSmallT	correct	congruent	0.60156	no	T	T
695.8554688	n/a	178139	responseLargeT	correct	n/a	0.60156	no	n/a	n/a
696.921875	n/a	178412	largeTSmallH	correct	incongruent	0.53906	no	T	H
697.4609375	n/a	178550	responseLargeT	correct	n/a	0.53906	no	n/a	n/a
698.5351562	n/a	178825	largeHSmallH	correct	congruent	0.46484	no	H	H
699	n/a	178944	responseLargeH	correct	n/a	0.46484	no	n/a	n/a
700.0820312	n/a	179221	largeHSmallH	error	congruent	0.45703	no	H	H
700.5390625	n/a	179338	responseLargeT	error	n/a	0.45703	no	n/a	n/a
701.6015625	n/a	179610	largeHSmallH	correct	congruent	0.56641	no	H	H
702.1679688	n/a	179755	responseLargeH	correct	n/a	0.56641	no	n/a	n/a
703.2421875	n/a	180030	largeHSmallT	correct	incongruent	0.80859	no	H	T
704.0507812	n/a	180237	responseLargeH	correct	n/a	0.80859	no	n/a	n/a
705.1367188	n/a	180515	largeHSmallT	correct	incongruent	0.47656	no	H	T
705.6132812	n/a	180637	responseLargeH	correct	n/a	0.47656	no	n/a	n/a
706.6953125	n/a	180914	largeTSmallH	correct	incongruent	0.53906	no	T	H
707.234375	n/a	181052	responseLargeT	correct	n/a	0.53906	no	n/a	n/a
708.2929688	n/a	181323	largeHSmallT	correct	incongruent	0.61719	no	H	T
708.9101562	n/a	181481	responseLargeH	correct	n/a	0.61719	no	n/a	n/a
709.9882812	n/a	181757	largeHSmallH	correct	congruent	0.57031	no	H	H
710.5585938	n/a	181903	responseLargeH	correct	n/a	0.57031	no	n/a	n/a
711.640625	n/a	182180	largeTSmallT	correct	congruent	0.45312	no	T	T
712.09375	n/a	182296	responseLargeT	correct	n/a	0.45312	no	n/a	n/a
713.1601562	n/a	182569	largeTSmallT	correct	congruent	0.62891	no	T	T
713.7890625	n/a	182730	responseLargeT	correct	n/a	0.62891	no	n/a	n/a
714.8671875	n/a	183006	largeTSmallT	correct	congruent	0.49219	no	T	T
715.359375	n/a	183132	responseLargeT	correct	n/a	0.49219	no	n/a	n/a
716.4296875	n/a	183406	largeTSmallH	correct	incongruent	0.63281	no	T	H
717.0625	n/a	183568	responseLargeT	correct	n/a	0.63281	no	n/a	n/a
718.1210938	n/a	183839	largeHSmallH	correct	congruent	0.55859	no	H	H
718.6796875	n/a	183982	responseLargeH	correct	n/a	0.55859	no	n/a	n/a
719.7460938	n/a	184255	largeTSmallH	correct	incongruent	0.92188	no	T	H
720.6679688	n/a	184491	responseLargeT	correct	n/a	0.92188	no	n/a	n/a
721.7460938	n/a	184767	largeTSmallT	correct	congruent	0.61719	no	T	T
722.3632812	n/a	184925	responseLargeT	correct	n/a	0.61719	no	n/a	n/a
723.4257812	n/a	185197	largeHSmallT	correct	incongruent	0.65625	no	H	T
724.0820312	n/a	185365	responseLargeH	correct	n/a	0.65625	no	n/a	n/a
725.1484375	n/a	185638	largeTSmallH	correct	incongruent	0.71094	no	T	H
725.859375	n/a	185820	responseLargeT	correct	n/a	0.71094	no	n/a	n/a
726.921875	n/a	186092	largeTSmallT	correct	congruent	0.76562	no	T	T
727.6875	n/a	186288	responseLargeT	correct	n/a	0.76562	no	n/a	n/a
728.7617188	n/a	186563	largeHSmallT	correct	incongruent	0.69922	no	H	T
729.4609375	n/a	186742	responseLargeH	correct	n/a	0.69922	no	n/a	n/a
730.5195312	n/a	187013	largeHSmallT	correct	incongruent	0.78906	no	H	T
731.3085938	n/a	187215	responseLargeH	correct	n/a	0.78906	no	n/a	n/a
732.3867188	n/a	187491	largeTSmallT	correct	congruent	2.4258	yes	T	T
734.8125	n/a	188112	responseLargeT	correct	n/a	2.4258	yes	n/a	n/a
735.8789062	n/a	188385	largeTSmallT	correct	congruent	0.70312	no	T	T
736.5820312	n/a	188565	responseLargeT	correct	n/a	0.70312	no	n/a	n/a
737.6523438	n/a	188839	largeTSmallT	correct	congruent	0.58594	no	T	T
738.2382812	n/a	188989	responseLargeT	correct	n/a	0.58594	no	n/a	n/a
739.3085938	n/a	189263	largeHSmallT	correct	incongruent	0.57422	no	H	T
739.8828125	n/a	189410	responseLargeH	correct	n/a	0.57422	no	n/a	n/a
740.9492188	n/a	189683	largeTSmallH	correct	incongruent	0.875	no	T	H
741.8242188	n/a	189907	responseLargeT	correct	n/a	0.875	no	n/a	n/a
742.8945312	n/a	190181	largeHSmallT	correct	incongruent	0.40625	no	H	T
743.3007812	n/a	190285	responseLargeH	correct	n/a	0.40625	no	n/a	n/a
744.359375	n/a	190556	largeTSmallH	error	incongruent	0.5	no	T	H
744.859375	n/a	190684	responseLargeH	error	n/a	0.5	no	n/a	n/a
745.921875	n/a	190956	largeHSmallH	correct	congruent	0.69531	no	H	H
746.6171875	n/a	191134	responseLargeH	correct	n/a	0.69531	no	n/a	n/a
747.6796875	n/a	191406	largeHSmallT	correct	incongruent	0.59766	no	H	T
748.2773438	n/a	191559	responseLargeH	correct	n/a	0.59766	no	n/a	n/a
749.3476562	n/a	191833	largeTSmallH	correct	incongruent	0.63281	no	T	H
749.9804688	n/a	191995	responseLargeT	correct	n/a	0.63281	no	n/a	n/a
751.0546875	n/a	192270	largeHSmallH	correct	congruent	0.74609	no	H	H
751.8007812	n/a	192461	responseLargeH	correct	n/a	0.74609	no	n/a	n/a
752.8671875	n/a	192734	largeTSmallH	correct	incongruent	0.4375	no	T	H
753.3046875	n/a	192846	responseLargeT	correct	n/a	0.4375	no	n/a	n/a
754.3867188	n/a	193123	largeHSmallH	correct	congruent	0.48047	no	H	H
754.8671875	n/a	193246	responseLargeH	correct	n/a	0.48047	no	n/a	n/a
755.9453125	n/a	193522	largeTSmallH	correct	incongruent	0.4375	no	T	H
756.3828125	n/a	193634	responseLargeT	correct	n/a	0.4375	no	n/a	n/a
757.453125	n/a	193908	largeHSmallT	correct	incongruent	0.40234	no	H	T
757.8554688	n/a	194011	responseLargeH	correct	n/a	0.40234	no	n/a	n/a
758.9335938	n/a	194287	largeTSmallH	correct	incongruent	0.39844	no	T	H
759.3320312	n/a	194389	responseLargeT	correct	n/a	0.39844	no	n/a	n/a
760.3984375	n/a	194662	largeHSmallH	correct	congruent	0.37109	no	H	H
760.7695312	n/a	194757	responseLargeH	correct	n/a	0.37109	no	n/a	n/a
761.8398438	n/a	195031	largeTSmallH	correct	incongruent	0.66016	no	T	H
762.5	n/a	195200	responseLargeT	correct	n/a	0.66016	no	n/a	n/a
763.5742188	n/a	195475	largeHSmallH	correct	congruent	0.44922	no	H	H
764.0234375	n/a	195590	responseLargeH	correct	n/a	0.44922	no	n/a	n/a
765.09375	n/a	195864	largeTSmallT	correct	congruent	0.51562	no	T	T
765.609375	n/a	195996	responseLargeT	correct	n/a	0.51562	no	n/a	n/a
766.6914062	n/a	196273	largeHSmallT	correct	incongruent	0.66797	no	H	T
767.359375	n/a	196444	responseLargeH	correct	n/a	0.66797	no	n/a	n/a
768.4414062	n/a	196721	largeHSmallH	correct	congruent	0.70312	no	H	H
769.1445312	n/a	196901	responseLargeH	correct	n/a	0.70312	no	n/a	n/a
770.2148438	n/a	197175	largeTSmallH	correct	incongruent	0.51172	no	T	H
770.7265625	n/a	197306	responseLargeT	correct	n/a	0.51172	no	n/a	n/a
771.7851562	n/a	197577	largeHSmallT	correct	incongruent	0.42578	no	H	T
772.2109375	n/a	197686	responseLargeH	correct	n/a	0.42578	no	n/a	n/a
773.28125	n/a	197960	largeTSmallT	correct	congruent	0.57031	no	T	T
773.8515625	n/a	198106	responseLargeT	correct	n/a	0.57031	no	n/a	n/a
774.9335938	n/a	198383	largeHSmallT	correct	incongruent	0.67578	no	H	T
775.609375	n/a	198556	responseLargeH	correct	n/a	0.67578	no	n/a	n/a
776.6914062	n/a	198833	largeHSmallT	correct	incongruent	0.77734	no	H	T
777.46875	n/a	199032	responseLargeH	correct	n/a	0.77734	no	n/a	n/a
778.546875	n/a	199308	largeTSmallH	correct	incongruent	0.78125	no	T	H
779.328125	n/a	199508	responseLargeT	correct	n/a	0.78125	no	n/a	n/a
780.3984375	n/a	199782	largeHSmallH	correct	congruent	0.73438	no	H	H
781.1328125	n/a	199970	responseLargeH	correct	n/a	0.73438	no	n/a	n/a
782.2109375	n/a	200246	largeHSmallH	correct	congruent	0.85156	no	H	H
783.0625	n/a	200464	responseLargeH	correct	n/a	0.85156	no	n/a	n/a
784.1328125	n/a	200738	largeTSmallH	correct	incongruent	1.332	no	T	H
785.4648438	n/a	201079	responseLargeT	correct	n/a	1.332	no	n/a	n/a
786.53125	n/a	201352	largeTSmallT	correct	congruent	0.57422	no	T	T
787.1054688	n/a	201499	responseLargeT	correct	n/a	0.57422	no	n/a	n/a
788.171875	n/a	201772	largeTSmallT	correct	congruent	0.53125	no	T	T
788.703125	n/a	201908	responseLargeT	correct	n/a	0.53125	no	n/a	n/a
789.7734375	n/a	202182	largeHSmallT	correct	incongruent	0.57422	no	H	T
790.3476562	n/a	202329	responseLargeH	correct	n/a	0.57422	no	n/a	n/a
791.4140625	n/a	202602	largeTSmallH	correct	incongruent	0.56641	no	T	H
791.9804688	n/a	202747	responseLargeT	correct	n/a	0.56641	no	n/a	n/a
793.0507812	n/a	203021	largeHSmallH	correct	congruent	0.53516	no	H	H
793.5859375	n/a	203158	responseLargeH	correct	n/a	0.53516	no	n/a	n/a
794.6523438	n/a	203431	largeTSmallT	correct	congruent	0.53125	no	T	T
795.1835938	n/a	203567	responseLargeT	correct	n/a	0.53125	no	n/a	n/a
796.2539062	n/a	203841	largeTSmallT	correct	congruent	0.59375	no	T	T
796.8476562	n/a	203993	responseLargeT	correct	n/a	0.59375	no	n/a	n/a
797.9179688	n/a	204267	largeTSmallT	correct	congruent	0.40625	no	T	T
798.3242188	n/a	204371	responseLargeT	correct	n/a	0.40625	no	n/a	n/a
799.3984375	n/a	204646	largeHSmallT	correct	incongruent	0.5625	no	H	T
799.9609375	n/a	204790	responseLargeH	correct	n/a	0.5625	no	n/a	n/a
801.0390625	n/a	205066	largeHSmallT	correct	incongruent	0.59766	no	H	T
801.6367188	n/a	205219	responseLargeH	correct	n/a	0.59766	no	n/a	n/a
802.7070312	n/a	205493	largeTSmallH	correct	incongruent	0.61328	no	T	H
803.3203125	n/a	205650	responseLargeT	correct	n/a	0.61328	no	n/a	n/a
804.3984375	n/a	205926	largeHSmallT	correct	incongruent	0.71484	no	H	T
805.1132812	n/a	206109	responseLargeH	correct	n/a	0.71484	no	n/a	n/a
806.1875	n/a	206384	largeHSmallH	correct	congruent	0.64062	no	H	H
806.828125	n/a	206548	responseLargeH	correct	n/a	0.64062	no	n/a	n/a
807.90625	n/a	206824	largeTSmallT	correct	congruent	0.53906	no	T	T
808.4453125	n/a	206962	responseLargeT	correct	n/a	0.53906	no	n/a	n/a
809.5039062	n/a	207233	largeTSmallH	correct	incongruent	0.52344	no	T	H
810.0273438	n/a	207367	responseLargeT	correct	n/a	0.52344	no	n/a	n/a
811.1054688	n/a	207643	largeTSmallT	correct	congruent	0.46484	no	T	T
811.5703125	n/a	207762	responseLargeT	correct	n/a	0.46484	no	n/a	n/a
812.6523438	n/a	208039	largeTSmallH	correct	incongruent	0.47266	no	T	H
813.125	n/a	208160	responseLargeT	correct	n/a	0.47266	no	n/a	n/a
814.1835938	n/a	208431	largeTSmallT	correct	congruent	0.38672	no	T	T
814.5703125	n/a	208530	responseLargeT	correct	n/a	0.38672	no	n/a	n/a
815.640625	n/a	208804	largeTSmallT	correct	congruent	0.49609	no	T	T
816.1367188	n/a	208931	responseLargeT	correct	n/a	0.49609	no	n/a	n/a
817.1992188	n/a	209203	largeTSmallH	correct	incongruent	0.41016	no	T	H
817.609375	n/a	209308	responseLargeT	correct	n/a	0.41016	no	n/a	n/a
818.6796875	n/a	209582	largeTSmallH	correct	incongruent	0.42578	no	T	H
819.1054688	n/a	209691	responseLargeT	correct	n/a	0.42578	no	n/a	n/a
820.1835938	n/a	209967	largeHSmallH	correct	congruent	0.47266	no	H	H
820.65625	n/a	210088	responseLargeH	correct	n/a	0.47266	no	n/a	n/a
821.7304688	n/a	210363	largeTSmallH	correct	incongruent	0.54297	no	T	H
822.2734375	n/a	210502	responseLargeT	correct	n/a	0.54297	no	n/a	n/a
823.34375	n/a	210776	largeTSmallH	correct	incongruent	0.50391	no	T	H
823.8476562	n/a	210905	responseLargeT	correct	n/a	0.50391	no	n/a	n/a
824.9179688	n/a	211179	largeHSmallH	correct	congruent	0.48438	no	H	H
825.4023438	n/a	211303	responseLargeH	correct	n/a	0.48438	no	n/a	n/a
826.4648438	n/a	211575	largeHSmallT	correct	incongruent	0.40625	no	H	T
826.8710938	n/a	211679	responseLargeH	correct	n/a	0.40625	no	n/a	n/a
827.9335938	n/a	211951	largeTSmallT	correct	congruent	0.57422	no	T	T
828.5078125	n/a	212098	responseLargeT	correct	n/a	0.57422	no	n/a	n/a
829.5703125	n/a	212370	largeHSmallT	correct	incongruent	0.58984	no	H	T
830.1601562	n/a	212521	responseLargeH	correct	n/a	0.58984	no	n/a	n/a
831.2265625	n/a	212794	largeHSmallH	correct	congruent	0.55078	no	H	H
831.7773438	n/a	212935	responseLargeH	correct	n/a	0.55078	no	n/a	n/a
832.8515625	n/a	213210	largeHSmallT	correct	incongruent	0.49609	no	H	T
833.3476562	n/a	213337	responseLargeH	correct	n/a	0.49609	no	n/a	n/a
834.4257812	n/a	213613	largeTSmallT	correct	congruent	0.64844	no	T	T
835.0742188	n/a	213779	responseLargeT	correct	n/a	0.64844	no	n/a	n/a
836.1445312	n/a	214053	largeHSmallH	correct	congruent	0.60156	no	H	H
836.7460938	n/a	214207	responseLargeH	correct	n/a	0.60156	no	n/a	n/a
837.8125	n/a	214480	largeHSmallH	correct	congruent	0.57422	no	H	H
838.3867188	n/a	214627	responseLargeH	correct	n/a	0.57422	no	n/a	n/a
839.4648438	n/a	214903	largeHSmallH	correct	congruent	0.48047	no	H	H
839.9453125	n/a	215026	responseLargeH	correct	n/a	0.48047	no	n/a	n/a
841.0117188	n/a	215299	largeHSmallH	correct	congruent	0.55859	no	H	H
841.5703125	n/a	215442	responseLargeH	correct	n/a	0.55859	no	n/a	n/a
842.6523438	n/a	215719	largeHSmallH	correct	congruent	0.39453	no	H	H
843.046875	n/a	215820	responseLargeH	correct	n/a	0.39453	no	n/a	n/a
844.1054688	n/a	216091	largeTSmallT	correct	congruent	0.54297	no	T	T
844.6484375	n/a	216230	responseLargeT	correct	n/a	0.54297	no	n/a	n/a
845.71875	n/a	216504	largeHSmallT	error	incongruent	0.4375	no	H	T
846.15625	n/a	216616	responseLargeT	error	n/a	0.4375	no	n/a	n/a
847.2382812	n/a	216893	largeTSmallH	correct	incongruent	0.76172	no	T	H
848	n/a	217088	responseLargeT	correct	n/a	0.76172	no	n/a	n/a
849.078125	n/a	217364	largeHSmallT	correct	incongruent	0.65234	no	H	T
849.7304688	n/a	217531	responseLargeH	correct	n/a	0.65234	no	n/a	n/a
850.796875	n/a	217804	largeTSmallH	correct	incongruent	0.58984	no	T	H
851.3867188	n/a	217955	responseLargeT	correct	n/a	0.58984	no	n/a	n/a
852.4492188	n/a	218227	largeTSmallT	correct	congruent	0.46875	no	T	T
852.9179688	n/a	218347	responseLargeT	correct	n/a	0.46875	no	n/a	n/a
853.984375	n/a	218620	largeTSmallT	correct	congruent	0.51953	no	T	T
854.5039062	n/a	218753	responseLargeT	correct	n/a	0.51953	no	n/a	n/a
855.5859375	n/a	219030	largeHSmallT	correct	incongruent	0.66797	no	H	T
856.2539062	n/a	219201	responseLargeH	correct	n/a	0.66797	no	n/a	n/a
857.3320312	n/a	219477	largeHSmallT	correct	incongruent	0.65234	no	H	T
857.984375	n/a	219644	responseLargeH	correct	n/a	0.65234	no	n/a	n/a
859.0507812	n/a	219917	largeTSmallT	correct	congruent	0.58203	no	T	T
859.6328125	n/a	220066	responseLargeT	correct	n/a	0.58203	no	n/a	n/a
860.703125	n/a	220340	largeTSmallT	correct	congruent	0.69531	no	T	T
861.3984375	n/a	220518	responseLargeT	correct	n/a	0.69531	no	n/a	n/a
862.4765625	n/a	220794	largeTSmallT	correct	congruent	0.40625	no	T	T
862.8828125	n/a	220898	responseLargeT	correct	n/a	0.40625	no	n/a	n/a
863.9570312	n/a	221173	largeHSmallT	correct	incongruent	0.50391	no	H	T
864.4609375	n/a	221302	responseLargeH	correct	n/a	0.50391	no	n/a	n/a
865.53125	n/a	221576	largeTSmallT	correct	congruent	0.41016	no	T	T
865.9414062	n/a	221681	responseLargeT	correct	n/a	0.41016	no	n/a	n/a
867.0117188	n/a	221955	largeTSmallT	correct	congruent	0.60938	no	T	T
867.6210938	n/a	222111	responseLargeT	correct	n/a	0.60938	no	n/a	n/a
868.703125	n/a	222388	largeTSmallT	correct	congruent	0.53516	no	T	T
869.2382812	n/a	222525	responseLargeT	correct	n/a	0.53516	no	n/a	n/a
870.3046875	n/a	222798	largeTSmallH	correct	incongruent	0.53125	no	T	H
870.8359375	n/a	222934	responseLargeT	correct	n/a	0.53125	no	n/a	n/a
871.9179688	n/a	223211	largeHSmallH	correct	congruent	0.65234	no	H	H
872.5703125	n/a	223378	responseLargeH	correct	n/a	0.65234	no	n/a	n/a
873.6367188	n/a	223651	largeHSmallH	correct	congruent	0.53906	no	H	H
874.1757812	n/a	223789	responseLargeH	correct	n/a	0.53906	no	n/a	n/a
875.25	n/a	224064	largeTSmallT	correct	congruent	0.53906	no	T	T
875.7890625	n/a	224202	responseLargeT	correct	n/a	0.53906	no	n/a	n/a
876.8632812	n/a	224477	largeTSmallH	correct	incongruent	0.67969	no	T	H
877.5429688	n/a	224651	responseLargeT	correct	n/a	0.67969	no	n/a	n/a
878.609375	n/a	224924	largeTSmallT	correct	congruent	0.47266	no	T	T
879.0820312	n/a	225045	responseLargeT	correct	n/a	0.47266	no	n/a	n/a
880.1445312	n/a	225317	largeHSmallH	correct	congruent	0.62109	no	H	H
880.765625	n/a	225476	responseLargeH	correct	n/a	0.62109	no	n/a	n/a
881.8359375	n/a	225750	largeTSmallH	correct	incongruent	0.71875	no	T	H
882.5546875	n/a	225934	responseLargeT	correct	n/a	0.71875	no	n/a	n/a
883.625	n/a	226208	largeHSmallT	correct	incongruent	0.67969	no	H	T
884.3046875	n/a	226382	responseLargeH	correct	n/a	0.67969	no	n/a	n/a
885.3710938	n/a	226655	largeTSmallH	correct	incongruent	0.50781	no	T	H
885.8789062	n/a	226785	responseLargeT	correct	n/a	0.50781	no	n/a	n/a
886.9453125	n/a	227058	largeHSmallH	correct	congruent	0.64062	no	H	H
887.5859375	n/a	227222	responseLargeH	correct	n/a	0.64062	no	n/a	n/a
888.6484375	n/a	227494	largeTSmallH	correct	incongruent	0.44141	no	T	H
889.0898438	n/a	227607	responseLargeT	correct	n/a	0.44141	no	n/a	n/a
890.15625	n/a	227880	largeHSmallH	correct	congruent	0.41406	no	H	H
890.5703125	n/a	227986	responseLargeH	correct	n/a	0.41406	no	n/a	n/a
891.6484375	n/a	228262	largeTSmallH	correct	incongruent	0.48438	no	T	H
892.1328125	n/a	228386	responseLargeT	correct	n/a	0.48438	no	n/a	n/a
893.2109375	n/a	228662	largeHSmallH	correct	congruent	0.65625	no	H	H
893.8671875	n/a	228830	responseLargeH	correct	n/a	0.65625	no	n/a	n/a
894.9453125	n/a	229106	largeTSmallT	correct	congruent	0.76172	no	T	T
895.7070312	n/a	229301	responseLargeT	correct	n/a	0.76172	no	n/a	n/a
896.7695312	n/a	229573	largeHSmallT	correct	incongruent	0.67578	no	H	T
897.4453125	n/a	229746	responseLargeH	correct	n/a	0.67578	no	n/a	n/a
898.5039062	n/a	230017	largeHSmallT	correct	incongruent	0.57812	no	H	T
899.0820312	n/a	230165	responseLargeH	correct	n/a	0.57812	no	n/a	n/a
900.1445312	n/a	230437	largeHSmallT	correct	incongruent	0.65625	no	H	T
900.8007812	n/a	230605	responseLargeH	correct	n/a	0.65625	no	n/a	n/a
901.875	n/a	230880	largeTSmallH	correct	incongruent	0.78125	no	T	H
902.65625	n/a	231080	responseLargeT	correct	n/a	0.78125	no	n/a	n/a
903.7421875	n/a	231358	largeHSmallT	correct	incongruent	0.75	no	H	T
904.4921875	n/a	231550	responseLargeH	correct	n/a	0.75	no	n/a	n/a
905.5546875	n/a	231822	largeHSmallH	correct	congruent	0.50781	no	H	H
906.0625	n/a	231952	responseLargeH	correct	n/a	0.50781	no	n/a	n/a
907.1289062	n/a	232225	largeTSmallT	correct	congruent	0.51953	no	T	T
907.6484375	n/a	232358	responseLargeT	correct	n/a	0.51953	no	n/a	n/a
908.7304688	n/a	232635	largeHSmallT	error	incongruent	0.43359	no	H	T
909.1640625	n/a	232746	responseLargeT	error	n/a	0.43359	no	n/a	n/a
910.234375	n/a	233020	largeHSmallT	correct	incongruent	0.53516	no	H	T
910.7695312	n/a	233157	responseLargeH	correct	n/a	0.53516	no	n/a	n/a
911.8476562	n/a	233433	largeTSmallH	correct	incongruent	0.53125	no	T	H
912.3789062	n/a	233569	responseLargeT	correct	n/a	0.53125	no	n/a	n/a
913.4492188	n/a	233843	largeTSmallH	correct	incongruent	1.1367	no	T	H
914.5859375	n/a	234134	responseLargeT	correct	n/a	1.1367	no	n/a	n/a
915.6484375	n/a	234406	largeHSmallT	correct	incongruent	0.74609	no	H	T
916.3945312	n/a	234597	responseLargeH	correct	n/a	0.74609	no	n/a	n/a
917.4609375	n/a	234870	largeHSmallH	correct	congruent	0.68359	no	H	H
918.1445312	n/a	235045	responseLargeH	correct	n/a	0.68359	no	n/a	n/a
919.2109375	n/a	235318	largeHSmallT	correct	incongruent	0.46484	no	H	T
919.6757812	n/a	235437	responseLargeH	correct	n/a	0.46484	no	n/a	n/a
920.7421875	n/a	235710	largeTSmallH	correct	incongruent	0.39844	no	T	H
921.140625	n/a	235812	responseLargeT	correct	n/a	0.39844	no	n/a	n/a
922.2109375	n/a	236086	largeTSmallH	correct	incongruent	0.57812	no	T	H
922.7890625	n/a	236234	responseLargeT	correct	n/a	0.57812	no	n/a	n/a
923.8632812	n/a	236509	largeHSmallH	correct	congruent	0.59375	no	H	H
924.4570312	n/a	236661	responseLargeH	correct	n/a	0.59375	no	n/a	n/a
925.5273438	n/a	236935	largeHSmallH	correct	congruent	0.59375	no	H	H
926.1210938	n/a	237087	responseLargeH	correct	n/a	0.59375	no	n/a	n/a
927.1953125	n/a	237362	largeTSmallT	correct	congruent	0.48047	no	T	T
927.6757812	n/a	237485	responseLargeT	correct	n/a	0.48047	no	n/a	n/a
928.7421875	n/a	237758	largeHSmallT	correct	incongruent	0.55469	no	H	T
929.296875	n/a	237900	responseLargeH	correct	n/a	0.55469	no	n/a	n/a
930.3671875	n/a	238174	largeTSmallT	correct	congruent	0.42188	no	T	T
930.7890625	n/a	238282	responseLargeT	correct	n/a	0.42188	no	n/a	n/a
931.8632812	n/a	238557	largeHSmallT	correct	incongruent	0.50781	no	H	T
932.3710938	n/a	238687	responseLargeH	correct	n/a	0.50781	no	n/a	n/a
933.4375	n/a	238960	largeTSmallT	correct	congruent	0.42578	no	T	T
933.8632812	n/a	239069	responseLargeT	correct	n/a	0.42578	no	n/a	n/a
934.9296875	n/a	239342	largeTSmallT	correct	congruent	0.62109	no	T	T
935.5507812	n/a	239501	responseLargeT	correct	n/a	0.62109	no	n/a	n/a
936.6210938	n/a	239775	largeTSmallH	correct	incongruent	0.46484	no	T	H
937.0859375	n/a	239894	responseLargeT	correct	n/a	0.46484	no	n/a	n/a
938.1679688	n/a	240171	largeTSmallH	correct	incongruent	0.55469	no	T	H
938.7226562	n/a	240313	responseLargeT	correct	n/a	0.55469	no	n/a	n/a
939.78125	n/a	240584	largeHSmallH	correct	congruent	0.55469	no	H	H
940.3359375	n/a	240726	responseLargeH	correct	n/a	0.55469	no	n/a	n/a
941.4101562	n/a	241001	largeHSmallH	correct	congruent	0.59375	no	H	H
942.0039062	n/a	241153	responseLargeH	correct	n/a	0.59375	no	n/a	n/a
943.0742188	n/a	241427	largeHSmallH	correct	congruent	0.57031	no	H	H
943.6445312	n/a	241573	responseLargeH	correct	n/a	0.57031	no	n/a	n/a
944.7148438	n/a	241847	largeTSmallH	correct	incongruent	0.73438	no	T	H
945.4492188	n/a	242035	responseLargeT	correct	n/a	0.73438	no	n/a	n/a
946.5273438	n/a	242311	largeHSmallH	correct	congruent	0.58203	no	H	H
947.109375	n/a	242460	responseLargeH	correct	n/a	0.58203	no	n/a	n/a
948.1835938	n/a	242735	largeHSmallH	correct	congruent	0.60156	no	H	H
948.7851562	n/a	242889	responseLargeH	correct	n/a	0.60156	no	n/a	n/a
949.8476562	n/a	243161	largeHSmallT	correct	incongruent	0.60547	no	H	T
950.453125	n/a	243316	responseLargeH	correct	n/a	0.60547	no	n/a	n/a
951.515625	n/a	243588	largeTSmallT	correct	congruent	0.35547	no	T	T
951.8710938	n/a	243679	responseLargeT	correct	n/a	0.35547	no	n/a	n/a
952.9414062	n/a	243953	largeHSmallH	correct	congruent	0.42188	no	H	H
953.3632812	n/a	244061	responseLargeH	correct	n/a	0.42188	no	n/a	n/a
954.4335938	n/a	244335	largeHSmallH	correct	congruent	0.59766	no	H	H
955.03125	n/a	244488	responseLargeH	correct	n/a	0.59766	no	n/a	n/a
956.1015625	n/a	244762	largeTSmallT	correct	congruent	0.61719	no	T	T
956.71875	n/a	244920	responseLargeT	correct	n/a	0.61719	no	n/a	n/a
957.7929688	n/a	245195	largeTSmallT	correct	congruent	0.67188	no	T	T
958.4648438	n/a	245367	responseLargeT	correct	n/a	0.67188	no	n/a	n/a
959.5429688	n/a	245643	largeTSmallH	correct	incongruent	0.63672	no	T	H
960.1796875	n/a	245806	responseLargeT	correct	n/a	0.63672	no	n/a	n/a
961.25	n/a	246080	largeTSmallT	correct	congruent	0.47656	no	T	T
961.7265625	n/a	246202	responseLargeT	correct	n/a	0.47656	no	n/a	n/a
962.7929688	n/a	246475	largeHSmallH	correct	congruent	0.55469	no	H	H
963.3476562	n/a	246617	responseLargeH	correct	n/a	0.55469	no	n/a	n/a
964.421875	n/a	246892	largeTSmallH	correct	incongruent	0.53125	no	T	H
964.953125	n/a	247028	responseLargeT	correct	n/a	0.53125	no	n/a	n/a
966.0195312	n/a	247301	largeTSmallT	correct	congruent	0.48438	no	T	T
966.5039062	n/a	247425	responseLargeT	correct	n/a	0.48438	no	n/a	n/a
967.5664062	n/a	247697	largeHSmallT	correct	incongruent	0.51953	no	H	T
968.0859375	n/a	247830	responseLargeH	correct	n/a	0.51953	no	n/a	n/a
969.15625	n/a	248104	largeHSmallT	error	incongruent	0.38672	no	H	T
969.5429688	n/a	248203	responseLargeT	error	n/a	0.38672	no	n/a	n/a
970.609375	n/a	248476	largeHSmallH	correct	congruent	0.40625	no	H	H
971.015625	n/a	248580	responseLargeH	correct	n/a	0.40625	no	n/a	n/a
972.0742188	n/a	248851	largeTSmallH	correct	incongruent	0.58203	no	T	H
972.65625	n/a	249000	responseLargeT	correct	n/a	0.58203	no	n/a	n/a
973.7265625	n/a	249274	largeTSmallT	correct	congruent	0.57812	no	T	T
974.3046875	n/a	249422	responseLargeT	correct	n/a	0.57812	no	n/a	n/a
975.3671875	n/a	249694	largeTSmallT	correct	congruent	0.5	no	T	T
975.8671875	n/a	249822	responseLargeT	correct	n/a	0.5	no	n/a	n/a
976.9414062	n/a	250097	largeHSmallH	correct	congruent	0.39844	no	H	H
977.3398438	n/a	250199	responseLargeH	correct	n/a	0.39844	no	n/a	n/a
978.40625	n/a	250472	largeHSmallT	correct	incongruent	0.41797	no	H	T
978.8242188	n/a	250579	responseLargeH	correct	n/a	0.41797	no	n/a	n/a
979.9023438	n/a	250855	largeTSmallT	correct	congruent	0.54297	no	T	T
980.4453125	n/a	250994	responseLargeT	correct	n/a	0.54297	no	n/a	n/a
981.515625	n/a	251268	largeTSmallH	correct	incongruent	0.63672	no	T	H
982.1523438	n/a	251431	responseLargeT	correct	n/a	0.63672	no	n/a	n/a
983.234375	n/a	251708	largeTSmallH	correct	incongruent	0.49219	no	T	H
983.7265625	n/a	251834	responseLargeT	correct	n/a	0.49219	no	n/a	n/a
984.7929688	n/a	252107	largeHSmallH	correct	congruent	0.63672	no	H	H
985.4296875	n/a	252270	responseLargeH	correct	n/a	0.63672	no	n/a	n/a
986.515625	n/a	252548	largeTSmallH	correct	incongruent	0.51953	no	T	H
987.0351562	n/a	252681	responseLargeT	correct	n/a	0.51953	no	n/a	n/a
988.1015625	n/a	252954	largeHSmallT	correct	incongruent	0.55859	no	H	T
988.6601562	n/a	253097	responseLargeH	correct	n/a	0.55859	no	n/a	n/a
989.7421875	n/a	253374	largeHSmallT	correct	incongruent	0.63281	no	H	T
990.375	n/a	253536	responseLargeH	correct	n/a	0.63281	no	n/a	n/a
991.4609375	n/a	253814	largeHSmallH	correct	congruent	0.58203	no	H	H
992.0429688	n/a	253963	responseLargeH	correct	n/a	0.58203	no	n/a	n/a
993.1015625	n/a	254234	largeHSmallH	correct	congruent	0.40234	no	H	H
993.5039062	n/a	254337	responseLargeH	correct	n/a	0.40234	no	n/a	n/a
994.5664062	n/a	254609	largeHSmallH	correct	congruent	0.40234	no	H	H
994.96875	n/a	254712	responseLargeH	correct	n/a	0.40234	no	n/a	n/a
996.0351562	n/a	254985	largeTSmallT	error	congruent	0.36328	no	T	T
996.3984375	n/a	255078	responseLargeH	error	n/a	0.36328	no	n/a	n/a
997.4726562	n/a	255353	largeHSmallT	correct	incongruent	1.332	no	H	T
998.8046875	n/a	255694	responseLargeH	correct	n/a	1.332	no	n/a	n/a
999.875	n/a	255968	largeHSmallT	correct	incongruent	0.54688	no	H	T
1000.421875	n/a	256108	responseLargeH	correct	n/a	0.54688	no	n/a	n/a
1001.5	n/a	256384	largeTSmallH	correct	incongruent	0.57031	no	T	H
1002.070312	n/a	256530	responseLargeT	correct	n/a	0.57031	no	n/a	n/a
1005.300781	n/a	257357	largeTSmallT	correct	congruent	0.58203	no	T	T
1005.882812	n/a	257506	responseSmallT	correct	n/a	0.58203	no	n/a	n/a
1006.953125	n/a	257780	largeHSmallH	correct	congruent	0.5	no	H	H
1007.453125	n/a	257908	responseSmallH	correct	n/a	0.5	no	n/a	n/a
1008.511719	n/a	258179	largeTSmallT	correct	congruent	0.43359	no	T	T
1008.945312	n/a	258290	responseSmallT	correct	n/a	0.43359	no	n/a	n/a
1010.019531	n/a	258565	largeHSmallH	correct	congruent	0.40625	no	H	H
1010.425781	n/a	258669	responseSmallH	correct	n/a	0.40625	no	n/a	n/a
1011.5	n/a	258944	largeTSmallH	correct	incongruent	0.41016	no	T	H
1011.910156	n/a	259049	responseSmallH	correct	n/a	0.41016	no	n/a	n/a
1012.980469	n/a	259323	largeTSmallT	correct	congruent	0.47266	no	T	T
1013.453125	n/a	259444	responseSmallT	correct	n/a	0.47266	no	n/a	n/a
1014.527344	n/a	259719	largeHSmallH	correct	congruent	0.49609	no	H	H
1015.023438	n/a	259846	responseSmallH	correct	n/a	0.49609	no	n/a	n/a
1016.085938	n/a	260118	largeTSmallH	correct	incongruent	0.48047	no	T	H
1016.566406	n/a	260241	responseSmallH	correct	n/a	0.48047	no	n/a	n/a
1017.632812	n/a	260514	largeTSmallH	correct	incongruent	0.45312	no	T	H
1018.085938	n/a	260630	responseSmallH	correct	n/a	0.45312	no	n/a	n/a
1019.152344	n/a	260903	largeTSmallH	correct	incongruent	0.375	no	T	H
1019.527344	n/a	260999	responseSmallH	correct	n/a	0.375	no	n/a	n/a
1020.59375	n/a	261272	largeTSmallH	correct	incongruent	0.39844	no	T	H
1020.992188	n/a	261374	responseSmallH	correct	n/a	0.39844	no	n/a	n/a
1022.058594	n/a	261647	largeTSmallH	correct	incongruent	0.4375	no	T	H
1022.496094	n/a	261759	responseSmallH	correct	n/a	0.4375	no	n/a	n/a
1023.566406	n/a	262033	largeHSmallT	correct	incongruent	0.60156	no	H	T
1024.167969	n/a	262187	responseSmallT	correct	n/a	0.60156	no	n/a	n/a
1025.246094	n/a	262463	largeHSmallT	correct	incongruent	0.38672	no	H	T
1025.632812	n/a	262562	responseSmallT	correct	n/a	0.38672	no	n/a	n/a
1026.714844	n/a	262839	largeHSmallT	correct	incongruent	0.42188	no	H	T
1027.136719	n/a	262947	responseSmallT	correct	n/a	0.42188	no	n/a	n/a
1028.207031	n/a	263221	largeHSmallT	correct	incongruent	0.41797	no	H	T
1028.625	n/a	263328	responseSmallT	correct	n/a	0.41797	no	n/a	n/a
1029.6875	n/a	263600	largeTSmallH	correct	incongruent	0.49219	no	T	H
1030.179688	n/a	263726	responseSmallH	correct	n/a	0.49219	no	n/a	n/a
1031.246094	n/a	263999	largeHSmallH	correct	congruent	0.60547	no	H	H
1031.851562	n/a	264154	responseSmallH	correct	n/a	0.60547	no	n/a	n/a
1032.925781	n/a	264429	largeHSmallT	correct	incongruent	0.46875	no	H	T
1033.394531	n/a	264549	responseSmallT	correct	n/a	0.46875	no	n/a	n/a
1034.460938	n/a	264822	largeTSmallT	correct	congruent	0.35156	no	T	T
1034.8125	n/a	264912	responseSmallT	correct	n/a	0.35156	no	n/a	n/a
1035.886719	n/a	265187	largeHSmallT	correct	incongruent	0.625	no	H	T
1036.511719	n/a	265347	responseSmallT	correct	n/a	0.625	no	n/a	n/a
1037.578125	n/a	265620	largeTSmallH	correct	incongruent	0.42578	no	T	H
1038.003906	n/a	265729	responseSmallH	correct	n/a	0.42578	no	n/a	n/a
1039.085938	n/a	266006	largeTSmallT	error	congruent	0.42578	no	T	T
1039.511719	n/a	266115	responseSmallH	error	n/a	0.42578	no	n/a	n/a
1040.578125	n/a	266388	largeHSmallH	correct	congruent	1.0508	no	H	H
1041.628906	n/a	266657	responseSmallH	correct	n/a	1.0508	no	n/a	n/a
1042.699219	n/a	266931	largeTSmallT	correct	congruent	0.49609	no	T	T
1043.195312	n/a	267058	responseSmallT	correct	n/a	0.49609	no	n/a	n/a
1044.257812	n/a	267330	largeHSmallT	correct	incongruent	0.5625	no	H	T
1044.820312	n/a	267474	responseSmallT	correct	n/a	0.5625	no	n/a	n/a
1045.898438	n/a	267750	largeHSmallH	correct	congruent	0.50781	no	H	H
1046.40625	n/a	267880	responseSmallH	correct	n/a	0.50781	no	n/a	n/a
1047.472656	n/a	268153	largeTSmallH	correct	incongruent	0.6875	no	T	H
1048.160156	n/a	268329	responseSmallH	correct	n/a	0.6875	no	n/a	n/a
1049.234375	n/a	268604	largeTSmallT	correct	congruent	0.56641	no	T	T
1049.800781	n/a	268749	responseSmallT	correct	n/a	0.56641	no	n/a	n/a
1050.871094	n/a	269023	largeTSmallT	correct	congruent	0.67969	no	T	T
1051.550781	n/a	269197	responseSmallT	correct	n/a	0.67969	no	n/a	n/a
1052.617188	n/a	269470	largeHSmallH	correct	congruent	0.55469	no	H	H
1053.171875	n/a	269612	responseSmallH	correct	n/a	0.55469	no	n/a	n/a
1054.246094	n/a	269887	largeTSmallH	correct	incongruent	0.55469	no	T	H
1054.800781	n/a	270029	responseSmallH	correct	n/a	0.55469	no	n/a	n/a
1055.871094	n/a	270303	largeHSmallH	correct	congruent	0.55469	no	H	H
1056.425781	n/a	270445	responseSmallH	correct	n/a	0.55469	no	n/a	n/a
1057.484375	n/a	270716	largeTSmallT	correct	congruent	0.52344	no	T	T
1058.007812	n/a	270850	responseSmallT	correct	n/a	0.52344	no	n/a	n/a
1059.085938	n/a	271126	largeTSmallT	correct	congruent	0.4375	no	T	T
1059.523438	n/a	271238	responseSmallT	correct	n/a	0.4375	no	n/a	n/a
1060.59375	n/a	271512	largeHSmallT	correct	incongruent	0.45703	no	H	T
1061.050781	n/a	271629	responseSmallT	correct	n/a	0.45703	no	n/a	n/a
1062.125	n/a	271904	largeTSmallH	correct	incongruent	0.55859	no	T	H
1062.683594	n/a	272047	responseSmallH	correct	n/a	0.55859	no	n/a	n/a
1063.765625	n/a	272324	largeHSmallT	correct	incongruent	0.5625	no	H	T
1064.328125	n/a	272468	responseSmallT	correct	n/a	0.5625	no	n/a	n/a
1065.40625	n/a	272744	largeTSmallT	correct	congruent	0.51562	no	T	T
1065.921875	n/a	272876	responseSmallT	correct	n/a	0.51562	no	n/a	n/a
1066.992188	n/a	273150	largeHSmallT	correct	incongruent	0.52344	no	H	T
1067.515625	n/a	273284	responseSmallT	correct	n/a	0.52344	no	n/a	n/a
1068.578125	n/a	273556	largeTSmallT	correct	congruent	0.49219	no	T	T
1069.070312	n/a	273682	responseSmallT	correct	n/a	0.49219	no	n/a	n/a
1070.136719	n/a	273955	largeTSmallT	correct	congruent	0.44922	no	T	T
1070.585938	n/a	274070	responseSmallT	correct	n/a	0.44922	no	n/a	n/a
1071.660156	n/a	274345	largeHSmallT	correct	incongruent	0.58594	no	H	T
1072.246094	n/a	274495	responseSmallT	correct	n/a	0.58594	no	n/a	n/a
1073.324219	n/a	274771	largeTSmallH	correct	incongruent	0.57812	no	T	H
1073.902344	n/a	274919	responseSmallH	correct	n/a	0.57812	no	n/a	n/a
1074.976562	n/a	275194	largeTSmallT	correct	congruent	0.47266	no	T	T
1075.449219	n/a	275315	responseSmallT	correct	n/a	0.47266	no	n/a	n/a
1076.523438	n/a	275590	largeTSmallH	correct	incongruent	0.52344	no	T	H
1077.046875	n/a	275724	responseSmallH	correct	n/a	0.52344	no	n/a	n/a
1078.125	n/a	276000	largeTSmallH	correct	incongruent	0.65625	no	T	H
1078.78125	n/a	276168	responseSmallH	correct	n/a	0.65625	no	n/a	n/a
1079.859375	n/a	276444	largeHSmallT	correct	incongruent	0.49609	no	H	T
1080.355469	n/a	276571	responseSmallT	correct	n/a	0.49609	no	n/a	n/a
1081.417969	n/a	276843	largeTSmallH	correct	incongruent	0.875	no	T	H
1082.292969	n/a	277067	responseSmallH	correct	n/a	0.875	no	n/a	n/a
1083.363281	n/a	277341	largeHSmallH	correct	congruent	0.49219	no	H	H
1083.855469	n/a	277467	responseSmallH	correct	n/a	0.49219	no	n/a	n/a
1084.925781	n/a	277741	largeTSmallH	correct	incongruent	0.49219	no	T	H
1085.417969	n/a	277867	responseSmallH	correct	n/a	0.49219	no	n/a	n/a
1086.484375	n/a	278140	largeTSmallH	correct	incongruent	0.86328	no	T	H
1087.347656	n/a	278361	responseSmallH	correct	n/a	0.86328	no	n/a	n/a
1088.417969	n/a	278635	largeTSmallT	correct	congruent	0.64844	no	T	T
1089.066406	n/a	278801	responseSmallT	correct	n/a	0.64844	no	n/a	n/a
1090.136719	n/a	279075	largeHSmallT	correct	incongruent	0.41016	no	H	T
1090.546875	n/a	279180	responseSmallT	correct	n/a	0.41016	no	n/a	n/a
1091.617188	n/a	279454	largeHSmallT	error	incongruent	0.39453	no	H	T
1092.011719	n/a	279555	responseSmallH	error	n/a	0.39453	no	n/a	n/a
1093.085938	n/a	279830	largeTSmallT	correct	congruent	0.5625	no	T	T
1093.648438	n/a	279974	responseSmallT	correct	n/a	0.5625	no	n/a	n/a
1094.710938	n/a	280246	largeTSmallH	correct	incongruent	0.51562	no	T	H
1095.226562	n/a	280378	responseSmallH	correct	n/a	0.51562	no	n/a	n/a
1096.296875	n/a	280652	largeTSmallH	correct	incongruent	0.44531	no	T	H
1096.742188	n/a	280766	responseSmallH	correct	n/a	0.44531	no	n/a	n/a
1097.816406	n/a	281041	largeHSmallT	correct	incongruent	0.60547	no	H	T
1098.421875	n/a	281196	responseSmallT	correct	n/a	0.60547	no	n/a	n/a
1099.496094	n/a	281471	largeTSmallT	error	congruent	0.45703	no	T	T
1099.953125	n/a	281588	responseSmallH	error	n/a	0.45703	no	n/a	n/a
1101.03125	n/a	281864	largeTSmallT	correct	congruent	0.60156	no	T	T
1101.632812	n/a	282018	responseSmallT	correct	n/a	0.60156	no	n/a	n/a
1102.699219	n/a	282291	largeHSmallH	correct	congruent	0.57422	no	H	H
1103.273438	n/a	282438	responseSmallH	correct	n/a	0.57422	no	n/a	n/a
1104.351562	n/a	282714	largeHSmallT	correct	incongruent	0.65234	no	H	T
1105.003906	n/a	282881	responseSmallT	correct	n/a	0.65234	no	n/a	n/a
1106.085938	n/a	283158	largeHSmallT	correct	incongruent	0.52344	no	H	T
1106.609375	n/a	283292	responseSmallT	correct	n/a	0.52344	no	n/a	n/a
1107.671875	n/a	283564	largeHSmallT	correct	incongruent	0.41016	no	H	T
1108.082031	n/a	283669	responseSmallT	correct	n/a	0.41016	no	n/a	n/a
1109.152344	n/a	283943	largeHSmallT	correct	incongruent	0.46484	no	H	T
1109.617188	n/a	284062	responseSmallT	correct	n/a	0.46484	no	n/a	n/a
1110.683594	n/a	284335	largeTSmallH	correct	incongruent	0.4375	no	T	H
1111.121094	n/a	284447	responseSmallH	correct	n/a	0.4375	no	n/a	n/a
1112.203125	n/a	284724	largeTSmallH	correct	incongruent	0.37891	no	T	H
1112.582031	n/a	284821	responseSmallH	correct	n/a	0.37891	no	n/a	n/a
1113.644531	n/a	285093	largeTSmallH	correct	incongruent	0.44141	no	T	H
1114.085938	n/a	285206	responseSmallH	correct	n/a	0.44141	no	n/a	n/a
1115.164062	n/a	285482	largeHSmallH	correct	congruent	0.47656	no	H	H
1115.640625	n/a	285604	responseSmallH	correct	n/a	0.47656	no	n/a	n/a
1116.710938	n/a	285878	largeTSmallT	correct	congruent	0.48828	no	T	T
1117.199219	n/a	286003	responseSmallT	correct	n/a	0.48828	no	n/a	n/a
1118.269531	n/a	286277	largeTSmallH	correct	incongruent	0.52344	no	T	H
1118.792969	n/a	286411	responseSmallH	correct	n/a	0.52344	no	n/a	n/a
1119.855469	n/a	286683	largeTSmallH	correct	incongruent	0.60938	no	T	H
1120.464844	n/a	286839	responseSmallH	correct	n/a	0.60938	no	n/a	n/a
1121.523438	n/a	287110	largeHSmallH	correct	congruent	0.49219	no	H	H
1122.015625	n/a	287236	responseSmallH	correct	n/a	0.49219	no	n/a	n/a
1123.082031	n/a	287509	largeTSmallH	correct	incongruent	0.51172	no	T	H
1123.59375	n/a	287640	responseSmallH	correct	n/a	0.51172	no	n/a	n/a
1124.65625	n/a	287912	largeTSmallH	correct	incongruent	0.61328	no	T	H
1125.269531	n/a	288069	responseSmallH	correct	n/a	0.61328	no	n/a	n/a
1126.351562	n/a	288346	largeTSmallT	error	congruent	0.52344	no	T	T
1126.875	n/a	288480	responseSmallH	error	n/a	0.52344	no	n/a	n/a
1127.949219	n/a	288755	largeHSmallH	correct	congruent	0.64062	no	H	H
1128.589844	n/a	288919	responseSmallH	correct	n/a	0.64062	no	n/a	n/a
1129.65625	n/a	289192	largeTSmallH	correct	incongruent	1.0156	no	T	H
1130.671875	n/a	289452	responseSmallH	correct	n/a	1.0156	no	n/a	n/a
1131.75	n/a	289728	largeTSmallT	correct	congruent	0.54297	no	T	T
1132.292969	n/a	289867	responseSmallT	correct	n/a	0.54297	no	n/a	n/a
1133.363281	n/a	290141	largeTSmallH	correct	incongruent	0.5625	no	T	H
1133.925781	n/a	290285	responseSmallH	correct	n/a	0.5625	no	n/a	n/a
1135.003906	n/a	290561	largeHSmallT	correct	incongruent	0.39844	no	H	T
1135.402344	n/a	290663	responseSmallT	correct	n/a	0.39844	no	n/a	n/a
1136.46875	n/a	290936	largeHSmallT	correct	incongruent	0.58594	no	H	T
1137.054688	n/a	291086	responseSmallT	correct	n/a	0.58594	no	n/a	n/a
1138.125	n/a	291360	largeHSmallH	correct	congruent	0.44141	no	H	H
1138.566406	n/a	291473	responseSmallH	correct	n/a	0.44141	no	n/a	n/a
1139.644531	n/a	291749	largeTSmallH	correct	incongruent	0.61328	no	T	H
1140.257812	n/a	291906	responseSmallH	correct	n/a	0.61328	no	n/a	n/a
1141.324219	n/a	292179	largeHSmallT	correct	incongruent	0.66016	no	H	T
1141.984375	n/a	292348	responseSmallT	correct	n/a	0.66016	no	n/a	n/a
1143.058594	n/a	292623	largeHSmallH	correct	congruent	0.42969	no	H	H
1143.488281	n/a	292733	responseSmallH	correct	n/a	0.42969	no	n/a	n/a
1144.550781	n/a	293005	largeTSmallT	correct	congruent	0.59375	no	T	T
1145.144531	n/a	293157	responseSmallT	correct	n/a	0.59375	no	n/a	n/a
1146.214844	n/a	293431	largeTSmallT	correct	congruent	0.53516	no	T	T
1146.75	n/a	293568	responseSmallT	correct	n/a	0.53516	no	n/a	n/a
1147.816406	n/a	293841	largeHSmallT	correct	incongruent	0.53906	no	H	T
1148.355469	n/a	293979	responseSmallT	correct	n/a	0.53906	no	n/a	n/a
1149.417969	n/a	294251	largeTSmallT	correct	congruent	0.41797	no	T	T
1149.835938	n/a	294358	responseSmallT	correct	n/a	0.41797	no	n/a	n/a
1150.898438	n/a	294630	largeTSmallT	correct	congruent	0.42578	no	T	T
1151.324219	n/a	294739	responseSmallT	correct	n/a	0.42578	no	n/a	n/a
1152.402344	n/a	295015	largeHSmallH	correct	congruent	0.65234	no	H	H
1153.054688	n/a	295182	responseSmallH	correct	n/a	0.65234	no	n/a	n/a
1154.136719	n/a	295459	largeHSmallT	correct	incongruent	0.61719	no	H	T
1154.753906	n/a	295617	responseSmallT	correct	n/a	0.61719	no	n/a	n/a
1155.828125	n/a	295892	largeHSmallT	correct	incongruent	0.65234	no	H	T
1156.480469	n/a	296059	responseSmallT	correct	n/a	0.65234	no	n/a	n/a
1157.550781	n/a	296333	largeHSmallT	correct	incongruent	0.53906	no	H	T
1158.089844	n/a	296471	responseSmallT	correct	n/a	0.53906	no	n/a	n/a
1159.148438	n/a	296742	largeTSmallH	correct	incongruent	0.53125	no	T	H
1159.679688	n/a	296878	responseSmallH	correct	n/a	0.53125	no	n/a	n/a
1160.75	n/a	297152	largeTSmallT	correct	congruent	0.59375	no	T	T
1161.34375	n/a	297304	responseSmallT	correct	n/a	0.59375	no	n/a	n/a
1162.417969	n/a	297579	largeHSmallH	correct	congruent	0.42578	no	H	H
1162.84375	n/a	297688	responseSmallH	correct	n/a	0.42578	no	n/a	n/a
1163.910156	n/a	297961	largeTSmallT	correct	congruent	0.42578	no	T	T
1164.335938	n/a	298070	responseSmallT	correct	n/a	0.42578	no	n/a	n/a
1165.402344	n/a	298343	largeTSmallT	correct	congruent	0.66406	no	T	T
1166.066406	n/a	298513	responseSmallT	correct	n/a	0.66406	no	n/a	n/a
1167.136719	n/a	298787	largeHSmallH	correct	congruent	0.66797	no	H	H
1167.804688	n/a	298958	responseSmallH	correct	n/a	0.66797	no	n/a	n/a
1168.871094	n/a	299231	largeTSmallH	correct	incongruent	0.60547	no	T	H
1169.476562	n/a	299386	responseSmallH	correct	n/a	0.60547	no	n/a	n/a
1170.550781	n/a	299661	largeHSmallT	correct	incongruent	0.57422	no	H	T
1171.125	n/a	299808	responseSmallT	correct	n/a	0.57422	no	n/a	n/a
1172.191406	n/a	300081	largeTSmallH	correct	incongruent	0.55859	no	T	H
1172.75	n/a	300224	responseSmallH	correct	n/a	0.55859	no	n/a	n/a
1173.816406	n/a	300497	largeTSmallH	correct	incongruent	0.64844	no	T	H
1174.464844	n/a	300663	responseSmallH	correct	n/a	0.64844	no	n/a	n/a
1175.535156	n/a	300937	largeTSmallT	correct	congruent	0.65234	no	T	T
1176.1875	n/a	301104	responseSmallT	correct	n/a	0.65234	no	n/a	n/a
1177.257812	n/a	301378	largeHSmallH	correct	congruent	0.53125	no	H	H
1177.789062	n/a	301514	responseSmallH	correct	n/a	0.53125	no	n/a	n/a
1178.855469	n/a	301787	largeHSmallH	correct	congruent	0.49219	no	H	H
1179.347656	n/a	301913	responseSmallH	correct	n/a	0.49219	no	n/a	n/a
1180.414062	n/a	302186	largeHSmallH	correct	congruent	0.54688	no	H	H
1180.960938	n/a	302326	responseSmallH	correct	n/a	0.54688	no	n/a	n/a
1182.027344	n/a	302599	largeTSmallH	correct	incongruent	0.48438	no	T	H
1182.511719	n/a	302723	responseSmallH	correct	n/a	0.48438	no	n/a	n/a
1183.589844	n/a	302999	largeHSmallH	correct	congruent	0.42578	no	H	H
1184.015625	n/a	303108	responseSmallH	correct	n/a	0.42578	no	n/a	n/a
1185.082031	n/a	303381	largeTSmallH	correct	incongruent	0.55859	no	T	H
1185.640625	n/a	303524	responseSmallH	correct	n/a	0.55859	no	n/a	n/a
1186.707031	n/a	303797	largeTSmallH	correct	incongruent	0.5	no	T	H
1187.207031	n/a	303925	responseSmallH	correct	n/a	0.5	no	n/a	n/a
1188.285156	n/a	304201	largeHSmallH	correct	congruent	0.42578	no	H	H
1188.710938	n/a	304310	responseSmallH	correct	n/a	0.42578	no	n/a	n/a
1189.773438	n/a	304582	largeTSmallT	correct	congruent	0.59766	no	T	T
1190.371094	n/a	304735	responseSmallT	correct	n/a	0.59766	no	n/a	n/a
1191.441406	n/a	305009	largeTSmallH	correct	incongruent	0.57031	no	T	H
1192.011719	n/a	305155	responseSmallH	correct	n/a	0.57031	no	n/a	n/a
1193.082031	n/a	305429	largeTSmallH	correct	incongruent	0.62891	no	T	H
1193.710938	n/a	305590	responseSmallH	correct	n/a	0.62891	no	n/a	n/a
1194.789062	n/a	305866	largeHSmallH	correct	congruent	0.56641	no	H	H
1195.355469	n/a	306011	responseSmallH	correct	n/a	0.56641	no	n/a	n/a
1196.429688	n/a	306286	largeTSmallT	correct	congruent	0.61328	no	T	T
1197.042969	n/a	306443	responseSmallT	correct	n/a	0.61328	no	n/a	n/a
1198.121094	n/a	306719	largeHSmallH	correct	congruent	0.57812	no	H	H
1198.699219	n/a	306867	responseSmallH	correct	n/a	0.57812	no	n/a	n/a
1199.773438	n/a	307142	largeHSmallT	correct	incongruent	0.51172	no	H	T
1200.285156	n/a	307273	responseSmallT	correct	n/a	0.51172	no	n/a	n/a
1201.347656	n/a	307545	largeHSmallH	correct	congruent	0.53125	no	H	H
1201.878906	n/a	307681	responseSmallH	correct	n/a	0.53125	no	n/a	n/a
1202.960938	n/a	307958	largeHSmallH	correct	congruent	0.5	no	H	H
1203.460938	n/a	308086	responseSmallH	correct	n/a	0.5	no	n/a	n/a
1204.535156	n/a	308361	largeHSmallH	correct	congruent	0.58203	no	H	H
1205.117188	n/a	308510	responseSmallH	correct	n/a	0.58203	no	n/a	n/a
1206.1875	n/a	308784	largeTSmallT	correct	congruent	0.47266	no	T	T
1206.660156	n/a	308905	responseSmallT	correct	n/a	0.47266	no	n/a	n/a
1207.734375	n/a	309180	largeTSmallT	correct	congruent	0.49219	no	T	T
1208.226562	n/a	309306	responseSmallT	correct	n/a	0.49219	no	n/a	n/a
1209.292969	n/a	309579	largeTSmallT	correct	congruent	0.11719	yes	T	T
1209.410156	n/a	309609	responseSmallT	correct	n/a	0.11719	yes	n/a	n/a
1210.480469	n/a	309883	largeTSmallH	correct	incongruent	0.51172	no	T	H
1210.992188	n/a	310014	responseSmallH	correct	n/a	0.51172	no	n/a	n/a
