onset	duration	sample	value	stimulus	response_type	response_time
29.75	n/a	7616	C	nontarget	n/a	n/a
31.4140625	n/a	8042	A	nontarget	n/a	n/a
32.98828125	n/a	8445	B	nontarget	n/a	n/a
34.55859375	n/a	8847	B	target	hit	621.0938
35.1796875	n/a	9006	rt	n/a	hit	621.0938
36.1328125	n/a	9250	A	nontarget	n/a	n/a
37.703125	n/a	9652	C	nontarget	n/a	n/a
39.2890625	n/a	10058	B	nontarget	n/a	n/a
40.86328125	n/a	10461	B	target	hit	492.1875
41.35546875	n/a	10587	rt	n/a	hit	492.1875
42.43359375	n/a	10863	D	nontarget	n/a	n/a
44.01171875	n/a	11267	C	nontarget	n/a	n/a
45.58203125	n/a	11669	D	nontarget	n/a	n/a
47.15625	n/a	12072	C	nontarget	false_alarm	718.75
47.875	n/a	12256	rt	n/a	false_alarm	718.75
48.7265625	n/a	12474	D	nontarget	n/a	n/a
50.3046875	n/a	12878	B	nontarget	n/a	n/a
51.875	n/a	13280	C	nontarget	n/a	n/a
53.44921875	n/a	13683	D	nontarget	n/a	n/a
55.0234375	n/a	14086	B	nontarget	n/a	n/a
56.59375	n/a	14488	D	nontarget	n/a	n/a
58.16796875	n/a	14891	C	nontarget	n/a	n/a
59.75390625	n/a	15297	D	nontarget	n/a	n/a
61.33203125	n/a	15701	D	target	hit	894.5312
62.2265625	n/a	15930	rt	n/a	hit	894.5312
62.90234375	n/a	16103	D	target	hit	769.5312
63.671875	n/a	16300	rt	n/a	hit	769.5312
64.4765625	n/a	16506	B	nontarget	n/a	n/a
66.046875	n/a	16908	A	nontarget	n/a	n/a
67.63671875	n/a	17315	D	nontarget	n/a	n/a
69.20703125	n/a	17717	D	target	hit	804.6875
70.01171875	n/a	17923	rt	n/a	hit	804.6875
70.78515625	n/a	18121	C	nontarget	n/a	n/a
72.35546875	n/a	18523	D	nontarget	n/a	n/a
73.92578125	n/a	18925	B	nontarget	n/a	n/a
75.50390625	n/a	19329	B	target	hit	570.3125
76.07421875	n/a	19475	rt	n/a	hit	570.3125
77.0859375	n/a	19734	B	target	hit	722.6562
77.80859375	n/a	19919	rt	n/a	hit	722.6562
78.6640625	n/a	20138	B	target	hit	468.75
79.1328125	n/a	20258	rt	n/a	hit	468.75
80.23828125	n/a	20541	A	nontarget	n/a	n/a
81.80859375	n/a	20943	B	nontarget	n/a	n/a
83.37890625	n/a	21345	A	nontarget	n/a	n/a
84.95703125	n/a	21749	A	target	hit	742.1875
85.69921875	n/a	21939	rt	n/a	hit	742.1875
86.52734375	n/a	22151	A	target	hit	625
87.15234375	n/a	22311	rt	n/a	hit	625
88.08984375	n/a	22551	A	target	hit	449.2188
88.5390625	n/a	22666	rt	n/a	hit	449.2188
89.66015625	n/a	22953	B	nontarget	n/a	n/a
91.23828125	n/a	23357	A	nontarget	n/a	n/a
92.80859375	n/a	23759	C	nontarget	n/a	n/a
94.3828125	n/a	24162	C	target	hit	500
94.8828125	n/a	24290	rt	n/a	hit	500
95.95703125	n/a	24565	D	nontarget	n/a	n/a
97.52734375	n/a	24967	D	target	hit	664.0625
98.19140625	n/a	25137	rt	n/a	hit	664.0625
99.11328125	n/a	25373	B	nontarget	n/a	n/a
100.6914062	n/a	25777	D	nontarget	n/a	n/a
102.2617188	n/a	26179	D	target	hit	570.3125
102.8320312	n/a	26325	rt	n/a	hit	570.3125
103.8359375	n/a	26582	B	nontarget	n/a	n/a
105.40625	n/a	26984	B	target	hit	500
105.90625	n/a	27112	rt	n/a	hit	500
106.9804688	n/a	27387	D	nontarget	n/a	n/a
108.5664062	n/a	27793	A	nontarget	n/a	n/a
110.140625	n/a	28196	A	target	hit	613.2812
110.7539062	n/a	28353	rt	n/a	hit	613.2812
111.71875	n/a	28600	C	nontarget	n/a	n/a
113.2851562	n/a	29001	D	nontarget	n/a	n/a
114.8632812	n/a	29405	A	nontarget	n/a	n/a
116.4453125	n/a	29810	C	nontarget	n/a	n/a
118.0234375	n/a	30214	A	nontarget	n/a	n/a
119.5976562	n/a	30617	A	target	hit	476.5625
120.0742188	n/a	30739	rt	n/a	hit	476.5625
121.1679688	n/a	31019	B	nontarget	n/a	n/a
122.7421875	n/a	31422	B	target	hit	707.0312
123.4492188	n/a	31603	rt	n/a	hit	707.0312
124.3164062	n/a	31825	D	nontarget	n/a	n/a
125.8984375	n/a	32230	D	target	hit	714.8438
126.6132812	n/a	32413	rt	n/a	hit	714.8438
127.4726562	n/a	32633	D	target	hit	535.1562
128.0078125	n/a	32770	rt	n/a	hit	535.1562
129.046875	n/a	33036	A	nontarget	n/a	n/a
130.6210938	n/a	33439	D	nontarget	n/a	n/a
132.1953125	n/a	33842	D	target	hit	578.125
132.7734375	n/a	33990	rt	n/a	hit	578.125
133.765625	n/a	34244	C	nontarget	n/a	n/a
135.3515625	n/a	34650	D	nontarget	n/a	n/a
136.9257812	n/a	35053	B	nontarget	n/a	n/a
138.5	n/a	35456	B	target	hit	648.4375
139.1484375	n/a	35622	rt	n/a	hit	648.4375
140.0742188	n/a	35859	B	target	hit	589.8438
140.6640625	n/a	36010	rt	n/a	hit	589.8438
141.6445312	n/a	36261	D	nontarget	n/a	n/a
143.2226562	n/a	36665	B	nontarget	n/a	n/a
144.8046875	n/a	37070	D	nontarget	n/a	n/a
146.3789062	n/a	37473	B	nontarget	n/a	n/a
147.9570312	n/a	37877	C	nontarget	n/a	n/a
149.5273438	n/a	38279	D	nontarget	n/a	n/a
151.1015625	n/a	38682	D	target	hit	531.25
151.6328125	n/a	38818	rt	n/a	hit	531.25
152.6757812	n/a	39085	D	target	hit	542.9688
153.21875	n/a	39224	rt	n/a	hit	542.9688
154.234375	n/a	39484	D	target	hit	457.0312
154.6914062	n/a	39601	rt	n/a	hit	457.0312
155.8203125	n/a	39890	B	nontarget	n/a	n/a
157.3945312	n/a	40293	B	target	hit	839.8438
158.234375	n/a	40508	rt	n/a	hit	839.8438
158.9648438	n/a	40695	D	nontarget	n/a	n/a
160.5390625	n/a	41098	D	target	hit	640.625
161.1796875	n/a	41262	rt	n/a	hit	640.625
162.1171875	n/a	41502	A	nontarget	n/a	n/a
163.6875	n/a	41904	D	nontarget	n/a	n/a
165.25	n/a	42304	A	nontarget	n/a	n/a
166.8320312	n/a	42709	D	nontarget	n/a	n/a
168.40625	n/a	43112	B	nontarget	n/a	n/a
169.9804688	n/a	43515	C	nontarget	n/a	n/a
171.5546875	n/a	43918	C	target	hit	667.9688
172.2226562	n/a	44089	rt	n/a	hit	667.9688
173.125	n/a	44320	B	nontarget	n/a	n/a
174.7109375	n/a	44726	C	nontarget	n/a	n/a
176.2890625	n/a	45130	B	nontarget	n/a	n/a
177.859375	n/a	45532	A	nontarget	n/a	n/a
179.4335938	n/a	45935	C	nontarget	n/a	n/a
181.0039062	n/a	46337	C	target	hit	730.4688
181.734375	n/a	46524	rt	n/a	hit	730.4688
182.578125	n/a	46740	A	nontarget	n/a	n/a
184.1640625	n/a	47146	A	target	hit	542.9688
184.7070312	n/a	47285	rt	n/a	hit	542.9688
185.7382812	n/a	47549	D	nontarget	n/a	n/a
187.3125	n/a	47952	B	nontarget	n/a	n/a
188.8867188	n/a	48355	B	target	hit	679.6875
189.5664062	n/a	48529	rt	n/a	hit	679.6875
190.4609375	n/a	48758	D	nontarget	n/a	n/a
192.0351562	n/a	49161	B	nontarget	n/a	n/a
193.6171875	n/a	49566	B	target	hit	652.3438
194.2695312	n/a	49733	rt	n/a	hit	652.3438
195.1953125	n/a	49970	D	nontarget	n/a	n/a
196.765625	n/a	50372	A	nontarget	n/a	n/a
198.3398438	n/a	50775	A	target	hit	617.1875
198.9570312	n/a	50933	rt	n/a	hit	617.1875
199.9140625	n/a	51178	B	nontarget	n/a	n/a
201.484375	n/a	51580	B	target	hit	597.6562
202.0820312	n/a	51733	rt	n/a	hit	597.6562
203.0585938	n/a	51983	A	nontarget	n/a	n/a
204.6328125	n/a	52386	C	nontarget	n/a	n/a
206.203125	n/a	52788	D	nontarget	n/a	n/a
207.78125	n/a	53192	B	nontarget	n/a	n/a
209.3554688	n/a	53595	D	nontarget	n/a	n/a
210.9257812	n/a	53997	A	nontarget	n/a	n/a
212.5	n/a	54400	D	nontarget	n/a	n/a
214.0585938	n/a	54799	A	nontarget	n/a	n/a
215.6445312	n/a	55205	D	nontarget	n/a	n/a
217.21875	n/a	55608	B	nontarget	n/a	n/a
218.7929688	n/a	56011	C	nontarget	n/a	n/a
220.3632812	n/a	56413	A	nontarget	n/a	n/a
221.9375	n/a	56816	B	nontarget	n/a	n/a
223.5234375	n/a	57222	D	nontarget	n/a	n/a
225.0976562	n/a	57625	B	nontarget	n/a	n/a
226.6757812	n/a	58029	B	target	hit	632.8125
227.3085938	n/a	58191	rt	n/a	hit	632.8125
228.2460938	n/a	58431	B	target	hit	660.1562
228.90625	n/a	58600	rt	n/a	hit	660.1562
229.8203125	n/a	58834	C	nontarget	n/a	n/a
231.3945312	n/a	59237	A	nontarget	n/a	n/a
232.9765625	n/a	59642	B	nontarget	n/a	n/a
234.5546875	n/a	60046	B	target	hit	542.9688
235.0976562	n/a	60185	rt	n/a	hit	542.9688
236.125	n/a	60448	A	nontarget	n/a	n/a
237.6992188	n/a	60851	A	target	hit	500
238.1992188	n/a	60979	rt	n/a	hit	500
239.2734375	n/a	61254	D	nontarget	n/a	n/a
240.84375	n/a	61656	A	nontarget	n/a	n/a
242.40625	n/a	62056	C	nontarget	n/a	n/a
243.9921875	n/a	62462	A	nontarget	n/a	n/a
245.5625	n/a	62864	A	target	hit	515.625
246.078125	n/a	62996	rt	n/a	hit	515.625
247.140625	n/a	63268	D	nontarget	n/a	n/a
248.7148438	n/a	63671	B	nontarget	n/a	n/a
250.2851562	n/a	64073	C	nontarget	n/a	n/a
251.859375	n/a	64476	B	nontarget	n/a	n/a
253.4179688	n/a	64875	B	target	hit	527.3438
253.9453125	n/a	65010	rt	n/a	hit	527.3438
254.9921875	n/a	65278	C	nontarget	n/a	n/a
256.5625	n/a	65680	D	nontarget	n/a	n/a
258.140625	n/a	66084	A	nontarget	n/a	n/a
259.7148438	n/a	66487	C	nontarget	n/a	n/a
261.2851562	n/a	66889	C	target	hit	664.0625
261.9492188	n/a	67059	rt	n/a	hit	664.0625
262.859375	n/a	67292	A	nontarget	n/a	n/a
264.4453125	n/a	67698	D	nontarget	n/a	n/a
266.0195312	n/a	68101	C	nontarget	n/a	n/a
267.5898438	n/a	68503	C	target	hit	531.25
268.1210938	n/a	68639	rt	n/a	hit	531.25
269.1640625	n/a	68906	D	nontarget	n/a	n/a
270.7382812	n/a	69309	C	nontarget	n/a	n/a
272.3242188	n/a	69715	B	nontarget	n/a	n/a
273.8984375	n/a	70118	B	target	hit	695.3125
274.59375	n/a	70296	rt	n/a	hit	695.3125
275.4726562	n/a	70521	D	nontarget	n/a	n/a
277.0429688	n/a	70923	D	target	hit	769.5312
277.8125	n/a	71120	rt	n/a	hit	769.5312
278.6171875	n/a	71326	D	target	hit	707.0312
279.3242188	n/a	71507	rt	n/a	hit	707.0312
280.1914062	n/a	71729	C	nontarget	n/a	n/a
281.765625	n/a	72132	A	nontarget	n/a	n/a
283.3242188	n/a	72531	B	nontarget	n/a	n/a
284.9101562	n/a	72937	A	nontarget	n/a	n/a
286.484375	n/a	73340	C	nontarget	n/a	n/a
288.0546875	n/a	73742	B	nontarget	n/a	n/a
289.6328125	n/a	74146	A	nontarget	n/a	n/a
291.203125	n/a	74548	A	target	hit	593.75
291.796875	n/a	74700	rt	n/a	hit	593.75
292.7617188	n/a	74947	B	nontarget	n/a	n/a
294.3398438	n/a	75351	A	nontarget	n/a	n/a
295.921875	n/a	75756	A	target	hit	515.625
296.4375	n/a	75888	rt	n/a	hit	515.625
297.4960938	n/a	76159	A	target	hit	582.0312
298.078125	n/a	76308	rt	n/a	hit	582.0312
299.0742188	n/a	76563	A	target	hit	488.2812
299.5625	n/a	76688	rt	n/a	hit	488.2812
300.6445312	n/a	76965	A	target	hit	417.9688
301.0625	n/a	77072	rt	n/a	hit	417.9688
302.21875	n/a	77368	C	nontarget	n/a	n/a
303.7929688	n/a	77771	A	nontarget	n/a	n/a
305.3515625	n/a	78170	C	nontarget	n/a	n/a
306.9375	n/a	78576	D	nontarget	n/a	n/a
308.5117188	n/a	78979	B	nontarget	n/a	n/a
310.0820312	n/a	79381	B	target	hit	539.0625
310.6210938	n/a	79519	rt	n/a	hit	539.0625
311.65625	n/a	79784	D	nontarget	n/a	n/a
313.2304688	n/a	80187	B	nontarget	n/a	n/a
314.8164062	n/a	80593	D	nontarget	n/a	n/a
316.390625	n/a	80996	C	nontarget	n/a	n/a
317.9609375	n/a	81398	D	nontarget	n/a	n/a
319.5351562	n/a	81801	D	target	hit	535.1562
320.0703125	n/a	81938	rt	n/a	hit	535.1562
321.109375	n/a	82204	C	nontarget	n/a	n/a
322.6953125	n/a	82610	A	nontarget	n/a	n/a
324.2734375	n/a	83014	C	nontarget	n/a	n/a
325.84375	n/a	83416	B	nontarget	n/a	n/a
327.4179688	n/a	83819	B	target	hit	593.75
328.0117188	n/a	83971	rt	n/a	hit	593.75
328.9882812	n/a	84221	C	nontarget	n/a	n/a
330.5625	n/a	84624	B	nontarget	n/a	n/a
332.1367188	n/a	85027	A	nontarget	n/a	n/a
333.7226562	n/a	85433	C	nontarget	n/a	n/a
335.296875	n/a	85836	A	nontarget	n/a	n/a
336.8710938	n/a	86239	B	nontarget	n/a	n/a
338.4414062	n/a	86641	B	target	hit	648.4375
339.0898438	n/a	86807	rt	n/a	hit	648.4375
340.015625	n/a	87044	D	nontarget	n/a	n/a
341.6015625	n/a	87450	A	nontarget	n/a	n/a
343.1757812	n/a	87853	C	nontarget	n/a	n/a
344.75	n/a	88256	D	nontarget	n/a	n/a
346.3203125	n/a	88658	A	nontarget	n/a	n/a
347.8984375	n/a	89062	C	nontarget	n/a	n/a
349.46875	n/a	89464	C	target	hit	742.1875
350.2109375	n/a	89654	rt	n/a	hit	742.1875
351.0546875	n/a	89870	D	nontarget	n/a	n/a
352.6328125	n/a	90274	B	nontarget	n/a	n/a
354.203125	n/a	90676	B	target	hit	656.25
354.859375	n/a	90844	rt	n/a	hit	656.25
355.7773438	n/a	91079	D	nontarget	n/a	n/a
357.3515625	n/a	91482	B	nontarget	n/a	n/a
358.9335938	n/a	91887	B	target	hit	480.4688
359.4140625	n/a	92010	rt	n/a	hit	480.4688
360.5117188	n/a	92291	C	nontarget	n/a	n/a
362.0820312	n/a	92693	A	nontarget	n/a	n/a
363.65625	n/a	93096	C	nontarget	n/a	n/a
365.2304688	n/a	93499	C	target	hit	757.8125
365.9882812	n/a	93693	rt	n/a	hit	757.8125
366.8007812	n/a	93901	A	nontarget	n/a	n/a
368.375	n/a	94304	B	nontarget	n/a	n/a
369.953125	n/a	94708	B	target	hit	804.6875
370.7578125	n/a	94914	rt	n/a	hit	804.6875
371.5195312	n/a	95109	D	nontarget	n/a	n/a
373.0976562	n/a	95513	D	target	hit	652.3438
373.75	n/a	95680	rt	n/a	hit	652.3438
374.671875	n/a	95916	D	target	hit	558.5938
375.2304688	n/a	96059	rt	n/a	hit	558.5938
376.2421875	n/a	96318	D	target	hit	449.2188
376.6914062	n/a	96433	rt	n/a	hit	449.2188
377.8164062	n/a	96721	A	nontarget	n/a	n/a
379.4023438	n/a	97127	B	nontarget	n/a	n/a
380.9765625	n/a	97530	C	nontarget	n/a	n/a
382.5507812	n/a	97933	C	target	hit	542.9688
383.09375	n/a	98072	rt	n/a	hit	542.9688
384.1210938	n/a	98335	C	target	hit	613.2812
384.734375	n/a	98492	rt	n/a	hit	613.2812
385.6953125	n/a	98738	D	nontarget	n/a	n/a
387.2695312	n/a	99141	C	nontarget	n/a	n/a
388.8554688	n/a	99547	B	nontarget	n/a	n/a
390.4296875	n/a	99950	A	nontarget	n/a	n/a
392	n/a	100352	A	target	hit	558.5938
392.5585938	n/a	100495	rt	n/a	hit	558.5938
393.5742188	n/a	100755	A	target	hit	539.0625
394.1132812	n/a	100893	rt	n/a	hit	539.0625
395.1484375	n/a	101158	B	nontarget	n/a	n/a
396.71875	n/a	101560	C	nontarget	n/a	n/a
398.28125	n/a	101960	B	nontarget	n/a	n/a
399.8671875	n/a	102366	A	nontarget	n/a	n/a
401.4414062	n/a	102769	B	nontarget	n/a	n/a
403.0117188	n/a	103171	A	nontarget	n/a	n/a
404.5859375	n/a	103574	D	nontarget	n/a	n/a
406.1601562	n/a	103977	A	nontarget	n/a	n/a
407.734375	n/a	104380	B	nontarget	n/a	n/a
409.3203125	n/a	104786	C	nontarget	n/a	n/a
410.8945312	n/a	105189	D	nontarget	n/a	n/a
412.46875	n/a	105592	C	nontarget	n/a	n/a
414.0390625	n/a	105994	D	nontarget	n/a	n/a
415.6132812	n/a	106397	D	target	hit	496.0938
416.109375	n/a	106524	rt	n/a	hit	496.0938
417.1875	n/a	106800	B	nontarget	n/a	n/a
418.7734375	n/a	107206	B	target	hit	554.6875
419.328125	n/a	107348	rt	n/a	hit	554.6875
420.3476562	n/a	107609	B	target	hit	601.5625
420.9492188	n/a	107763	rt	n/a	hit	601.5625
421.9179688	n/a	108011	C	nontarget	n/a	n/a
423.4960938	n/a	108415	C	target	hit	695.3125
424.1914062	n/a	108593	rt	n/a	hit	695.3125
425.0703125	n/a	108818	B	nontarget	n/a	n/a
426.6523438	n/a	109223	D	nontarget	n/a	n/a
428.2265625	n/a	109626	A	nontarget	n/a	n/a
429.8007812	n/a	110029	C	nontarget	n/a	n/a
431.375	n/a	110432	C	target	hit	464.8438
431.8398438	n/a	110551	rt	n/a	hit	464.8438
432.9492188	n/a	110835	C	target	hit	562.5
433.5117188	n/a	110979	rt	n/a	hit	562.5
434.5195312	n/a	111237	D	nontarget	n/a	n/a
436.0820312	n/a	111637	A	nontarget	n/a	n/a
437.6640625	n/a	112042	A	target	hit	683.5938
438.3476562	n/a	112217	rt	n/a	hit	683.5938
439.2421875	n/a	112446	B	nontarget	n/a	n/a
440.8125	n/a	112848	B	target	hit	625
441.4375	n/a	113008	rt	n/a	hit	625
442.3867188	n/a	113251	D	nontarget	n/a	n/a
443.9609375	n/a	113654	A	nontarget	n/a	n/a
445.546875	n/a	114060	B	nontarget	n/a	n/a
447.1210938	n/a	114463	C	nontarget	n/a	n/a
448.6914062	n/a	114865	D	nontarget	n/a	n/a
450.2695312	n/a	115269	A	nontarget	n/a	n/a
451.8398438	n/a	115671	C	nontarget	n/a	n/a
453.4140625	n/a	116074	D	nontarget	n/a	n/a
455	n/a	116480	B	nontarget	n/a	n/a
456.5742188	n/a	116883	B	target	hit	523.4375
457.0976562	n/a	117017	rt	n/a	hit	523.4375
458.1484375	n/a	117286	D	nontarget	n/a	n/a
459.71875	n/a	117688	A	nontarget	n/a	n/a
461.2929688	n/a	118091	A	target	hit	750
462.0429688	n/a	118283	rt	n/a	hit	750
462.8671875	n/a	118494	D	nontarget	n/a	n/a
464.453125	n/a	118900	C	nontarget	n/a	n/a
466.0273438	n/a	119303	C	target	hit	527.3438
466.5546875	n/a	119438	rt	n/a	hit	527.3438
467.5976562	n/a	119705	B	nontarget	n/a	n/a
469.171875	n/a	120108	D	nontarget	n/a	n/a
