onset	duration	sample	value	response_type	congruence	response_time	response_out_of_range	largeletter	smallletter
12.13378906	n/a	3106.25	largeTSmallH	correct	incongruent	1.8267	yes	T	H
13.96044922	n/a	3573.875	responseLargeT	correct	n/a	1.8267	yes	n/a	n/a
15.0390625	n/a	3850	largeTSmallH	error	incongruent	0.49072	no	T	H
15.52978516	n/a	3975.625	responseLargeH	error	n/a	0.49072	no	n/a	n/a
16.59912109	n/a	4249.375	largeHSmallT	correct	incongruent	0.7002	no	H	T
17.29931641	n/a	4428.625	responseLargeH	correct	n/a	0.7002	no	n/a	n/a
18.37255859	n/a	4703.375	largeTSmallH	correct	incongruent	0.67041	no	T	H
19.04296875	n/a	4875	responseLargeT	correct	n/a	0.67041	no	n/a	n/a
20.11914062	n/a	5150.5	largeHSmallT	correct	incongruent	0.63428	no	H	T
20.75341797	n/a	5312.875	responseLargeH	correct	n/a	0.63428	no	n/a	n/a
21.8125	n/a	5584	largeTSmallT	correct	congruent	0.47607	no	T	T
22.28857422	n/a	5705.875	responseLargeT	correct	n/a	0.47607	no	n/a	n/a
23.37255859	n/a	5983.375	largeTSmallH	correct	incongruent	0.48242	no	T	H
23.85498047	n/a	6106.875	responseLargeT	correct	n/a	0.48242	no	n/a	n/a
24.91894531	n/a	6379.25	largeHSmallH	correct	congruent	0.50732	no	H	H
25.42626953	n/a	6509.125	responseLargeH	correct	n/a	0.50732	no	n/a	n/a
26.50537109	n/a	6785.375	largeHSmallT	correct	incongruent	0.73242	no	H	T
27.23779297	n/a	6972.875	responseLargeH	correct	n/a	0.73242	no	n/a	n/a
28.30566406	n/a	7246.25	largeTSmallT	correct	congruent	0.51172	no	T	T
28.81738281	n/a	7377.25	responseLargeT	correct	n/a	0.51172	no	n/a	n/a
29.87890625	n/a	7649	largeHSmallH	correct	congruent	0.48438	no	H	H
30.36328125	n/a	7773	responseLargeH	correct	n/a	0.48438	no	n/a	n/a
31.42529297	n/a	8044.875	largeHSmallT	correct	incongruent	0.521	no	H	T
31.94628906	n/a	8178.25	responseLargeH	correct	n/a	0.521	no	n/a	n/a
33.02539062	n/a	8454.5	largeHSmallT	correct	incongruent	0.43555	no	H	T
33.4609375	n/a	8566	responseLargeH	correct	n/a	0.43555	no	n/a	n/a
34.53125	n/a	8840	largeTSmallH	correct	incongruent	0.52881	no	T	H
35.06005859	n/a	8975.375	responseLargeT	correct	n/a	0.52881	no	n/a	n/a
36.11914062	n/a	9246.5	largeTSmallH	error	incongruent	0.45508	no	T	H
36.57421875	n/a	9363	responseLargeH	error	n/a	0.45508	no	n/a	n/a
37.63867188	n/a	9635.5	largeHSmallH	correct	congruent	0.50146	no	H	H
38.14013672	n/a	9763.875	responseLargeH	correct	n/a	0.50146	no	n/a	n/a
39.21191406	n/a	10038.25	largeTSmallT	correct	congruent	0.46582	no	T	T
39.67773438	n/a	10157.5	responseLargeT	correct	n/a	0.46582	no	n/a	n/a
40.74511719	n/a	10430.75	largeTSmallT	correct	congruent	0.46533	no	T	T
41.21044922	n/a	10549.875	responseLargeT	correct	n/a	0.46533	no	n/a	n/a
42.29199219	n/a	10826.75	largeTSmallH	correct	incongruent	0.44727	no	T	H
42.73925781	n/a	10941.25	responseLargeT	correct	n/a	0.44727	no	n/a	n/a
43.81201172	n/a	11215.875	largeTSmallH	correct	incongruent	0.91992	no	T	H
44.73193359	n/a	11451.375	responseLargeT	correct	n/a	0.91992	no	n/a	n/a
45.79882812	n/a	11724.5	largeTSmallT	correct	congruent	0.45215	no	T	T
46.25097656	n/a	11840.25	responseLargeT	correct	n/a	0.45215	no	n/a	n/a
47.33203125	n/a	12117	largeHSmallH	correct	congruent	0.4668	no	H	H
47.79882812	n/a	12236.5	responseLargeH	correct	n/a	0.4668	no	n/a	n/a
48.86523438	n/a	12509.5	largeTSmallT	correct	congruent	0.58984	no	T	T
49.45507812	n/a	12660.5	responseLargeT	correct	n/a	0.58984	no	n/a	n/a
50.51855469	n/a	12932.75	largeHSmallH	correct	congruent	0.50635	no	H	H
51.02490234	n/a	13062.375	responseLargeH	correct	n/a	0.50635	no	n/a	n/a
52.10498047	n/a	13338.875	largeHSmallH	correct	congruent	0.7124	no	H	H
52.81738281	n/a	13521.25	responseLargeH	correct	n/a	0.7124	no	n/a	n/a
53.89160156	n/a	13796.25	largeHSmallT	correct	incongruent	0.56445	no	H	T
54.45605469	n/a	13940.75	responseLargeH	correct	n/a	0.56445	no	n/a	n/a
55.53125	n/a	14216	largeHSmallH	correct	congruent	0.44336	no	H	H
55.97460938	n/a	14329.5	responseLargeH	correct	n/a	0.44336	no	n/a	n/a
57.05175781	n/a	14605.25	largeHSmallT	correct	incongruent	0.4126	no	H	T
57.46435547	n/a	14710.875	responseLargeH	correct	n/a	0.4126	no	n/a	n/a
58.54492188	n/a	14987.5	largeHSmallT	correct	incongruent	0.41748	no	H	T
58.96240234	n/a	15094.375	responseLargeH	correct	n/a	0.41748	no	n/a	n/a
60.03808594	n/a	15369.75	largeTSmallT	correct	congruent	0.51514	no	T	T
60.55322266	n/a	15501.625	responseLargeT	correct	n/a	0.51514	no	n/a	n/a
61.625	n/a	15776	largeTSmallT	correct	congruent	0.56543	no	T	T
62.19042969	n/a	15920.75	responseLargeT	correct	n/a	0.56543	no	n/a	n/a
63.26464844	n/a	16195.75	largeHSmallH	correct	congruent	0.5376	no	H	H
63.80224609	n/a	16333.375	responseLargeH	correct	n/a	0.5376	no	n/a	n/a
64.87792969	n/a	16608.75	largeTSmallT	correct	congruent	0.39258	no	T	T
65.27050781	n/a	16709.25	responseLargeT	correct	n/a	0.39258	no	n/a	n/a
66.34472656	n/a	16984.25	largeHSmallT	correct	incongruent	0.52441	no	H	T
66.86914062	n/a	17118.5	responseLargeH	correct	n/a	0.52441	no	n/a	n/a
67.93115234	n/a	17390.375	largeHSmallH	correct	congruent	0.50684	no	H	H
68.43798828	n/a	17520.125	responseLargeH	correct	n/a	0.50684	no	n/a	n/a
69.50488281	n/a	17793.25	largeHSmallT	correct	incongruent	0.4082	no	H	T
69.91308594	n/a	17897.75	responseLargeH	correct	n/a	0.4082	no	n/a	n/a
70.98486328	n/a	18172.125	largeHSmallT	correct	incongruent	0.47412	no	H	T
71.45898438	n/a	18293.5	responseLargeH	correct	n/a	0.47412	no	n/a	n/a
72.53125	n/a	18568	largeTSmallH	correct	incongruent	0.53662	no	T	H
73.06787109	n/a	18705.375	responseLargeT	correct	n/a	0.53662	no	n/a	n/a
74.14453125	n/a	18981	largeTSmallT	error	congruent	0.32129	no	T	T
74.46582031	n/a	19063.25	responseLargeH	error	n/a	0.32129	no	n/a	n/a
75.53125	n/a	19336	largeTSmallH	correct	incongruent	0.50732	no	T	H
76.03857422	n/a	19465.875	responseLargeT	correct	n/a	0.50732	no	n/a	n/a
77.10449219	n/a	19738.75	largeTSmallH	correct	incongruent	0.46338	no	T	H
77.56787109	n/a	19857.375	responseLargeT	correct	n/a	0.46338	no	n/a	n/a
78.63769531	n/a	20131.25	largeTSmallT	correct	congruent	0.4126	no	T	T
79.05029297	n/a	20236.875	responseLargeT	correct	n/a	0.4126	no	n/a	n/a
80.11767578	n/a	20510.125	largeTSmallH	correct	incongruent	0.41113	no	T	H
80.52880859	n/a	20615.375	responseLargeT	correct	n/a	0.41113	no	n/a	n/a
81.59765625	n/a	20889	largeTSmallT	correct	congruent	0.5127	no	T	T
82.11035156	n/a	21020.25	responseLargeT	correct	n/a	0.5127	no	n/a	n/a
83.17089844	n/a	21291.75	largeTSmallH	correct	incongruent	0.42432	no	T	H
83.59521484	n/a	21400.375	responseLargeT	correct	n/a	0.42432	no	n/a	n/a
84.67724609	n/a	21677.375	largeTSmallT	correct	congruent	0.37598	no	T	T
85.05322266	n/a	21773.625	responseLargeT	correct	n/a	0.37598	no	n/a	n/a
86.11767578	n/a	22046.125	largeTSmallT	correct	congruent	0.40283	no	T	T
86.52050781	n/a	22149.25	responseLargeT	correct	n/a	0.40283	no	n/a	n/a
87.59765625	n/a	22425	largeHSmallH	correct	congruent	0.54883	no	H	H
88.14648438	n/a	22565.5	responseLargeH	correct	n/a	0.54883	no	n/a	n/a
89.2109375	n/a	22838	largeTSmallH	correct	incongruent	0.56641	no	T	H
89.77734375	n/a	22983	responseLargeT	correct	n/a	0.56641	no	n/a	n/a
90.85058594	n/a	23257.75	largeTSmallT	correct	congruent	0.65088	no	T	T
91.50146484	n/a	23424.375	responseLargeT	correct	n/a	0.65088	no	n/a	n/a
92.57080078	n/a	23698.125	largeTSmallH	correct	incongruent	0.45801	no	T	H
93.02880859	n/a	23815.375	responseLargeT	correct	n/a	0.45801	no	n/a	n/a
94.09082031	n/a	24087.25	largeHSmallT	error	incongruent	0.43555	no	H	T
94.52636719	n/a	24198.75	responseLargeT	error	n/a	0.43555	no	n/a	n/a
95.59716797	n/a	24472.875	largeHSmallT	correct	incongruent	0.64697	no	H	T
96.24414062	n/a	24638.5	responseLargeH	correct	n/a	0.64697	no	n/a	n/a
97.30371094	n/a	24909.75	largeTSmallH	correct	incongruent	0.51611	no	T	H
97.81982422	n/a	25041.875	responseLargeT	correct	n/a	0.51611	no	n/a	n/a
98.890625	n/a	25316	largeHSmallH	correct	congruent	0.56641	no	H	H
99.45703125	n/a	25461	responseLargeH	correct	n/a	0.56641	no	n/a	n/a
100.5170898	n/a	25732.375	largeHSmallH	error	congruent	0.32373	no	H	H
100.8408203	n/a	25815.25	responseLargeT	error	n/a	0.32373	no	n/a	n/a
101.9169922	n/a	26090.75	largeTSmallH	correct	incongruent	0.53662	no	T	H
102.4536133	n/a	26228.125	responseLargeT	correct	n/a	0.53662	no	n/a	n/a
103.5537109	n/a	26509.75	largeTSmallT	correct	congruent	0.47412	no	T	T
104.027832	n/a	26631.125	responseLargeT	correct	n/a	0.47412	no	n/a	n/a
105.090332	n/a	26903.125	largeTSmallT	correct	congruent	0.46191	no	T	T
105.5522461	n/a	27021.375	responseLargeT	correct	n/a	0.46191	no	n/a	n/a
106.6235352	n/a	27295.625	largeHSmallH	correct	congruent	0.5542	no	H	H
107.1777344	n/a	27437.5	responseLargeH	correct	n/a	0.5542	no	n/a	n/a
108.2504883	n/a	27712.125	largeHSmallT	correct	incongruent	0.43555	no	H	T
108.6860352	n/a	27823.625	responseLargeH	correct	n/a	0.43555	no	n/a	n/a
109.7568359	n/a	28097.75	largeHSmallH	correct	congruent	0.50439	no	H	H
110.2612305	n/a	28226.875	responseLargeH	correct	n/a	0.50439	no	n/a	n/a
111.3305664	n/a	28500.625	largeHSmallT	correct	incongruent	0.40674	no	H	T
111.7373047	n/a	28604.75	responseLargeH	correct	n/a	0.40674	no	n/a	n/a
112.8100586	n/a	28879.375	largeHSmallH	correct	congruent	0.36182	no	H	H
113.171875	n/a	28972	responseLargeH	correct	n/a	0.36182	no	n/a	n/a
114.25	n/a	29248	largeTSmallH	correct	incongruent	0.56689	no	T	H
114.8168945	n/a	29393.125	responseLargeT	correct	n/a	0.56689	no	n/a	n/a
115.8901367	n/a	29667.875	largeTSmallT	correct	congruent	0.44531	no	T	T
116.3354492	n/a	29781.875	responseLargeT	correct	n/a	0.44531	no	n/a	n/a
117.3964844	n/a	30053.5	largeTSmallT	correct	congruent	0.49805	no	T	T
117.8945312	n/a	30181	responseLargeT	correct	n/a	0.49805	no	n/a	n/a
118.956543	n/a	30452.875	largeHSmallT	correct	incongruent	0.47998	no	H	T
119.4365234	n/a	30575.75	responseLargeH	correct	n/a	0.47998	no	n/a	n/a
120.503418	n/a	30848.875	largeHSmallH	correct	congruent	0.45508	no	H	H
120.9584961	n/a	30965.375	responseLargeH	correct	n/a	0.45508	no	n/a	n/a
122.0366211	n/a	31241.375	largeTSmallT	correct	congruent	0.53516	no	T	T
122.5717773	n/a	31378.375	responseLargeT	correct	n/a	0.53516	no	n/a	n/a
123.6367188	n/a	31651	largeTSmallH	correct	incongruent	0.4082	no	T	H
124.0449219	n/a	31755.5	responseLargeT	correct	n/a	0.4082	no	n/a	n/a
125.1298828	n/a	32033.25	largeTSmallH	correct	incongruent	0.45801	no	T	H
125.5878906	n/a	32150.5	responseLargeT	correct	n/a	0.45801	no	n/a	n/a
126.6499023	n/a	32422.375	largeHSmallT	correct	incongruent	0.67529	no	H	T
127.3251953	n/a	32595.25	responseLargeH	correct	n/a	0.67529	no	n/a	n/a
128.5161133	n/a	32900.125	largeHSmallH	correct	congruent	0.51416	no	H	H
129.0302734	n/a	33031.75	responseLargeH	correct	n/a	0.51416	no	n/a	n/a
130.1030273	n/a	33306.375	largeTSmallH	correct	incongruent	0.50439	no	T	H
130.6074219	n/a	33435.5	responseLargeT	correct	n/a	0.50439	no	n/a	n/a
131.6762695	n/a	33709.125	largeHSmallH	correct	congruent	0.396	no	H	H
132.0722656	n/a	33810.5	responseLargeH	correct	n/a	0.396	no	n/a	n/a
133.1430664	n/a	34084.625	largeHSmallT	correct	incongruent	0.4707	no	H	T
133.6137695	n/a	34205.125	responseLargeH	correct	n/a	0.4707	no	n/a	n/a
134.6894531	n/a	34480.5	largeHSmallH	correct	congruent	0.4248	no	H	H
135.1142578	n/a	34589.25	responseLargeH	correct	n/a	0.4248	no	n/a	n/a
136.1826172	n/a	34862.75	largeTSmallT	correct	congruent	0.52148	no	T	T
136.7041016	n/a	34996.25	responseLargeT	correct	n/a	0.52148	no	n/a	n/a
137.7695312	n/a	35269	largeTSmallH	correct	incongruent	0.44922	no	T	H
138.21875	n/a	35384	responseLargeT	correct	n/a	0.44922	no	n/a	n/a
139.2895508	n/a	35658.125	largeHSmallT	correct	incongruent	0.52002	no	H	T
139.8095703	n/a	35791.25	responseLargeH	correct	n/a	0.52002	no	n/a	n/a
140.8759766	n/a	36064.25	largeHSmallH	correct	congruent	0.42822	no	H	H
141.3041992	n/a	36173.875	responseLargeH	correct	n/a	0.42822	no	n/a	n/a
142.3823242	n/a	36449.875	largeHSmallT	correct	incongruent	0.6709	no	H	T
143.0532227	n/a	36621.625	responseLargeH	correct	n/a	0.6709	no	n/a	n/a
144.1293945	n/a	36897.125	largeTSmallH	correct	incongruent	0.46191	no	T	H
144.5913086	n/a	37015.375	responseLargeT	correct	n/a	0.46191	no	n/a	n/a
145.6625977	n/a	37289.625	largeHSmallH	correct	congruent	0.45898	no	H	H
146.121582	n/a	37407.125	responseLargeH	correct	n/a	0.45898	no	n/a	n/a
147.1958008	n/a	37682.125	largeHSmallH	correct	congruent	0.47266	no	H	H
147.668457	n/a	37803.125	responseLargeH	correct	n/a	0.47266	no	n/a	n/a
148.7426758	n/a	38078.125	largeHSmallH	correct	congruent	0.37109	no	H	H
149.1137695	n/a	38173.125	responseLargeH	correct	n/a	0.37109	no	n/a	n/a
150.1826172	n/a	38446.75	largeHSmallT	correct	incongruent	0.38135	no	H	T
150.5639648	n/a	38544.375	responseLargeH	correct	n/a	0.38135	no	n/a	n/a
151.6225586	n/a	38815.375	largeHSmallT	correct	incongruent	0.36963	no	H	T
151.9921875	n/a	38910	responseLargeH	correct	n/a	0.36963	no	n/a	n/a
153.0625	n/a	39184	largeTSmallT	correct	congruent	0.5459	no	T	T
153.6083984	n/a	39323.75	responseLargeT	correct	n/a	0.5459	no	n/a	n/a
154.6889648	n/a	39600.375	largeHSmallT	correct	incongruent	0.40967	no	H	T
155.0986328	n/a	39705.25	responseLargeH	correct	n/a	0.40967	no	n/a	n/a
156.1689453	n/a	39979.25	largeTSmallT	correct	congruent	0.37939	no	T	T
156.5483398	n/a	40076.375	responseLargeT	correct	n/a	0.37939	no	n/a	n/a
157.6225586	n/a	40351.375	largeHSmallH	correct	congruent	0.30713	no	H	H
157.9296875	n/a	40430	responseLargeH	correct	n/a	0.30713	no	n/a	n/a
159.0087891	n/a	40706.25	largeHSmallT	error	incongruent	0.33643	no	H	T
159.3452148	n/a	40792.375	responseLargeT	error	n/a	0.33643	no	n/a	n/a
160.4086914	n/a	41064.625	largeTSmallH	correct	incongruent	0.62451	no	T	H
161.0332031	n/a	41224.5	responseLargeT	correct	n/a	0.62451	no	n/a	n/a
162.1157227	n/a	41501.625	largeHSmallH	correct	congruent	0.3833	no	H	H
162.4990234	n/a	41599.75	responseLargeH	correct	n/a	0.3833	no	n/a	n/a
163.5825195	n/a	41877.125	largeTSmallT	correct	congruent	0.39258	no	T	T
163.9750977	n/a	41977.625	responseLargeT	correct	n/a	0.39258	no	n/a	n/a
165.0488281	n/a	42252.5	largeTSmallH	correct	incongruent	0.69727	no	T	H
165.7460938	n/a	42431	responseLargeT	correct	n/a	0.69727	no	n/a	n/a
166.8222656	n/a	42706.5	largeTSmallH	correct	incongruent	0.53174	no	T	H
167.3540039	n/a	42842.625	responseLargeT	correct	n/a	0.53174	no	n/a	n/a
168.4355469	n/a	43119.5	largeTSmallH	correct	incongruent	0.50049	no	T	H
168.9360352	n/a	43247.625	responseLargeT	correct	n/a	0.50049	no	n/a	n/a
170.0087891	n/a	43522.25	largeTSmallH	correct	incongruent	0.46191	no	T	H
170.4707031	n/a	43640.5	responseLargeT	correct	n/a	0.46191	no	n/a	n/a
171.5424805	n/a	43914.875	largeHSmallT	correct	incongruent	0.67236	no	H	T
172.2148438	n/a	44087	responseLargeH	correct	n/a	0.67236	no	n/a	n/a
173.2753906	n/a	44358.5	largeTSmallH	correct	incongruent	0.4458	no	T	H
173.7211914	n/a	44472.625	responseLargeT	correct	n/a	0.4458	no	n/a	n/a
174.7954102	n/a	44747.625	largeTSmallH	correct	incongruent	0.79248	no	T	H
175.5878906	n/a	44950.5	responseLargeT	correct	n/a	0.79248	no	n/a	n/a
176.6621094	n/a	45225.5	largeHSmallH	correct	congruent	0.51172	no	H	H
177.1738281	n/a	45356.5	responseLargeH	correct	n/a	0.51172	no	n/a	n/a
178.2353516	n/a	45628.25	largeHSmallT	correct	incongruent	0.46143	no	H	T
178.6967773	n/a	45746.375	responseLargeH	correct	n/a	0.46143	no	n/a	n/a
179.7685547	n/a	46020.75	largeHSmallT	correct	incongruent	0.50391	no	H	T
180.2724609	n/a	46149.75	responseLargeH	correct	n/a	0.50391	no	n/a	n/a
181.3417969	n/a	46423.5	largeHSmallH	correct	congruent	0.49707	no	H	H
181.8388672	n/a	46550.75	responseLargeH	correct	n/a	0.49707	no	n/a	n/a
182.9018555	n/a	46822.875	largeHSmallH	correct	congruent	0.3374	no	H	H
183.2392578	n/a	46909.25	responseLargeH	correct	n/a	0.3374	no	n/a	n/a
184.3149414	n/a	47184.625	largeTSmallT	correct	congruent	0.52881	no	T	T
184.84375	n/a	47320	responseLargeT	correct	n/a	0.52881	no	n/a	n/a
185.9150391	n/a	47594.25	largeHSmallH	correct	congruent	0.38428	no	H	H
186.2993164	n/a	47692.625	responseLargeH	correct	n/a	0.38428	no	n/a	n/a
187.5180664	n/a	48004.625	largeTSmallT	correct	congruent	0.37646	no	T	T
187.8945312	n/a	48101	responseLargeT	correct	n/a	0.37646	no	n/a	n/a
188.9550781	n/a	48372.5	largeTSmallT	correct	congruent	0.48242	no	T	T
189.4375	n/a	48496	responseLargeT	correct	n/a	0.48242	no	n/a	n/a
190.5014648	n/a	48768.375	largeHSmallT	correct	incongruent	0.48291	no	H	T
190.984375	n/a	48892	responseLargeH	correct	n/a	0.48291	no	n/a	n/a
192.0483398	n/a	49164.375	largeHSmallT	correct	incongruent	0.53125	no	H	T
192.5795898	n/a	49300.375	responseLargeH	correct	n/a	0.53125	no	n/a	n/a
193.6616211	n/a	49577.375	largeHSmallH	correct	congruent	0.46338	no	H	H
194.125	n/a	49696	responseLargeH	correct	n/a	0.46338	no	n/a	n/a
195.1948242	n/a	49969.875	largeHSmallH	correct	congruent	0.40576	no	H	H
195.6005859	n/a	50073.75	responseLargeH	correct	n/a	0.40576	no	n/a	n/a
196.6616211	n/a	50345.375	largeTSmallH	correct	incongruent	0.58496	no	T	H
197.246582	n/a	50495.125	responseLargeT	correct	n/a	0.58496	no	n/a	n/a
198.3144531	n/a	50768.5	largeTSmallT	correct	congruent	0.41992	no	T	T
198.734375	n/a	50876	responseLargeT	correct	n/a	0.41992	no	n/a	n/a
199.7949219	n/a	51147.5	largeHSmallH	correct	congruent	0.51904	no	H	H
200.3139648	n/a	51280.375	responseLargeH	correct	n/a	0.51904	no	n/a	n/a
201.3945312	n/a	51557	largeTSmallH	correct	incongruent	0.5127	no	T	H
201.9072266	n/a	51688.25	responseLargeT	correct	n/a	0.5127	no	n/a	n/a
202.980957	n/a	51963.125	largeHSmallT	correct	incongruent	0.55957	no	H	T
203.5405273	n/a	52106.375	responseLargeH	correct	n/a	0.55957	no	n/a	n/a
204.6079102	n/a	52379.625	largeHSmallH	correct	congruent	0.60498	no	H	H
205.2128906	n/a	52534.5	responseLargeH	correct	n/a	0.60498	no	n/a	n/a
206.2875977	n/a	52809.625	largeHSmallH	correct	congruent	0.47852	no	H	H
206.7661133	n/a	52932.125	responseLargeH	correct	n/a	0.47852	no	n/a	n/a
207.8344727	n/a	53205.625	largeHSmallH	correct	congruent	0.43945	no	H	H
208.2739258	n/a	53318.125	responseLargeH	correct	n/a	0.43945	no	n/a	n/a
209.3544922	n/a	53594.75	largeHSmallT	correct	incongruent	0.36963	no	H	T
209.7241211	n/a	53689.375	responseLargeH	correct	n/a	0.36963	no	n/a	n/a
210.7944336	n/a	53963.375	largeTSmallT	correct	congruent	0.45654	no	T	T
211.2509766	n/a	54080.25	responseLargeT	correct	n/a	0.45654	no	n/a	n/a
212.3276367	n/a	54355.875	largeTSmallT	correct	congruent	0.50781	no	T	T
212.8354492	n/a	54485.875	responseLargeT	correct	n/a	0.50781	no	n/a	n/a
213.9008789	n/a	54758.625	largeHSmallT	correct	incongruent	0.48291	no	H	T
214.3837891	n/a	54882.25	responseLargeH	correct	n/a	0.48291	no	n/a	n/a
215.4477539	n/a	55154.625	largeTSmallH	correct	incongruent	0.40869	no	T	H
215.8564453	n/a	55259.25	responseLargeT	correct	n/a	0.40869	no	n/a	n/a
216.9277344	n/a	55533.5	largeTSmallT	correct	congruent	0.49512	no	T	T
217.4228516	n/a	55660.25	responseLargeT	correct	n/a	0.49512	no	n/a	n/a
218.487793	n/a	55932.875	largeTSmallH	correct	incongruent	0.52393	no	T	H
219.0117188	n/a	56067	responseLargeT	correct	n/a	0.52393	no	n/a	n/a
220.0742188	n/a	56339	largeTSmallT	correct	congruent	0.39746	no	T	T
220.4716797	n/a	56440.75	responseLargeT	correct	n/a	0.39746	no	n/a	n/a
221.5405273	n/a	56714.375	largeTSmallH	error	incongruent	0.45166	no	T	H
221.9921875	n/a	56830	responseLargeH	error	n/a	0.45166	no	n/a	n/a
223.0605469	n/a	57103.5	largeTSmallH	correct	incongruent	0.48877	no	T	H
223.5493164	n/a	57228.625	responseLargeT	correct	n/a	0.48877	no	n/a	n/a
224.6206055	n/a	57502.875	largeHSmallT	correct	incongruent	0.54883	no	H	T
225.1694336	n/a	57643.375	responseLargeH	correct	n/a	0.54883	no	n/a	n/a
226.2475586	n/a	57919.375	largeHSmallH	correct	congruent	0.48682	no	H	H
226.734375	n/a	58044	responseLargeH	correct	n/a	0.48682	no	n/a	n/a
227.8071289	n/a	58318.625	largeTSmallH	correct	incongruent	0.46338	no	T	H
228.2705078	n/a	58437.25	responseLargeT	correct	n/a	0.46338	no	n/a	n/a
229.3540039	n/a	58714.625	largeHSmallT	correct	incongruent	0.42969	no	H	T
229.7836914	n/a	58824.625	responseLargeH	correct	n/a	0.42969	no	n/a	n/a
230.8603516	n/a	59100.25	largeHSmallT	correct	incongruent	0.51807	no	H	T
231.378418	n/a	59232.875	responseLargeH	correct	n/a	0.51807	no	n/a	n/a
232.4472656	n/a	59506.5	largeTSmallH	correct	incongruent	0.51172	no	T	H
232.9589844	n/a	59637.5	responseLargeT	correct	n/a	0.51172	no	n/a	n/a
234.0205078	n/a	59909.25	largeHSmallT	correct	incongruent	0.41504	no	H	T
234.4355469	n/a	60015.5	responseLargeH	correct	n/a	0.41504	no	n/a	n/a
235.5141602	n/a	60291.625	largeHSmallH	correct	congruent	0.65137	no	H	H
236.1655273	n/a	60458.375	responseLargeH	correct	n/a	0.65137	no	n/a	n/a
237.2470703	n/a	60735.25	largeTSmallT	correct	congruent	0.4834	no	T	T
237.7304688	n/a	60859	responseLargeT	correct	n/a	0.4834	no	n/a	n/a
238.8071289	n/a	61134.625	largeTSmallH	correct	incongruent	0.63477	no	T	H
239.4418945	n/a	61297.125	responseLargeT	correct	n/a	0.63477	no	n/a	n/a
240.5136719	n/a	61571.5	largeHSmallH	correct	congruent	0.38135	no	H	H
240.8950195	n/a	61669.125	responseLargeH	correct	n/a	0.38135	no	n/a	n/a
241.9667969	n/a	61943.5	largeHSmallT	correct	incongruent	0.52002	no	H	T
242.4868164	n/a	62076.625	responseLargeH	correct	n/a	0.52002	no	n/a	n/a
243.5668945	n/a	62353.125	largeTSmallT	correct	congruent	0.35742	no	T	T
243.9243164	n/a	62444.625	responseLargeT	correct	n/a	0.35742	no	n/a	n/a
244.9936523	n/a	62718.375	largeHSmallT	correct	incongruent	0.50928	no	H	T
245.5029297	n/a	62848.75	responseLargeH	correct	n/a	0.50928	no	n/a	n/a
246.5668945	n/a	63121.125	largeHSmallH	correct	congruent	0.54834	no	H	H
247.1152344	n/a	63261.5	responseLargeH	correct	n/a	0.54834	no	n/a	n/a
248.1933594	n/a	63537.5	largeHSmallH	correct	congruent	0.44287	no	H	H
248.6362305	n/a	63650.875	responseLargeH	correct	n/a	0.44287	no	n/a	n/a
249.7133789	n/a	63926.625	largeHSmallT	correct	incongruent	0.38867	no	H	T
250.1020508	n/a	64026.125	responseLargeH	correct	n/a	0.38867	no	n/a	n/a
251.1665039	n/a	64298.625	largeHSmallH	correct	congruent	0.45361	no	H	H
251.6201172	n/a	64414.75	responseLargeH	correct	n/a	0.45361	no	n/a	n/a
252.6865234	n/a	64687.75	largeTSmallH	correct	incongruent	0.38477	no	T	H
253.0712891	n/a	64786.25	responseLargeT	correct	n/a	0.38477	no	n/a	n/a
254.1396484	n/a	65059.75	largeTSmallT	correct	congruent	0.63135	no	T	T
254.7709961	n/a	65221.375	responseLargeT	correct	n/a	0.63135	no	n/a	n/a
255.8330078	n/a	65493.25	largeTSmallH	correct	incongruent	0.46777	no	T	H
256.3007812	n/a	65613	responseLargeT	correct	n/a	0.46777	no	n/a	n/a
257.3666992	n/a	65885.875	largeHSmallT	correct	incongruent	0.43262	no	H	T
257.7993164	n/a	65996.625	responseLargeH	correct	n/a	0.43262	no	n/a	n/a
258.8598633	n/a	66268.125	largeHSmallT	error	incongruent	0.44141	no	H	T
259.3012695	n/a	66381.125	responseLargeT	error	n/a	0.44141	no	n/a	n/a
260.3798828	n/a	66657.25	largeTSmallH	correct	incongruent	0.51514	no	T	H
260.8950195	n/a	66789.125	responseLargeT	correct	n/a	0.51514	no	n/a	n/a
261.9663086	n/a	67063.375	largeHSmallT	correct	incongruent	0.40283	no	H	T
262.3691406	n/a	67166.5	responseLargeH	correct	n/a	0.40283	no	n/a	n/a
263.4331055	n/a	67438.875	largeHSmallH	correct	congruent	0.45508	no	H	H
263.8881836	n/a	67555.375	responseLargeH	correct	n/a	0.45508	no	n/a	n/a
264.9663086	n/a	67831.375	largeTSmallH	correct	incongruent	0.54053	no	T	H
265.5068359	n/a	67969.75	responseLargeT	correct	n/a	0.54053	no	n/a	n/a
266.5795898	n/a	68244.375	largeHSmallH	correct	congruent	0.37402	no	H	H
266.9536133	n/a	68340.125	responseLargeH	correct	n/a	0.37402	no	n/a	n/a
268.0195312	n/a	68613	largeTSmallT	correct	congruent	0.47559	no	T	T
268.4951172	n/a	68734.75	responseLargeT	correct	n/a	0.47559	no	n/a	n/a
269.5664062	n/a	69009	largeHSmallT	correct	incongruent	0.43457	no	H	T
270.0009766	n/a	69120.25	responseLargeH	correct	n/a	0.43457	no	n/a	n/a
271.0727539	n/a	69394.625	largeHSmallT	correct	incongruent	0.5498	no	H	T
271.6225586	n/a	69535.375	responseLargeH	correct	n/a	0.5498	no	n/a	n/a
272.699707	n/a	69811.125	largeTSmallT	error	congruent	0.29248	no	T	T
272.9921875	n/a	69886	responseLargeH	error	n/a	0.29248	no	n/a	n/a
274.0595703	n/a	70159.25	largeHSmallH	correct	congruent	0.56445	no	H	H
274.6240234	n/a	70303.75	responseLargeH	correct	n/a	0.56445	no	n/a	n/a
275.6992188	n/a	70579	largeHSmallT	correct	incongruent	0.50439	no	H	T
276.2036133	n/a	70708.125	responseLargeH	correct	n/a	0.50439	no	n/a	n/a
277.2724609	n/a	70981.75	largeHSmallH	correct	congruent	0.52148	no	H	H
277.7939453	n/a	71115.25	responseLargeH	correct	n/a	0.52148	no	n/a	n/a
278.859375	n/a	71388	largeTSmallT	correct	congruent	0.40771	no	T	T
279.2670898	n/a	71492.375	responseLargeT	correct	n/a	0.40771	no	n/a	n/a
280.3393555	n/a	71766.875	largeTSmallT	correct	congruent	0.4834	no	T	T
280.8227539	n/a	71890.625	responseLargeT	correct	n/a	0.4834	no	n/a	n/a
281.8857422	n/a	72162.75	largeHSmallH	correct	congruent	0.40723	no	H	H
282.2929688	n/a	72267	responseLargeH	correct	n/a	0.40723	no	n/a	n/a
283.3657227	n/a	72541.625	largeTSmallT	correct	congruent	0.57861	no	T	T
283.9443359	n/a	72689.75	responseLargeT	correct	n/a	0.57861	no	n/a	n/a
285.0058594	n/a	72961.5	largeTSmallT	correct	congruent	0.48047	no	T	T
285.4863281	n/a	73084.5	responseLargeT	correct	n/a	0.48047	no	n/a	n/a
286.5527344	n/a	73357.5	largeHSmallH	correct	congruent	0.43018	no	H	H
286.9829102	n/a	73467.625	responseLargeH	correct	n/a	0.43018	no	n/a	n/a
288.0458984	n/a	73739.75	largeHSmallT	correct	incongruent	0.54932	no	H	T
288.5952148	n/a	73880.375	responseLargeH	correct	n/a	0.54932	no	n/a	n/a
289.6723633	n/a	74156.125	largeTSmallH	correct	incongruent	0.44629	no	T	H
290.1186523	n/a	74270.375	responseLargeT	correct	n/a	0.44629	no	n/a	n/a
291.1923828	n/a	74545.25	largeHSmallT	correct	incongruent	0.38672	no	H	T
291.5791016	n/a	74644.25	responseLargeH	correct	n/a	0.38672	no	n/a	n/a
292.6591797	n/a	74920.75	largeTSmallT	correct	congruent	0.47314	no	T	T
293.1323242	n/a	75041.875	responseLargeT	correct	n/a	0.47314	no	n/a	n/a
294.1923828	n/a	75313.25	largeHSmallT	correct	incongruent	0.40869	no	H	T
294.6010742	n/a	75417.875	responseLargeH	correct	n/a	0.40869	no	n/a	n/a
295.6723633	n/a	75692.125	largeTSmallH	correct	incongruent	0.47412	no	T	H
296.1464844	n/a	75813.5	responseLargeT	correct	n/a	0.47412	no	n/a	n/a
297.21875	n/a	76088	largeTSmallT	correct	congruent	0.4751	no	T	T
297.6938477	n/a	76209.625	responseLargeT	correct	n/a	0.4751	no	n/a	n/a
298.7651367	n/a	76483.875	largeTSmallT	correct	congruent	0.50977	no	T	T
299.2749023	n/a	76614.375	responseLargeT	correct	n/a	0.50977	no	n/a	n/a
300.3388672	n/a	76886.75	largeTSmallT	correct	congruent	0.4375	no	T	T
300.7763672	n/a	76998.75	responseLargeT	correct	n/a	0.4375	no	n/a	n/a
301.8452148	n/a	77272.375	largeHSmallH	correct	congruent	0.44238	no	H	H
302.2875977	n/a	77385.625	responseLargeH	correct	n/a	0.44238	no	n/a	n/a
303.3520508	n/a	77658.125	largeHSmallT	error	incongruent	0.34863	no	H	T
303.7006836	n/a	77747.375	responseLargeT	error	n/a	0.34863	no	n/a	n/a
304.7788086	n/a	78023.375	largeTSmallT	correct	congruent	0.45752	no	T	T
305.2363281	n/a	78140.5	responseLargeT	correct	n/a	0.45752	no	n/a	n/a
306.2988281	n/a	78412.5	largeTSmallH	correct	incongruent	0.60791	no	T	H
306.9067383	n/a	78568.125	responseLargeT	correct	n/a	0.60791	no	n/a	n/a
307.9799805	n/a	78842.875	largeHSmallH	correct	congruent	0.5127	no	H	H
308.4926758	n/a	78974.125	responseLargeH	correct	n/a	0.5127	no	n/a	n/a
309.5654297	n/a	79248.75	largeTSmallH	correct	incongruent	0.50635	no	T	H
310.0717773	n/a	79378.375	responseLargeT	correct	n/a	0.50635	no	n/a	n/a
311.1386719	n/a	79651.5	largeTSmallT	correct	congruent	0.57178	no	T	T
311.7104492	n/a	79797.875	responseLargeT	correct	n/a	0.57178	no	n/a	n/a
312.7783203	n/a	80071.25	largeTSmallH	correct	incongruent	0.70654	no	T	H
313.4848633	n/a	80252.125	responseLargeT	correct	n/a	0.70654	no	n/a	n/a
314.5517578	n/a	80525.25	largeTSmallH	correct	incongruent	0.42041	no	T	H
314.972168	n/a	80632.875	responseLargeT	correct	n/a	0.42041	no	n/a	n/a
316.0317383	n/a	80904.125	largeTSmallH	correct	incongruent	0.45947	no	T	H
316.4912109	n/a	81021.75	responseLargeT	correct	n/a	0.45947	no	n/a	n/a
317.5649414	n/a	81296.625	largeHSmallT	correct	incongruent	0.47217	no	H	T
318.0371094	n/a	81417.5	responseLargeH	correct	n/a	0.47217	no	n/a	n/a
319.1118164	n/a	81692.625	largeTSmallT	correct	congruent	0.49756	no	T	T
319.609375	n/a	81820	responseLargeT	correct	n/a	0.49756	no	n/a	n/a
320.6845703	n/a	82095.25	largeHSmallH	correct	congruent	0.49512	no	H	H
321.1796875	n/a	82222	responseLargeH	correct	n/a	0.49512	no	n/a	n/a
322.2446289	n/a	82494.625	largeTSmallT	correct	congruent	0.46094	no	T	T
322.7055664	n/a	82612.625	responseLargeT	correct	n/a	0.46094	no	n/a	n/a
323.7783203	n/a	82887.25	largeTSmallT	error	congruent	0.47363	no	T	T
324.2519531	n/a	83008.5	responseLargeH	error	n/a	0.47363	no	n/a	n/a
331.777832	n/a	84935.125	largeHSmallH	correct	congruent	0.73438	no	H	H
332.512207	n/a	85123.125	responseSmallH	correct	n/a	0.73438	no	n/a	n/a
333.5913086	n/a	85399.375	largeTSmallT	correct	congruent	0.45654	no	T	T
334.0478516	n/a	85516.25	responseSmallT	correct	n/a	0.45654	no	n/a	n/a
335.1113281	n/a	85788.5	largeHSmallH	correct	congruent	0.41943	no	H	H
335.5307617	n/a	85895.875	responseSmallH	correct	n/a	0.41943	no	n/a	n/a
336.6044922	n/a	86170.75	largeHSmallH	correct	congruent	0.50293	no	H	H
337.1074219	n/a	86299.5	responseSmallH	correct	n/a	0.50293	no	n/a	n/a
338.1777344	n/a	86573.5	largeHSmallT	correct	incongruent	0.47705	no	H	T
338.6547852	n/a	86695.625	responseSmallT	correct	n/a	0.47705	no	n/a	n/a
339.737793	n/a	86972.875	largeTSmallH	correct	incongruent	0.40918	no	T	H
340.1469727	n/a	87077.625	responseSmallH	correct	n/a	0.40918	no	n/a	n/a
341.2177734	n/a	87351.75	largeTSmallH	correct	incongruent	0.44336	no	T	H
341.6611328	n/a	87465.25	responseSmallH	correct	n/a	0.44336	no	n/a	n/a
342.7241211	n/a	87737.375	largeTSmallT	error	congruent	0.42529	no	T	T
343.1494141	n/a	87846.25	responseSmallH	error	n/a	0.42529	no	n/a	n/a
344.230957	n/a	88123.125	largeTSmallH	correct	incongruent	0.44971	no	T	H
344.6806641	n/a	88238.25	responseSmallH	correct	n/a	0.44971	no	n/a	n/a
345.7509766	n/a	88512.25	largeTSmallH	correct	incongruent	0.38184	no	T	H
346.1328125	n/a	88610	responseSmallH	correct	n/a	0.38184	no	n/a	n/a
347.2041016	n/a	88884.25	largeTSmallT	correct	congruent	0.4375	no	T	T
347.6416016	n/a	88996.25	responseSmallT	correct	n/a	0.4375	no	n/a	n/a
348.7241211	n/a	89273.375	largeHSmallH	correct	congruent	0.46387	no	H	H
349.1879883	n/a	89392.125	responseSmallH	correct	n/a	0.46387	no	n/a	n/a
350.2709961	n/a	89669.375	largeTSmallT	correct	congruent	0.41357	no	T	T
350.6845703	n/a	89775.25	responseSmallT	correct	n/a	0.41357	no	n/a	n/a
351.7641602	n/a	90051.625	largeTSmallT	error	congruent	0.40869	no	T	T
352.1728516	n/a	90156.25	responseSmallH	error	n/a	0.40869	no	n/a	n/a
353.2441406	n/a	90430.5	largeTSmallH	correct	incongruent	0.44775	no	T	H
353.6918945	n/a	90545.125	responseSmallH	correct	n/a	0.44775	no	n/a	n/a
354.7504883	n/a	90816.125	largeHSmallH	correct	congruent	0.5459	no	H	H
355.2963867	n/a	90955.875	responseSmallH	correct	n/a	0.5459	no	n/a	n/a
356.3642578	n/a	91229.25	largeHSmallT	error	incongruent	0.49658	no	H	T
356.8608398	n/a	91356.375	responseSmallH	error	n/a	0.49658	no	n/a	n/a
357.9370117	n/a	91631.875	largeHSmallT	correct	incongruent	0.58594	no	H	T
358.5229492	n/a	91781.875	responseSmallT	correct	n/a	0.58594	no	n/a	n/a
359.5908203	n/a	92055.25	largeHSmallT	correct	incongruent	0.52637	no	H	T
360.1171875	n/a	92190	responseSmallT	correct	n/a	0.52637	no	n/a	n/a
361.1904297	n/a	92464.75	largeHSmallH	correct	congruent	0.4873	no	H	H
361.6777344	n/a	92589.5	responseSmallH	correct	n/a	0.4873	no	n/a	n/a
362.7373047	n/a	92860.75	largeTSmallH	correct	incongruent	0.56348	no	T	H
363.3007812	n/a	93005	responseSmallH	correct	n/a	0.56348	no	n/a	n/a
364.3637695	n/a	93277.125	largeHSmallT	correct	incongruent	0.46826	no	H	T
364.8320312	n/a	93397	responseSmallT	correct	n/a	0.46826	no	n/a	n/a
365.9106445	n/a	93673.125	largeHSmallT	correct	incongruent	0.43604	no	H	T
366.3466797	n/a	93784.75	responseSmallT	correct	n/a	0.43604	no	n/a	n/a
367.4169922	n/a	94058.75	largeHSmallT	correct	incongruent	0.45557	no	H	T
367.8725586	n/a	94175.375	responseSmallT	correct	n/a	0.45557	no	n/a	n/a
368.9370117	n/a	94447.875	largeTSmallH	correct	incongruent	0.51758	no	T	H
369.4545898	n/a	94580.375	responseSmallH	correct	n/a	0.51758	no	n/a	n/a
370.5234375	n/a	94854	largeTSmallH	correct	incongruent	0.62695	no	T	H
371.1503906	n/a	95014.5	responseSmallH	correct	n/a	0.62695	no	n/a	n/a
372.2304688	n/a	95291	largeHSmallH	correct	congruent	0.48779	no	H	H
372.7182617	n/a	95415.875	responseSmallH	correct	n/a	0.48779	no	n/a	n/a
373.7900391	n/a	95690.25	largeHSmallT	correct	incongruent	0.47754	no	H	T
374.2675781	n/a	95812.5	responseSmallT	correct	n/a	0.47754	no	n/a	n/a
375.3369141	n/a	96086.25	largeTSmallH	correct	incongruent	0.45801	no	T	H
375.7949219	n/a	96203.5	responseSmallH	correct	n/a	0.45801	no	n/a	n/a
376.8569336	n/a	96475.375	largeHSmallH	correct	congruent	0.52295	no	H	H
377.3798828	n/a	96609.25	responseSmallH	correct	n/a	0.52295	no	n/a	n/a
378.456543	n/a	96884.875	largeTSmallT	correct	congruent	0.47852	no	T	T
378.9350586	n/a	97007.375	responseSmallT	correct	n/a	0.47852	no	n/a	n/a
380.0166016	n/a	97284.25	largeHSmallT	correct	incongruent	0.53027	no	H	T
380.546875	n/a	97420	responseSmallT	correct	n/a	0.53027	no	n/a	n/a
381.6166992	n/a	97693.875	largeTSmallT	correct	congruent	0.46191	no	T	T
382.0786133	n/a	97812.125	responseSmallT	correct	n/a	0.46191	no	n/a	n/a
383.1499023	n/a	98086.375	largeHSmallT	correct	incongruent	0.67432	no	H	T
383.8242188	n/a	98259	responseSmallT	correct	n/a	0.67432	no	n/a	n/a
384.8964844	n/a	98533.5	largeHSmallH	correct	congruent	0.44971	no	H	H
385.3461914	n/a	98648.625	responseSmallH	correct	n/a	0.44971	no	n/a	n/a
386.496582	n/a	98943.125	largeHSmallH	correct	congruent	0.47949	no	H	H
386.9760742	n/a	99065.875	responseSmallH	correct	n/a	0.47949	no	n/a	n/a
388.0429688	n/a	99339	largeTSmallH	correct	incongruent	0.66016	no	T	H
388.703125	n/a	99508	responseSmallH	correct	n/a	0.66016	no	n/a	n/a
389.7763672	n/a	99782.75	largeTSmallH	correct	incongruent	0.50098	no	T	H
390.2773438	n/a	99911	responseSmallH	correct	n/a	0.50098	no	n/a	n/a
391.3496094	n/a	100185.5	largeHSmallH	correct	congruent	0.4751	no	H	H
391.824707	n/a	100307.125	responseSmallH	correct	n/a	0.4751	no	n/a	n/a
392.8964844	n/a	100581.5	largeTSmallH	correct	incongruent	0.43945	no	T	H
393.3359375	n/a	100694	responseSmallH	correct	n/a	0.43945	no	n/a	n/a
394.4165039	n/a	100970.625	largeHSmallT	correct	incongruent	0.47656	no	H	T
394.8930664	n/a	101092.625	responseSmallT	correct	n/a	0.47656	no	n/a	n/a
395.9760742	n/a	101369.875	largeTSmallH	correct	incongruent	0.44775	no	T	H
396.4238281	n/a	101484.5	responseSmallH	correct	n/a	0.44775	no	n/a	n/a
397.5068359	n/a	101761.75	largeHSmallH	error	congruent	0.45752	no	H	H
397.9643555	n/a	101878.875	responseSmallT	error	n/a	0.45752	no	n/a	n/a
399.0297852	n/a	102151.625	largeHSmallT	correct	incongruent	0.43555	no	H	T
399.465332	n/a	102263.125	responseSmallT	correct	n/a	0.43555	no	n/a	n/a
400.5361328	n/a	102537.25	largeTSmallH	correct	incongruent	0.45996	no	T	H
400.9960938	n/a	102655	responseSmallH	correct	n/a	0.45996	no	n/a	n/a
402.0693359	n/a	102929.75	largeTSmallH	correct	incongruent	0.40332	no	T	H
402.4726562	n/a	103033	responseSmallH	correct	n/a	0.40332	no	n/a	n/a
403.5361328	n/a	103305.25	largeTSmallH	correct	incongruent	0.47998	no	T	H
404.0161133	n/a	103428.125	responseSmallH	correct	n/a	0.47998	no	n/a	n/a
405.0825195	n/a	103701.125	largeTSmallH	correct	incongruent	0.45703	no	T	H
405.5395508	n/a	103818.125	responseSmallH	correct	n/a	0.45703	no	n/a	n/a
406.6030273	n/a	104090.375	largeTSmallT	correct	congruent	0.4502	no	T	T
407.0532227	n/a	104205.625	responseSmallT	correct	n/a	0.4502	no	n/a	n/a
408.1225586	n/a	104479.375	largeHSmallT	correct	incongruent	0.5918	no	H	T
408.7143555	n/a	104630.875	responseSmallT	correct	n/a	0.5918	no	n/a	n/a
409.7890625	n/a	104906	largeTSmallT	correct	congruent	0.47559	no	T	T
410.2646484	n/a	105027.75	responseSmallT	correct	n/a	0.47559	no	n/a	n/a
411.3359375	n/a	105302	largeHSmallH	correct	congruent	0.37207	no	H	H
411.7080078	n/a	105397.25	responseSmallH	correct	n/a	0.37207	no	n/a	n/a
412.7758789	n/a	105670.625	largeTSmallH	correct	incongruent	0.61182	no	T	H
413.3876953	n/a	105827.25	responseSmallH	correct	n/a	0.61182	no	n/a	n/a
414.4560547	n/a	106100.75	largeTSmallT	correct	congruent	0.56396	no	T	T
415.0200195	n/a	106245.125	responseSmallT	correct	n/a	0.56396	no	n/a	n/a
416.0957031	n/a	106520.5	largeTSmallH	correct	incongruent	0.39258	no	T	H
416.4882812	n/a	106621	responseSmallH	correct	n/a	0.39258	no	n/a	n/a
417.5625	n/a	106896	largeTSmallT	correct	congruent	0.23633	no	T	T
417.7988281	n/a	106956.5	responseSmallT	correct	n/a	0.23633	no	n/a	n/a
418.8691406	n/a	107230.5	largeTSmallT	correct	congruent	0.54834	no	T	T
419.4174805	n/a	107370.875	responseSmallT	correct	n/a	0.54834	no	n/a	n/a
420.4956055	n/a	107646.875	largeHSmallT	correct	incongruent	0.63037	no	H	T
421.1259766	n/a	107808.25	responseSmallT	correct	n/a	0.63037	no	n/a	n/a
422.1889648	n/a	108080.375	largeTSmallT	correct	congruent	0.40186	no	T	T
422.5908203	n/a	108183.25	responseSmallT	correct	n/a	0.40186	no	n/a	n/a
423.6557617	n/a	108455.875	largeHSmallT	correct	incongruent	0.51953	no	H	T
424.175293	n/a	108588.875	responseSmallT	correct	n/a	0.51953	no	n/a	n/a
425.2558594	n/a	108865.5	largeTSmallT	correct	congruent	0.45312	no	T	T
425.7089844	n/a	108981.5	responseSmallT	correct	n/a	0.45312	no	n/a	n/a
426.7753906	n/a	109254.5	largeHSmallH	correct	congruent	0.45654	no	H	H
427.2319336	n/a	109371.375	responseSmallH	correct	n/a	0.45654	no	n/a	n/a
428.2954102	n/a	109643.625	largeTSmallH	correct	incongruent	0.60645	no	T	H
428.9018555	n/a	109798.875	responseSmallH	correct	n/a	0.60645	no	n/a	n/a
429.9755859	n/a	110073.75	largeTSmallH	correct	incongruent	0.49023	no	T	H
430.4658203	n/a	110199.25	responseSmallH	correct	n/a	0.49023	no	n/a	n/a
431.5351562	n/a	110473	largeTSmallH	correct	incongruent	0.43555	no	T	H
431.9707031	n/a	110584.5	responseSmallH	correct	n/a	0.43555	no	n/a	n/a
433.0419922	n/a	110858.75	largeHSmallT	error	incongruent	0.44141	no	H	T
433.4833984	n/a	110971.75	responseSmallH	error	n/a	0.44141	no	n/a	n/a
434.5493164	n/a	111244.625	largeTSmallT	correct	congruent	0.54053	no	T	T
435.0898438	n/a	111383	responseSmallT	correct	n/a	0.54053	no	n/a	n/a
436.1621094	n/a	111657.5	largeHSmallT	correct	incongruent	0.42236	no	H	T
436.5844727	n/a	111765.625	responseSmallT	correct	n/a	0.42236	no	n/a	n/a
437.6552734	n/a	112039.75	largeTSmallH	correct	incongruent	0.42139	no	T	H
438.0766602	n/a	112147.625	responseSmallH	correct	n/a	0.42139	no	n/a	n/a
439.1484375	n/a	112422	largeHSmallT	correct	incongruent	0.41162	no	H	T
439.5600586	n/a	112527.375	responseSmallT	correct	n/a	0.41162	no	n/a	n/a
440.6416016	n/a	112804.25	largeHSmallT	error	incongruent	0.40381	no	H	T
441.0454102	n/a	112907.625	responseSmallH	error	n/a	0.40381	no	n/a	n/a
442.121582	n/a	113183.125	largeTSmallH	correct	incongruent	0.61426	no	T	H
442.7358398	n/a	113340.375	responseSmallH	correct	n/a	0.61426	no	n/a	n/a
443.8017578	n/a	113613.25	largeTSmallH	correct	incongruent	0.49658	no	T	H
444.2983398	n/a	113740.375	responseSmallH	correct	n/a	0.49658	no	n/a	n/a
445.5004883	n/a	114048.125	largeHSmallT	correct	incongruent	0.45703	no	H	T
445.9575195	n/a	114165.125	responseSmallT	correct	n/a	0.45703	no	n/a	n/a
447.0283203	n/a	114439.25	largeTSmallT	correct	congruent	0.49854	no	T	T
447.5268555	n/a	114566.875	responseSmallT	correct	n/a	0.49854	no	n/a	n/a
448.5883789	n/a	114838.625	largeHSmallH	correct	congruent	0.51123	no	H	H
449.0996094	n/a	114969.5	responseSmallH	correct	n/a	0.51123	no	n/a	n/a
450.1616211	n/a	115241.375	largeTSmallT	correct	congruent	0.36426	no	T	T
450.5258789	n/a	115334.625	responseSmallT	correct	n/a	0.36426	no	n/a	n/a
451.6015625	n/a	115610	largeTSmallT	correct	congruent	0.46826	no	T	T
452.0698242	n/a	115729.875	responseSmallT	correct	n/a	0.46826	no	n/a	n/a
453.1479492	n/a	116005.875	largeHSmallT	correct	incongruent	0.45654	no	H	T
453.6044922	n/a	116122.75	responseSmallT	correct	n/a	0.45654	no	n/a	n/a
454.668457	n/a	116395.125	largeHSmallH	correct	congruent	0.46777	no	H	H
455.1362305	n/a	116514.875	responseSmallH	correct	n/a	0.46777	no	n/a	n/a
456.2011719	n/a	116787.5	largeTSmallT	correct	congruent	0.32861	no	T	T
456.5297852	n/a	116871.625	responseSmallT	correct	n/a	0.32861	no	n/a	n/a
457.6015625	n/a	117146	largeTSmallT	correct	congruent	0.43408	no	T	T
458.0356445	n/a	117257.125	responseSmallT	correct	n/a	0.43408	no	n/a	n/a
459.1079102	n/a	117531.625	largeHSmallH	correct	congruent	0.47998	no	H	H
459.5878906	n/a	117654.5	responseSmallH	correct	n/a	0.47998	no	n/a	n/a
460.6679688	n/a	117931	largeHSmallH	correct	congruent	0.63379	no	H	H
461.3017578	n/a	118093.25	responseSmallH	correct	n/a	0.63379	no	n/a	n/a
462.3613281	n/a	118364.5	largeTSmallH	correct	incongruent	0.48779	no	T	H
462.8491211	n/a	118489.375	responseSmallH	correct	n/a	0.48779	no	n/a	n/a
463.9213867	n/a	118763.875	largeTSmallH	correct	incongruent	0.46631	no	T	H
464.3876953	n/a	118883.25	responseSmallH	correct	n/a	0.46631	no	n/a	n/a
465.4545898	n/a	119156.375	largeHSmallT	correct	incongruent	0.50928	no	H	T
465.9638672	n/a	119286.75	responseSmallT	correct	n/a	0.50928	no	n/a	n/a
467.027832	n/a	119559.125	largeTSmallH	correct	incongruent	0.4458	no	T	H
467.4736328	n/a	119673.25	responseSmallH	correct	n/a	0.4458	no	n/a	n/a
468.5478516	n/a	119948.25	largeHSmallH	error	congruent	0.35156	no	H	H
468.8994141	n/a	120038.25	responseSmallT	error	n/a	0.35156	no	n/a	n/a
469.9741211	n/a	120313.375	largeHSmallT	correct	incongruent	0.5752	no	H	T
470.5493164	n/a	120460.625	responseSmallT	correct	n/a	0.5752	no	n/a	n/a
471.6142578	n/a	120733.25	largeHSmallT	correct	incongruent	0.51465	no	H	T
472.1289062	n/a	120865	responseSmallT	correct	n/a	0.51465	no	n/a	n/a
473.2011719	n/a	121139.5	largeHSmallH	correct	congruent	0.46045	no	H	H
473.6616211	n/a	121257.375	responseSmallH	correct	n/a	0.46045	no	n/a	n/a
474.734375	n/a	121532	largeTSmallH	correct	incongruent	0.65186	no	T	H
475.3862305	n/a	121698.875	responseSmallH	correct	n/a	0.65186	no	n/a	n/a
476.4541016	n/a	121972.25	largeHSmallT	correct	incongruent	0.45605	no	H	T
476.9101562	n/a	122089	responseSmallT	correct	n/a	0.45605	no	n/a	n/a
477.9741211	n/a	122361.375	largeHSmallT	correct	incongruent	0.43066	no	H	T
478.4047852	n/a	122471.625	responseSmallT	correct	n/a	0.43066	no	n/a	n/a
479.480957	n/a	122747.125	largeHSmallH	correct	congruent	0.4707	no	H	H
479.9516602	n/a	122867.625	responseSmallH	correct	n/a	0.4707	no	n/a	n/a
481.0273438	n/a	123143	largeHSmallT	correct	incongruent	0.52539	no	H	T
481.5527344	n/a	123277.5	responseSmallT	correct	n/a	0.52539	no	n/a	n/a
482.6274414	n/a	123552.625	largeHSmallT	correct	incongruent	0.47021	no	H	T
483.0976562	n/a	123673	responseSmallT	correct	n/a	0.47021	no	n/a	n/a
484.1738281	n/a	123948.5	largeHSmallH	correct	congruent	0.396	no	H	H
484.5698242	n/a	124049.875	responseSmallH	correct	n/a	0.396	no	n/a	n/a
485.640625	n/a	124324	largeHSmallH	correct	congruent	0.49268	no	H	H
486.1333008	n/a	124450.125	responseSmallH	correct	n/a	0.49268	no	n/a	n/a
487.2006836	n/a	124723.375	largeHSmallH	correct	congruent	0.46484	no	H	H
487.6655273	n/a	124842.375	responseSmallH	correct	n/a	0.46484	no	n/a	n/a
488.7338867	n/a	125115.875	largeTSmallT	correct	congruent	0.46094	no	T	T
489.1948242	n/a	125233.875	responseSmallT	correct	n/a	0.46094	no	n/a	n/a
490.2539062	n/a	125505	largeTSmallH	correct	incongruent	0.4375	no	T	H
490.6914062	n/a	125617	responseSmallH	correct	n/a	0.4375	no	n/a	n/a
491.7602539	n/a	125890.625	largeTSmallT	correct	congruent	0.48877	no	T	T
492.2490234	n/a	126015.75	responseSmallT	correct	n/a	0.48877	no	n/a	n/a
493.3203125	n/a	126290	largeHSmallT	error	incongruent	0.43164	no	H	T
493.7519531	n/a	126400.5	responseSmallH	error	n/a	0.43164	no	n/a	n/a
494.8271484	n/a	126675.75	largeTSmallT	correct	congruent	0.47266	no	T	T
495.2998047	n/a	126796.75	responseSmallT	correct	n/a	0.47266	no	n/a	n/a
496.3735352	n/a	127071.625	largeTSmallT	correct	congruent	0.44141	no	T	T
496.8149414	n/a	127184.625	responseSmallT	correct	n/a	0.44141	no	n/a	n/a
497.8803711	n/a	127457.375	largeTSmallT	correct	congruent	0.41797	no	T	T
498.2983398	n/a	127564.375	responseSmallT	correct	n/a	0.41797	no	n/a	n/a
499.3735352	n/a	127839.625	largeHSmallT	correct	incongruent	0.40576	no	H	T
499.7792969	n/a	127943.5	responseSmallT	correct	n/a	0.40576	no	n/a	n/a
500.8535156	n/a	128218.5	largeHSmallH	correct	congruent	0.46338	no	H	H
501.3168945	n/a	128337.125	responseSmallH	correct	n/a	0.46338	no	n/a	n/a
502.3999023	n/a	128614.375	largeHSmallH	error	congruent	0.31543	no	H	H
502.715332	n/a	128695.125	responseSmallT	error	n/a	0.31543	no	n/a	n/a
503.7866211	n/a	128969.375	largeTSmallH	error	incongruent	0.42188	no	T	H
504.2084961	n/a	129077.375	responseSmallT	error	n/a	0.42188	no	n/a	n/a
505.2802734	n/a	129351.75	largeTSmallT	correct	congruent	0.62061	no	T	T
505.9008789	n/a	129510.625	responseSmallT	correct	n/a	0.62061	no	n/a	n/a
506.9736328	n/a	129785.25	largeHSmallH	correct	congruent	0.42578	no	H	H
507.3994141	n/a	129894.25	responseSmallH	correct	n/a	0.42578	no	n/a	n/a
508.4667969	n/a	130167.5	largeHSmallT	correct	incongruent	0.5415	no	H	T
509.0083008	n/a	130306.125	responseSmallT	correct	n/a	0.5415	no	n/a	n/a
510.0800781	n/a	130580.5	largeHSmallH	correct	congruent	0.41553	no	H	H
510.4956055	n/a	130686.875	responseSmallH	correct	n/a	0.41553	no	n/a	n/a
511.5732422	n/a	130962.75	largeTSmallH	correct	incongruent	0.40674	no	T	H
511.9799805	n/a	131066.875	responseSmallH	correct	n/a	0.40674	no	n/a	n/a
513.0532227	n/a	131341.625	largeHSmallT	correct	incongruent	0.45264	no	H	T
513.5058594	n/a	131457.5	responseSmallT	correct	n/a	0.45264	no	n/a	n/a
514.5864258	n/a	131734.125	largeTSmallT	correct	congruent	0.50586	no	T	T
515.0922852	n/a	131863.625	responseSmallT	correct	n/a	0.50586	no	n/a	n/a
516.1733398	n/a	132140.375	largeHSmallT	correct	incongruent	0.44531	no	H	T
516.6186523	n/a	132254.375	responseSmallT	correct	n/a	0.44531	no	n/a	n/a
517.6796875	n/a	132526	largeTSmallH	correct	incongruent	0.41504	no	T	H
518.0947266	n/a	132632.25	responseSmallH	correct	n/a	0.41504	no	n/a	n/a
519.1601562	n/a	132905	largeHSmallT	correct	incongruent	0.38232	no	H	T
519.5424805	n/a	133002.875	responseSmallT	correct	n/a	0.38232	no	n/a	n/a
520.6132812	n/a	133277	largeHSmallT	correct	incongruent	0.49902	no	H	T
521.1123047	n/a	133404.75	responseSmallT	correct	n/a	0.49902	no	n/a	n/a
522.1728516	n/a	133676.25	largeTSmallT	correct	congruent	0.49951	no	T	T
522.6723633	n/a	133804.125	responseSmallT	correct	n/a	0.49951	no	n/a	n/a
523.7329102	n/a	134075.625	largeHSmallH	correct	congruent	0.4707	no	H	H
524.2036133	n/a	134196.125	responseSmallH	correct	n/a	0.4707	no	n/a	n/a
525.2797852	n/a	134471.625	largeTSmallT	correct	congruent	0.49316	no	T	T
525.7729492	n/a	134597.875	responseSmallT	correct	n/a	0.49316	no	n/a	n/a
526.8393555	n/a	134870.875	largeHSmallH	correct	congruent	0.43457	no	H	H
527.2739258	n/a	134982.125	responseSmallH	correct	n/a	0.43457	no	n/a	n/a
528.3330078	n/a	135253.25	largeHSmallH	error	congruent	0.36035	no	H	H
528.6933594	n/a	135345.5	responseSmallT	error	n/a	0.36035	no	n/a	n/a
529.7592773	n/a	135618.375	largeTSmallT	correct	congruent	0.56885	no	T	T
530.328125	n/a	135764	responseSmallT	correct	n/a	0.56885	no	n/a	n/a
531.3994141	n/a	136038.25	largeTSmallT	correct	congruent	0.55664	no	T	T
531.9560547	n/a	136180.75	responseSmallT	correct	n/a	0.55664	no	n/a	n/a
533.0263672	n/a	136454.75	largeTSmallT	correct	congruent	0.50879	no	T	T
533.5351562	n/a	136585	responseSmallT	correct	n/a	0.50879	no	n/a	n/a
534.612793	n/a	136860.875	largeHSmallT	correct	incongruent	0.4751	no	H	T
535.0878906	n/a	136982.5	responseSmallT	correct	n/a	0.4751	no	n/a	n/a
536.1459961	n/a	137253.375	largeTSmallH	correct	incongruent	0.4873	no	T	H
536.6333008	n/a	137378.125	responseSmallH	correct	n/a	0.4873	no	n/a	n/a
537.6923828	n/a	137649.25	largeTSmallT	correct	congruent	0.3418	no	T	T
538.0341797	n/a	137736.75	responseSmallT	correct	n/a	0.3418	no	n/a	n/a
539.105957	n/a	138011.125	largeHSmallH	correct	congruent	0.40674	no	H	H
539.5126953	n/a	138115.25	responseSmallH	correct	n/a	0.40674	no	n/a	n/a
540.5859375	n/a	138390	largeTSmallT	correct	congruent	0.38135	no	T	T
540.9672852	n/a	138487.625	responseSmallT	correct	n/a	0.38135	no	n/a	n/a
542.0395508	n/a	138762.125	largeHSmallH	correct	congruent	0.36816	no	H	H
542.4077148	n/a	138856.375	responseSmallH	correct	n/a	0.36816	no	n/a	n/a
543.4794922	n/a	139130.75	largeTSmallH	error	incongruent	0.35596	no	T	H
543.8354492	n/a	139221.875	responseSmallT	error	n/a	0.35596	no	n/a	n/a
544.9057617	n/a	139495.875	largeTSmallH	correct	incongruent	0.62158	no	T	H
545.5273438	n/a	139655	responseSmallH	correct	n/a	0.62158	no	n/a	n/a
546.5991211	n/a	139929.375	largeHSmallH	correct	congruent	0.59912	no	H	H
547.1982422	n/a	140082.75	responseSmallH	correct	n/a	0.59912	no	n/a	n/a
548.2792969	n/a	140359.5	largeTSmallT	error	congruent	0.44531	no	T	T
548.7246094	n/a	140473.5	responseSmallH	error	n/a	0.44531	no	n/a	n/a
549.7856445	n/a	140745.125	largeTSmallT	correct	congruent	0.69678	no	T	T
550.4824219	n/a	140923.5	responseSmallT	correct	n/a	0.69678	no	n/a	n/a
551.559082	n/a	141199.125	largeTSmallH	correct	incongruent	0.51123	no	T	H
552.0703125	n/a	141330	responseSmallH	correct	n/a	0.51123	no	n/a	n/a
553.1455078	n/a	141605.25	largeHSmallH	error	congruent	0.44092	no	H	H
553.5864258	n/a	141718.125	responseSmallT	error	n/a	0.44092	no	n/a	n/a
554.6523438	n/a	141991	largeHSmallH	correct	congruent	0.55615	no	H	H
555.2084961	n/a	142133.375	responseSmallH	correct	n/a	0.55615	no	n/a	n/a
556.2788086	n/a	142407.375	largeHSmallT	error	incongruent	0.48486	no	H	T
556.7636719	n/a	142531.5	responseSmallH	error	n/a	0.48486	no	n/a	n/a
557.8388672	n/a	142806.75	largeHSmallT	correct	incongruent	0.42432	no	H	T
558.2631836	n/a	142915.375	responseSmallT	correct	n/a	0.42432	no	n/a	n/a
559.3320312	n/a	143189	largeHSmallH	correct	congruent	0.5293	no	H	H
559.8613281	n/a	143324.5	responseSmallH	correct	n/a	0.5293	no	n/a	n/a
560.9321289	n/a	143598.625	largeHSmallT	correct	incongruent	0.34082	no	H	T
561.2729492	n/a	143685.875	responseSmallT	correct	n/a	0.34082	no	n/a	n/a
562.3452148	n/a	143960.375	largeHSmallT	correct	incongruent	0.55859	no	H	T
562.9038086	n/a	144103.375	responseSmallT	correct	n/a	0.55859	no	n/a	n/a
563.9716797	n/a	144376.75	largeHSmallH	correct	congruent	0.40039	no	H	H
564.3720703	n/a	144479.25	responseSmallH	correct	n/a	0.40039	no	n/a	n/a
565.4521484	n/a	144755.75	largeTSmallT	correct	congruent	0.32715	no	T	T
565.7792969	n/a	144839.5	responseSmallT	correct	n/a	0.32715	no	n/a	n/a
566.8520508	n/a	145114.125	largeTSmallT	correct	congruent	0.52979	no	T	T
567.3818359	n/a	145249.75	responseSmallT	correct	n/a	0.52979	no	n/a	n/a
568.4521484	n/a	145523.75	largeTSmallH	correct	incongruent	0.37158	no	T	H
568.8237305	n/a	145618.875	responseSmallH	correct	n/a	0.37158	no	n/a	n/a
569.8920898	n/a	145892.375	largeHSmallH	correct	congruent	0.52979	no	H	H
570.421875	n/a	146028	responseSmallH	correct	n/a	0.52979	no	n/a	n/a
571.4916992	n/a	146301.875	largeTSmallH	correct	incongruent	0.66162	no	T	H
572.1533203	n/a	146471.25	responseSmallH	correct	n/a	0.66162	no	n/a	n/a
573.2250977	n/a	146745.625	largeHSmallH	correct	congruent	0.58057	no	H	H
573.8056641	n/a	146894.25	responseSmallH	correct	n/a	0.58057	no	n/a	n/a
574.8657227	n/a	147165.625	largeHSmallH	correct	congruent	0.44531	no	H	H
575.3110352	n/a	147279.625	responseSmallH	correct	n/a	0.44531	no	n/a	n/a
576.3852539	n/a	147554.625	largeTSmallT	correct	congruent	0.43945	no	T	T
576.824707	n/a	147667.125	responseSmallT	correct	n/a	0.43945	no	n/a	n/a
577.9052734	n/a	147943.75	largeTSmallH	correct	incongruent	0.39307	no	T	H
578.2983398	n/a	148044.375	responseSmallH	correct	n/a	0.39307	no	n/a	n/a
579.371582	n/a	148319.125	largeHSmallT	error	incongruent	0.42529	no	H	T
579.796875	n/a	148428	responseSmallH	error	n/a	0.42529	no	n/a	n/a
580.8647461	n/a	148701.375	largeHSmallH	correct	congruent	0.46729	no	H	H
581.3320312	n/a	148821	responseSmallH	correct	n/a	0.46729	no	n/a	n/a
582.4116211	n/a	149097.375	largeTSmallH	error	incongruent	0.26855	no	T	H
582.6801758	n/a	149166.125	responseSmallT	error	n/a	0.26855	no	n/a	n/a
583.7446289	n/a	149438.625	largeHSmallH	correct	congruent	0.43848	no	H	H
584.1831055	n/a	149550.875	responseSmallH	correct	n/a	0.43848	no	n/a	n/a
585.2514648	n/a	149824.375	largeTSmallH	correct	incongruent	0.44531	no	T	H
585.6967773	n/a	149938.375	responseSmallH	correct	n/a	0.44531	no	n/a	n/a
586.7714844	n/a	150213.5	largeTSmallH	correct	incongruent	0.41113	no	T	H
587.1826172	n/a	150318.75	responseSmallH	correct	n/a	0.41113	no	n/a	n/a
588.2514648	n/a	150592.375	largeHSmallH	correct	congruent	0.37061	no	H	H
588.6220703	n/a	150687.25	responseSmallH	correct	n/a	0.37061	no	n/a	n/a
589.6914062	n/a	150961	largeHSmallT	error	incongruent	0.45117	no	H	T
590.1425781	n/a	151076.5	responseSmallH	error	n/a	0.45117	no	n/a	n/a
591.2114258	n/a	151350.125	largeHSmallT	correct	incongruent	0.49023	no	H	T
591.7016602	n/a	151475.625	responseSmallT	correct	n/a	0.49023	no	n/a	n/a
592.7714844	n/a	151749.5	largeHSmallH	correct	congruent	0.46191	no	H	H
593.2333984	n/a	151867.75	responseSmallH	correct	n/a	0.46191	no	n/a	n/a
594.3046875	n/a	152142	largeHSmallH	correct	congruent	0.48193	no	H	H
594.7866211	n/a	152265.375	responseSmallH	correct	n/a	0.48193	no	n/a	n/a
595.8510742	n/a	152537.875	largeHSmallT	correct	incongruent	0.41943	no	H	T
596.2705078	n/a	152645.25	responseSmallT	correct	n/a	0.41943	no	n/a	n/a
597.3310547	n/a	152916.75	largeTSmallH	correct	incongruent	0.53027	no	T	H
597.8613281	n/a	153052.5	responseSmallH	correct	n/a	0.53027	no	n/a	n/a
598.9311523	n/a	153326.375	largeHSmallT	correct	incongruent	0.46289	no	H	T
599.394043	n/a	153444.875	responseSmallT	correct	n/a	0.46289	no	n/a	n/a
600.4775391	n/a	153722.25	largeTSmallH	correct	incongruent	0.34521	no	T	H
600.8227539	n/a	153810.625	responseSmallH	correct	n/a	0.34521	no	n/a	n/a
601.8911133	n/a	154084.125	largeHSmallH	correct	congruent	0.81299	no	H	H
602.7041016	n/a	154292.25	responseSmallH	correct	n/a	0.81299	no	n/a	n/a
603.7841797	n/a	154568.75	largeHSmallT	correct	incongruent	0.42334	no	H	T
604.2075195	n/a	154677.125	responseSmallT	correct	n/a	0.42334	no	n/a	n/a
605.277832	n/a	154951.125	largeTSmallT	correct	congruent	0.52246	no	T	T
605.800293	n/a	155084.875	responseSmallT	correct	n/a	0.52246	no	n/a	n/a
606.8642578	n/a	155357.25	largeTSmallH	correct	incongruent	0.42432	no	T	H
607.2885742	n/a	155465.875	responseSmallH	correct	n/a	0.42432	no	n/a	n/a
608.3706055	n/a	155742.875	largeTSmallH	correct	incongruent	0.48975	no	T	H
608.8603516	n/a	155868.25	responseSmallH	correct	n/a	0.48975	no	n/a	n/a
609.9306641	n/a	156142.25	largeHSmallH	correct	congruent	0.54639	no	H	H
610.4770508	n/a	156282.125	responseSmallH	correct	n/a	0.54639	no	n/a	n/a
611.5439453	n/a	156555.25	largeTSmallT	correct	congruent	0.43896	no	T	T
611.9829102	n/a	156667.625	responseSmallT	correct	n/a	0.43896	no	n/a	n/a
613.0507812	n/a	156941	largeTSmallT	correct	congruent	0.49561	no	T	T
613.5463867	n/a	157067.875	responseSmallT	correct	n/a	0.49561	no	n/a	n/a
614.6240234	n/a	157343.75	largeTSmallH	correct	incongruent	0.46436	no	T	H
615.0883789	n/a	157462.625	responseSmallH	correct	n/a	0.46436	no	n/a	n/a
616.1704102	n/a	157739.625	largeHSmallT	correct	incongruent	0.40918	no	H	T
616.5795898	n/a	157844.375	responseSmallT	correct	n/a	0.40918	no	n/a	n/a
617.6503906	n/a	158118.5	largeTSmallT	error	congruent	0.34033	no	T	T
617.9907227	n/a	158205.625	responseSmallH	error	n/a	0.34033	no	n/a	n/a
619.0639648	n/a	158480.375	largeTSmallT	error	congruent	0.29785	no	T	T
619.3618164	n/a	158556.625	responseSmallH	error	n/a	0.29785	no	n/a	n/a
620.4370117	n/a	158831.875	largeTSmallT	correct	congruent	0.57861	no	T	T
621.015625	n/a	158980	responseSmallT	correct	n/a	0.57861	no	n/a	n/a
622.0771484	n/a	159251.75	largeTSmallH	correct	incongruent	0.4751	no	T	H
622.5522461	n/a	159373.375	responseSmallH	correct	n/a	0.4751	no	n/a	n/a
623.6240234	n/a	159647.75	largeTSmallH	correct	incongruent	0.49414	no	T	H
624.1181641	n/a	159774.25	responseSmallH	correct	n/a	0.49414	no	n/a	n/a
625.1835938	n/a	160047	largeHSmallH	error	congruent	0.40723	no	H	H
625.5908203	n/a	160151.25	responseSmallT	error	n/a	0.40723	no	n/a	n/a
626.6635742	n/a	160425.875	largeTSmallT	error	congruent	0.5083	no	T	T
627.171875	n/a	160556	responseSmallH	error	n/a	0.5083	no	n/a	n/a
628.2368164	n/a	160828.625	largeHSmallT	correct	incongruent	0.63916	no	H	T
628.8759766	n/a	160992.25	responseSmallT	correct	n/a	0.63916	no	n/a	n/a
629.9438477	n/a	161265.625	largeHSmallT	correct	incongruent	0.49658	no	H	T
630.4404297	n/a	161392.75	responseSmallT	correct	n/a	0.49658	no	n/a	n/a
631.5170898	n/a	161668.375	largeTSmallT	error	congruent	0.35986	no	T	T
631.8769531	n/a	161760.5	responseSmallH	error	n/a	0.35986	no	n/a	n/a
632.9570312	n/a	162037	largeHSmallT	correct	incongruent	0.68457	no	H	T
633.6416016	n/a	162212.25	responseSmallT	correct	n/a	0.68457	no	n/a	n/a
634.7167969	n/a	162487.5	largeTSmallT	correct	congruent	0.43213	no	T	T
635.1489258	n/a	162598.125	responseSmallT	correct	n/a	0.43213	no	n/a	n/a
636.2099609	n/a	162869.75	largeHSmallH	correct	congruent	0.48926	no	H	H
636.6992188	n/a	162995	responseSmallH	correct	n/a	0.48926	no	n/a	n/a
637.7700195	n/a	163269.125	largeTSmallT	correct	congruent	0.48047	no	T	T
638.2504883	n/a	163392.125	responseSmallT	correct	n/a	0.48047	no	n/a	n/a
639.3168945	n/a	163665.125	largeTSmallT	correct	congruent	0.57422	no	T	T
639.8911133	n/a	163812.125	responseSmallT	correct	n/a	0.57422	no	n/a	n/a
643.6899414	n/a	164784.625	largeHSmallT	error	incongruent	1.0327	no	H	T
644.7226562	n/a	165049	responseLargeT	error	n/a	1.0327	no	n/a	n/a
645.7963867	n/a	165323.875	largeHSmallT	correct	incongruent	0.73584	no	H	T
646.5322266	n/a	165512.25	responseLargeH	correct	n/a	0.73584	no	n/a	n/a
647.5966797	n/a	165784.75	largeTSmallT	correct	congruent	0.52832	no	T	T
648.125	n/a	165920	responseLargeT	correct	n/a	0.52832	no	n/a	n/a
649.1831055	n/a	166190.875	largeHSmallT	correct	incongruent	0.64697	no	H	T
649.8300781	n/a	166356.5	responseLargeH	correct	n/a	0.64697	no	n/a	n/a
650.902832	n/a	166631.125	largeTSmallH	correct	incongruent	0.52734	no	T	H
651.4301758	n/a	166766.125	responseLargeT	correct	n/a	0.52734	no	n/a	n/a
652.5029297	n/a	167040.75	largeTSmallH	correct	incongruent	0.48633	no	T	H
652.9892578	n/a	167165.25	responseLargeT	correct	n/a	0.48633	no	n/a	n/a
654.0629883	n/a	167440.125	largeHSmallT	correct	incongruent	0.41992	no	H	T
654.4829102	n/a	167547.625	responseLargeH	correct	n/a	0.41992	no	n/a	n/a
655.5561523	n/a	167822.375	largeTSmallH	correct	incongruent	0.45605	no	T	H
656.012207	n/a	167939.125	responseLargeT	correct	n/a	0.45605	no	n/a	n/a
657.0893555	n/a	168214.875	largeHSmallT	correct	incongruent	0.42773	no	H	T
657.5170898	n/a	168324.375	responseLargeH	correct	n/a	0.42773	no	n/a	n/a
658.5830078	n/a	168597.25	largeHSmallH	correct	congruent	0.58887	no	H	H
659.171875	n/a	168748	responseLargeH	correct	n/a	0.58887	no	n/a	n/a
660.2358398	n/a	169020.375	largeTSmallH	correct	incongruent	0.44238	no	T	H
660.6782227	n/a	169133.625	responseLargeT	correct	n/a	0.44238	no	n/a	n/a
661.7426758	n/a	169406.125	largeHSmallH	correct	congruent	0.45898	no	H	H
662.2016602	n/a	169523.625	responseLargeH	correct	n/a	0.45898	no	n/a	n/a
663.2758789	n/a	169798.625	largeTSmallT	correct	congruent	0.40137	no	T	T
663.6772461	n/a	169901.375	responseLargeT	correct	n/a	0.40137	no	n/a	n/a
664.7426758	n/a	170174.125	largeTSmallT	correct	congruent	0.53662	no	T	T
665.2792969	n/a	170311.5	responseLargeT	correct	n/a	0.53662	no	n/a	n/a
666.355957	n/a	170587.125	largeHSmallH	correct	congruent	0.38281	no	H	H
666.7387695	n/a	170685.125	responseLargeH	correct	n/a	0.38281	no	n/a	n/a
667.7958984	n/a	170955.75	largeHSmallH	correct	congruent	0.62549	no	H	H
668.4213867	n/a	171115.875	responseLargeH	correct	n/a	0.62549	no	n/a	n/a
669.4892578	n/a	171389.25	largeTSmallT	correct	congruent	0.38477	no	T	T
669.8740234	n/a	171487.75	responseLargeT	correct	n/a	0.38477	no	n/a	n/a
670.9296875	n/a	171758	largeHSmallT	correct	incongruent	0.37842	no	H	T
671.3081055	n/a	171854.875	responseLargeH	correct	n/a	0.37842	no	n/a	n/a
672.3691406	n/a	172126.5	largeTSmallT	correct	congruent	0.34521	no	T	T
672.7143555	n/a	172214.875	responseLargeT	correct	n/a	0.34521	no	n/a	n/a
673.7958984	n/a	172491.75	largeHSmallT	correct	incongruent	0.36426	no	H	T
674.1601562	n/a	172585	responseLargeH	correct	n/a	0.36426	no	n/a	n/a
675.2358398	n/a	172860.375	largeTSmallT	correct	congruent	0.37256	no	T	T
675.6083984	n/a	172955.75	responseLargeT	correct	n/a	0.37256	no	n/a	n/a
676.6757812	n/a	173229	largeTSmallH	correct	incongruent	0.60645	no	T	H
677.2822266	n/a	173384.25	responseLargeT	correct	n/a	0.60645	no	n/a	n/a
678.3422852	n/a	173655.625	largeHSmallH	correct	congruent	0.38477	no	H	H
678.7270508	n/a	173754.125	responseLargeH	correct	n/a	0.38477	no	n/a	n/a
679.7958984	n/a	174027.75	largeTSmallH	correct	incongruent	0.39502	no	T	H
680.190918	n/a	174128.875	responseLargeT	correct	n/a	0.39502	no	n/a	n/a
681.262207	n/a	174403.125	largeHSmallH	correct	congruent	0.44971	no	H	H
681.7119141	n/a	174518.25	responseLargeH	correct	n/a	0.44971	no	n/a	n/a
682.7822266	n/a	174792.25	largeTSmallT	correct	congruent	0.35938	no	T	T
683.1416016	n/a	174884.25	responseLargeT	correct	n/a	0.35938	no	n/a	n/a
684.2089844	n/a	175157.5	largeHSmallT	correct	incongruent	0.44922	no	H	T
684.6582031	n/a	175272.5	responseLargeH	correct	n/a	0.44922	no	n/a	n/a
685.7290039	n/a	175546.625	largeTSmallT	correct	congruent	0.36328	no	T	T
686.0922852	n/a	175639.625	responseLargeT	correct	n/a	0.36328	no	n/a	n/a
687.1557617	n/a	175911.875	largeTSmallH	correct	incongruent	0.51221	no	T	H
687.6679688	n/a	176043	responseLargeT	correct	n/a	0.51221	no	n/a	n/a
688.7421875	n/a	176318	largeHSmallT	correct	incongruent	0.41016	no	H	T
689.1523438	n/a	176423	responseLargeH	correct	n/a	0.41016	no	n/a	n/a
690.222168	n/a	176696.875	largeHSmallH	correct	congruent	0.58105	no	H	H
690.8032227	n/a	176845.625	responseLargeH	correct	n/a	0.58105	no	n/a	n/a
691.8754883	n/a	177120.125	largeTSmallT	correct	congruent	0.42236	no	T	T
692.2978516	n/a	177228.25	responseLargeT	correct	n/a	0.42236	no	n/a	n/a
693.3686523	n/a	177502.375	largeTSmallT	correct	congruent	0.51855	no	T	T
693.887207	n/a	177635.125	responseLargeT	correct	n/a	0.51855	no	n/a	n/a
694.9550781	n/a	177908.5	largeTSmallH	correct	incongruent	0.43213	no	T	H
695.387207	n/a	178019.125	responseLargeT	correct	n/a	0.43213	no	n/a	n/a
696.4619141	n/a	178294.25	largeHSmallH	correct	congruent	0.44971	no	H	H
696.9116211	n/a	178409.375	responseLargeH	correct	n/a	0.44971	no	n/a	n/a
697.9951172	n/a	178686.75	largeTSmallH	correct	incongruent	0.52344	no	T	H
698.5185547	n/a	178820.75	responseLargeT	correct	n/a	0.52344	no	n/a	n/a
699.5952148	n/a	179096.375	largeTSmallT	correct	congruent	0.4292	no	T	T
700.0244141	n/a	179206.25	responseLargeT	correct	n/a	0.4292	no	n/a	n/a
701.0883789	n/a	179478.625	largeTSmallH	correct	incongruent	0.4917	no	T	H
701.5800781	n/a	179604.5	responseLargeT	correct	n/a	0.4917	no	n/a	n/a
702.6484375	n/a	179878	largeHSmallH	correct	congruent	0.48633	no	H	H
703.1347656	n/a	180002.5	responseLargeH	correct	n/a	0.48633	no	n/a	n/a
704.2084961	n/a	180277.375	largeHSmallH	correct	congruent	0.51611	no	H	H
704.7246094	n/a	180409.5	responseLargeH	correct	n/a	0.51611	no	n/a	n/a
705.7949219	n/a	180683.5	largeTSmallH	error	incongruent	0.39746	no	T	H
706.1923828	n/a	180785.25	responseLargeH	error	n/a	0.39746	no	n/a	n/a
707.2480469	n/a	181055.5	largeHSmallT	correct	incongruent	0.54395	no	H	T
707.7919922	n/a	181194.75	responseLargeH	correct	n/a	0.54395	no	n/a	n/a
708.8613281	n/a	181468.5	largeTSmallH	correct	incongruent	0.55762	no	T	H
709.4189453	n/a	181611.25	responseLargeT	correct	n/a	0.55762	no	n/a	n/a
710.4882812	n/a	181885	largeHSmallT	correct	incongruent	0.45947	no	H	T
710.9477539	n/a	182002.625	responseLargeH	correct	n/a	0.45947	no	n/a	n/a
712.0078125	n/a	182274	largeHSmallH	correct	congruent	0.51172	no	H	H
712.5195312	n/a	182405	responseLargeH	correct	n/a	0.51172	no	n/a	n/a
713.5820312	n/a	182677	largeHSmallH	correct	congruent	0.45654	no	H	H
714.0385742	n/a	182793.875	responseLargeH	correct	n/a	0.45654	no	n/a	n/a
715.1015625	n/a	183066	largeHSmallH	correct	congruent	0.46777	no	H	H
715.5693359	n/a	183185.75	responseLargeH	correct	n/a	0.46777	no	n/a	n/a
716.6479492	n/a	183461.875	largeTSmallH	correct	incongruent	0.38818	no	T	H
717.0361328	n/a	183561.25	responseLargeT	correct	n/a	0.38818	no	n/a	n/a
718.1147461	n/a	183837.375	largeHSmallH	correct	congruent	0.38428	no	H	H
718.4990234	n/a	183935.75	responseLargeH	correct	n/a	0.38428	no	n/a	n/a
719.5678711	n/a	184209.375	largeHSmallH	correct	congruent	0.54346	no	H	H
720.1113281	n/a	184348.5	responseLargeH	correct	n/a	0.54346	no	n/a	n/a
721.1811523	n/a	184622.375	largeHSmallH	correct	congruent	0.46777	no	H	H
721.6489258	n/a	184742.125	responseLargeH	correct	n/a	0.46777	no	n/a	n/a
722.7148438	n/a	185015	largeHSmallT	correct	incongruent	0.56201	no	H	T
723.2768555	n/a	185158.875	responseLargeH	correct	n/a	0.56201	no	n/a	n/a
724.3544922	n/a	185434.75	largeTSmallH	correct	incongruent	0.40332	no	T	H
724.7578125	n/a	185538	responseLargeT	correct	n/a	0.40332	no	n/a	n/a
725.8344727	n/a	185813.625	largeHSmallT	correct	incongruent	0.34668	no	H	T
726.1811523	n/a	185902.375	responseLargeH	correct	n/a	0.34668	no	n/a	n/a
727.2475586	n/a	186175.375	largeHSmallH	correct	congruent	0.6167	no	H	H
727.8642578	n/a	186333.25	responseLargeH	correct	n/a	0.6167	no	n/a	n/a
728.9414062	n/a	186609	largeHSmallT	error	incongruent	0.30713	no	H	T
729.2485352	n/a	186687.625	responseLargeT	error	n/a	0.30713	no	n/a	n/a
730.3276367	n/a	186963.875	largeHSmallH	correct	congruent	0.43262	no	H	H
730.7602539	n/a	187074.625	responseLargeH	correct	n/a	0.43262	no	n/a	n/a
731.8208008	n/a	187346.125	largeHSmallH	correct	congruent	0.43408	no	H	H
732.2548828	n/a	187457.25	responseLargeH	correct	n/a	0.43408	no	n/a	n/a
733.3276367	n/a	187731.875	largeTSmallT	correct	congruent	0.50781	no	T	T
733.8354492	n/a	187861.875	responseLargeT	correct	n/a	0.50781	no	n/a	n/a
734.9140625	n/a	188138	largeHSmallT	correct	incongruent	0.40869	no	H	T
735.3227539	n/a	188242.625	responseLargeH	correct	n/a	0.40869	no	n/a	n/a
736.394043	n/a	188516.875	largeHSmallT	correct	incongruent	0.41943	no	H	T
736.8134766	n/a	188624.25	responseLargeH	correct	n/a	0.41943	no	n/a	n/a
737.8740234	n/a	188895.75	largeHSmallH	correct	congruent	0.46289	no	H	H
738.3369141	n/a	189014.25	responseLargeH	correct	n/a	0.46289	no	n/a	n/a
739.4873047	n/a	189308.75	largeHSmallH	correct	congruent	0.37012	no	H	H
739.8574219	n/a	189403.5	responseLargeH	correct	n/a	0.37012	no	n/a	n/a
740.940918	n/a	189680.875	largeTSmallT	correct	congruent	0.44727	no	T	T
741.3881836	n/a	189795.375	responseLargeT	correct	n/a	0.44727	no	n/a	n/a
742.4609375	n/a	190070	largeHSmallT	correct	incongruent	0.44629	no	H	T
742.9072266	n/a	190184.25	responseLargeH	correct	n/a	0.44629	no	n/a	n/a
743.9804688	n/a	190459	largeTSmallT	correct	congruent	0.40576	no	T	T
744.3862305	n/a	190562.875	responseLargeT	correct	n/a	0.40576	no	n/a	n/a
745.4604492	n/a	190837.875	largeHSmallT	correct	incongruent	0.3877	no	H	T
745.8481445	n/a	190937.125	responseLargeH	correct	n/a	0.3877	no	n/a	n/a
746.9272461	n/a	191213.375	largeHSmallH	correct	congruent	0.48145	no	H	H
747.4086914	n/a	191336.625	responseLargeH	correct	n/a	0.48145	no	n/a	n/a
748.4873047	n/a	191612.75	largeTSmallH	correct	incongruent	0.4375	no	T	H
748.9248047	n/a	191724.75	responseLargeT	correct	n/a	0.4375	no	n/a	n/a
749.9941406	n/a	191998.5	largeTSmallH	error	incongruent	0.4292	no	T	H
750.4233398	n/a	192108.375	responseLargeH	error	n/a	0.4292	no	n/a	n/a
751.5	n/a	192384	largeTSmallH	correct	incongruent	0.54785	no	T	H
752.0478516	n/a	192524.25	responseLargeT	correct	n/a	0.54785	no	n/a	n/a
753.1137695	n/a	192797.125	largeHSmallH	correct	congruent	0.42285	no	H	H
753.5366211	n/a	192905.375	responseLargeH	correct	n/a	0.42285	no	n/a	n/a
754.6069336	n/a	193179.375	largeTSmallT	correct	congruent	0.36475	no	T	T
754.9716797	n/a	193272.75	responseLargeT	correct	n/a	0.36475	no	n/a	n/a
756.0336914	n/a	193544.625	largeTSmallT	correct	congruent	0.54297	no	T	T
756.5766602	n/a	193683.625	responseLargeT	correct	n/a	0.54297	no	n/a	n/a
757.6469727	n/a	193957.625	largeTSmallH	error	incongruent	0.44189	no	T	H
758.0888672	n/a	194070.75	responseLargeH	error	n/a	0.44189	no	n/a	n/a
759.1538086	n/a	194343.375	largeTSmallH	correct	incongruent	0.4126	no	T	H
759.5664062	n/a	194449	responseLargeT	correct	n/a	0.4126	no	n/a	n/a
760.6337891	n/a	194722.25	largeHSmallT	correct	incongruent	0.51074	no	H	T
761.1445312	n/a	194853	responseLargeH	correct	n/a	0.51074	no	n/a	n/a
762.2075195	n/a	195125.125	largeTSmallT	correct	congruent	0.57617	no	T	T
762.7836914	n/a	195272.625	responseLargeT	correct	n/a	0.57617	no	n/a	n/a
763.847168	n/a	195544.875	largeHSmallH	correct	congruent	0.47168	no	H	H
764.3188477	n/a	195665.625	responseLargeH	correct	n/a	0.47168	no	n/a	n/a
765.3935547	n/a	195940.75	largeHSmallT	correct	incongruent	0.66211	no	H	T
766.0556641	n/a	196110.25	responseLargeH	correct	n/a	0.66211	no	n/a	n/a
767.1269531	n/a	196384.5	largeHSmallT	correct	incongruent	0.47607	no	H	T
767.6030273	n/a	196506.375	responseLargeH	correct	n/a	0.47607	no	n/a	n/a
768.6733398	n/a	196780.375	largeTSmallT	correct	congruent	0.47119	no	T	T
769.1445312	n/a	196901	responseLargeT	correct	n/a	0.47119	no	n/a	n/a
770.2202148	n/a	197176.375	largeHSmallT	correct	incongruent	0.479	no	H	T
770.6992188	n/a	197299	responseLargeH	correct	n/a	0.479	no	n/a	n/a
771.7797852	n/a	197575.625	largeTSmallH	correct	incongruent	0.39014	no	T	H
772.1699219	n/a	197675.5	responseLargeT	correct	n/a	0.39014	no	n/a	n/a
773.246582	n/a	197951.125	largeTSmallT	correct	congruent	0.39258	no	T	T
773.6391602	n/a	198051.625	responseLargeT	correct	n/a	0.39258	no	n/a	n/a
774.7133789	n/a	198326.625	largeTSmallH	correct	incongruent	0.58301	no	T	H
775.2963867	n/a	198475.875	responseLargeT	correct	n/a	0.58301	no	n/a	n/a
776.3662109	n/a	198749.75	largeHSmallH	correct	congruent	0.4873	no	H	H
776.8535156	n/a	198874.5	responseLargeH	correct	n/a	0.4873	no	n/a	n/a
777.9267578	n/a	199149.25	largeTSmallT	correct	congruent	0.44189	no	T	T
778.3686523	n/a	199262.375	responseLargeT	correct	n/a	0.44189	no	n/a	n/a
779.4331055	n/a	199534.875	largeTSmallH	correct	incongruent	0.45947	no	T	H
779.8925781	n/a	199652.5	responseLargeT	correct	n/a	0.45947	no	n/a	n/a
780.9663086	n/a	199927.375	largeHSmallT	correct	incongruent	0.48975	no	H	T
781.4560547	n/a	200052.75	responseLargeH	correct	n/a	0.48975	no	n/a	n/a
782.5263672	n/a	200326.75	largeTSmallH	correct	incongruent	0.42236	no	T	H
782.9487305	n/a	200434.875	responseLargeT	correct	n/a	0.42236	no	n/a	n/a
784.0195312	n/a	200709	largeTSmallT	correct	congruent	0.50342	no	T	T
784.5229492	n/a	200837.875	responseLargeT	correct	n/a	0.50342	no	n/a	n/a
785.5927734	n/a	201111.75	largeHSmallT	correct	incongruent	0.37158	no	H	T
785.9643555	n/a	201206.875	responseLargeH	correct	n/a	0.37158	no	n/a	n/a
787.0327148	n/a	201480.375	largeHSmallH	correct	congruent	0.47607	no	H	H
787.5087891	n/a	201602.25	responseLargeH	correct	n/a	0.47607	no	n/a	n/a
788.5795898	n/a	201876.375	largeTSmallH	correct	incongruent	0.43848	no	T	H
789.0180664	n/a	201988.625	responseLargeT	correct	n/a	0.43848	no	n/a	n/a
790.0864258	n/a	202262.125	largeHSmallT	correct	incongruent	0.49219	no	H	T
790.5786133	n/a	202388.125	responseLargeH	correct	n/a	0.49219	no	n/a	n/a
791.6459961	n/a	202661.375	largeTSmallT	correct	congruent	0.3457	no	T	T
791.9916992	n/a	202749.875	responseLargeT	correct	n/a	0.3457	no	n/a	n/a
793.0727539	n/a	203026.625	largeTSmallT	correct	congruent	0.50586	no	T	T
793.5786133	n/a	203156.125	responseLargeT	correct	n/a	0.50586	no	n/a	n/a
794.6459961	n/a	203429.375	largeHSmallH	correct	congruent	0.41406	no	H	H
795.0600586	n/a	203535.375	responseLargeH	correct	n/a	0.41406	no	n/a	n/a
796.1259766	n/a	203808.25	largeHSmallH	correct	congruent	0.51807	no	H	H
796.644043	n/a	203940.875	responseLargeH	correct	n/a	0.51807	no	n/a	n/a
797.7260742	n/a	204217.875	largeHSmallT	correct	incongruent	0.49121	no	H	T
798.2172852	n/a	204343.625	responseLargeH	correct	n/a	0.49121	no	n/a	n/a
799.2993164	n/a	204620.625	largeHSmallT	correct	incongruent	0.44971	no	H	T
799.7490234	n/a	204735.75	responseLargeH	correct	n/a	0.44971	no	n/a	n/a
800.8193359	n/a	205009.75	largeHSmallT	correct	incongruent	0.41846	no	H	T
801.237793	n/a	205116.875	responseLargeH	correct	n/a	0.41846	no	n/a	n/a
802.2993164	n/a	205388.625	largeTSmallT	correct	congruent	0.47803	no	T	T
802.7773438	n/a	205511	responseLargeT	correct	n/a	0.47803	no	n/a	n/a
803.8457031	n/a	205784.5	largeTSmallH	correct	incongruent	0.6333	no	T	H
804.4790039	n/a	205946.625	responseLargeT	correct	n/a	0.6333	no	n/a	n/a
805.5522461	n/a	206221.375	largeTSmallT	correct	congruent	0.46484	no	T	T
806.0170898	n/a	206340.375	responseLargeT	correct	n/a	0.46484	no	n/a	n/a
807.0991211	n/a	206617.375	largeHSmallT	correct	incongruent	0.47559	no	H	T
807.574707	n/a	206739.125	responseLargeH	correct	n/a	0.47559	no	n/a	n/a
808.6459961	n/a	207013.375	largeTSmallT	correct	congruent	0.5415	no	T	T
809.1875	n/a	207152	responseLargeT	correct	n/a	0.5415	no	n/a	n/a
810.2587891	n/a	207426.25	largeHSmallT	correct	incongruent	0.43799	no	H	T
810.6967773	n/a	207538.375	responseLargeH	correct	n/a	0.43799	no	n/a	n/a
811.765625	n/a	207812	largeHSmallT	correct	incongruent	0.49072	no	H	T
812.2563477	n/a	207937.625	responseLargeH	correct	n/a	0.49072	no	n/a	n/a
813.3125	n/a	208208	largeTSmallH	correct	incongruent	0.45264	no	T	H
813.7651367	n/a	208323.875	responseLargeT	correct	n/a	0.45264	no	n/a	n/a
814.8320312	n/a	208597	largeTSmallT	correct	congruent	0.49023	no	T	T
815.3222656	n/a	208722.5	responseLargeT	correct	n/a	0.49023	no	n/a	n/a
816.3920898	n/a	208996.375	largeTSmallH	correct	incongruent	0.4458	no	T	H
816.8378906	n/a	209110.5	responseLargeT	correct	n/a	0.4458	no	n/a	n/a
817.9121094	n/a	209385.5	largeTSmallT	correct	congruent	0.38135	no	T	T
818.293457	n/a	209483.125	responseLargeT	correct	n/a	0.38135	no	n/a	n/a
819.3520508	n/a	209754.125	largeHSmallT	correct	incongruent	0.51953	no	H	T
819.871582	n/a	209887.125	responseLargeH	correct	n/a	0.51953	no	n/a	n/a
820.9521484	n/a	210163.75	largeTSmallT	correct	congruent	0.44629	no	T	T
821.3984375	n/a	210278	responseLargeT	correct	n/a	0.44629	no	n/a	n/a
822.472168	n/a	210552.875	largeHSmallH	correct	congruent	0.38379	no	H	H
822.855957	n/a	210651.125	responseLargeH	correct	n/a	0.38379	no	n/a	n/a
823.925293	n/a	210924.875	largeTSmallH	correct	incongruent	0.43506	no	T	H
824.3603516	n/a	211036.25	responseLargeT	correct	n/a	0.43506	no	n/a	n/a
825.418457	n/a	211307.125	largeTSmallT	correct	congruent	0.50098	no	T	T
825.9194336	n/a	211435.375	responseLargeT	correct	n/a	0.50098	no	n/a	n/a
826.9785156	n/a	211706.5	largeHSmallT	correct	incongruent	0.44189	no	H	T
827.4204102	n/a	211819.625	responseLargeH	correct	n/a	0.44189	no	n/a	n/a
828.4985352	n/a	212095.625	largeTSmallH	correct	incongruent	0.46582	no	T	H
828.9643555	n/a	212214.875	responseLargeT	correct	n/a	0.46582	no	n/a	n/a
830.0449219	n/a	212491.5	largeTSmallT	correct	congruent	0.49609	no	T	T
830.5410156	n/a	212618.5	responseLargeT	correct	n/a	0.49609	no	n/a	n/a
831.6186523	n/a	212894.375	largeTSmallT	correct	congruent	0.51074	no	T	T
832.1293945	n/a	213025.125	responseLargeT	correct	n/a	0.51074	no	n/a	n/a
833.1918945	n/a	213297.125	largeTSmallH	correct	incongruent	0.4165	no	T	H
833.6083984	n/a	213403.75	responseLargeT	correct	n/a	0.4165	no	n/a	n/a
834.671875	n/a	213676	largeTSmallH	correct	incongruent	0.38379	no	T	H
835.0556641	n/a	213774.25	responseLargeT	correct	n/a	0.38379	no	n/a	n/a
836.125	n/a	214048	largeHSmallT	correct	incongruent	0.50098	no	H	T
836.6259766	n/a	214176.25	responseLargeH	correct	n/a	0.50098	no	n/a	n/a
837.6982422	n/a	214450.75	largeHSmallT	correct	incongruent	0.46533	no	H	T
838.1635742	n/a	214569.875	responseLargeH	correct	n/a	0.46533	no	n/a	n/a
839.2314453	n/a	214843.25	largeTSmallH	correct	incongruent	0.43506	no	T	H
839.6665039	n/a	214954.625	responseLargeT	correct	n/a	0.43506	no	n/a	n/a
840.7514648	n/a	215232.375	largeTSmallH	correct	incongruent	0.50195	no	T	H
841.253418	n/a	215360.875	responseLargeT	correct	n/a	0.50195	no	n/a	n/a
842.324707	n/a	215635.125	largeHSmallT	correct	incongruent	0.49023	no	H	T
842.8149414	n/a	215760.625	responseLargeH	correct	n/a	0.49023	no	n/a	n/a
843.8847656	n/a	216034.5	largeHSmallH	correct	congruent	0.58008	no	H	H
844.4648438	n/a	216183	responseLargeH	correct	n/a	0.58008	no	n/a	n/a
845.5380859	n/a	216457.75	largeHSmallH	error	congruent	0.44238	no	H	H
845.9804688	n/a	216571	responseLargeT	error	n/a	0.44238	no	n/a	n/a
847.0444336	n/a	216843.375	largeTSmallT	correct	congruent	0.43262	no	T	T
847.4770508	n/a	216954.125	responseLargeT	correct	n/a	0.43262	no	n/a	n/a
848.5512695	n/a	217229.125	largeHSmallH	correct	congruent	0.46973	no	H	H
849.0209961	n/a	217349.375	responseLargeH	correct	n/a	0.46973	no	n/a	n/a
850.0844727	n/a	217621.625	largeHSmallT	error	incongruent	0.4292	no	H	T
850.5136719	n/a	217731.5	responseLargeT	error	n/a	0.4292	no	n/a	n/a
851.5913086	n/a	218007.375	largeTSmallT	correct	congruent	0.38721	no	T	T
851.9785156	n/a	218106.5	responseLargeT	correct	n/a	0.38721	no	n/a	n/a
853.0576172	n/a	218382.75	largeTSmallT	correct	congruent	0.42529	no	T	T
853.4829102	n/a	218491.625	responseLargeT	correct	n/a	0.42529	no	n/a	n/a
854.5512695	n/a	218765.125	largeTSmallH	correct	incongruent	0.37012	no	T	H
854.9213867	n/a	218859.875	responseLargeT	correct	n/a	0.37012	no	n/a	n/a
855.9912109	n/a	219133.75	largeTSmallT	correct	congruent	0.47266	no	T	T
856.4638672	n/a	219254.75	responseLargeT	correct	n/a	0.47266	no	n/a	n/a
857.5380859	n/a	219529.75	largeTSmallT	correct	congruent	0.39111	no	T	T
857.9291992	n/a	219629.875	responseLargeT	correct	n/a	0.39111	no	n/a	n/a
859.0043945	n/a	219905.125	largeHSmallH	correct	congruent	0.52637	no	H	H
859.5307617	n/a	220039.875	responseLargeH	correct	n/a	0.52637	no	n/a	n/a
860.6044922	n/a	220314.75	largeHSmallT	correct	incongruent	0.54395	no	H	T
861.1484375	n/a	220454	responseLargeH	correct	n/a	0.54395	no	n/a	n/a
862.230957	n/a	220731.125	largeHSmallH	correct	congruent	0.43701	no	H	H
862.6679688	n/a	220843	responseLargeH	correct	n/a	0.43701	no	n/a	n/a
863.737793	n/a	221116.875	largeTSmallT	error	congruent	0.33984	no	T	T
864.0776367	n/a	221203.875	responseLargeH	error	n/a	0.33984	no	n/a	n/a
865.1508789	n/a	221478.625	largeHSmallT	correct	incongruent	0.51465	no	H	T
865.6655273	n/a	221610.375	responseLargeH	correct	n/a	0.51465	no	n/a	n/a
866.737793	n/a	221884.875	largeTSmallT	correct	congruent	0.46533	no	T	T
867.203125	n/a	222004	responseLargeT	correct	n/a	0.46533	no	n/a	n/a
868.2841797	n/a	222280.75	largeTSmallH	correct	incongruent	0.62158	no	T	H
868.9057617	n/a	222439.875	responseLargeT	correct	n/a	0.62158	no	n/a	n/a
869.9775391	n/a	222714.25	largeTSmallH	correct	incongruent	0.44092	no	T	H
870.418457	n/a	222827.125	responseLargeT	correct	n/a	0.44092	no	n/a	n/a
871.4975586	n/a	223103.375	largeHSmallT	correct	incongruent	0.52051	no	H	T
872.0180664	n/a	223236.625	responseLargeH	correct	n/a	0.52051	no	n/a	n/a
873.0839844	n/a	223509.5	largeHSmallH	error	congruent	0.41553	no	H	H
873.4995117	n/a	223615.875	responseLargeT	error	n/a	0.41553	no	n/a	n/a
874.5639648	n/a	223888.375	largeTSmallH	correct	incongruent	0.51611	no	T	H
875.0800781	n/a	224020.5	responseLargeT	correct	n/a	0.51611	no	n/a	n/a
876.1508789	n/a	224294.625	largeTSmallH	correct	incongruent	0.50146	no	T	H
876.6523438	n/a	224423	responseLargeT	correct	n/a	0.50146	no	n/a	n/a
877.7104492	n/a	224693.875	largeHSmallT	error	incongruent	0.46143	no	H	T
878.171875	n/a	224812	responseLargeT	error	n/a	0.46143	no	n/a	n/a
879.2441406	n/a	225086.5	largeHSmallT	correct	incongruent	0.7085	no	H	T
879.9526367	n/a	225267.875	responseLargeH	correct	n/a	0.7085	no	n/a	n/a
881.0170898	n/a	225540.375	largeHSmallH	correct	congruent	0.61084	no	H	H
881.6279297	n/a	225696.75	responseLargeH	correct	n/a	0.61084	no	n/a	n/a
882.6972656	n/a	225970.5	largeTSmallH	correct	incongruent	0.49219	no	T	H
883.1894531	n/a	226096.5	responseLargeT	correct	n/a	0.49219	no	n/a	n/a
884.2568359	n/a	226369.75	largeHSmallH	correct	congruent	0.4585	no	H	H
884.715332	n/a	226487.125	responseLargeH	correct	n/a	0.4585	no	n/a	n/a
885.7773438	n/a	226759	largeTSmallT	correct	congruent	0.52246	no	T	T
886.2998047	n/a	226892.75	responseLargeT	correct	n/a	0.52246	no	n/a	n/a
887.3769531	n/a	227168.5	largeTSmallH	correct	incongruent	0.57471	no	T	H
887.9516602	n/a	227315.625	responseLargeT	correct	n/a	0.57471	no	n/a	n/a
889.0302734	n/a	227591.75	largeTSmallH	correct	incongruent	0.4375	no	T	H
889.4677734	n/a	227703.75	responseLargeT	correct	n/a	0.4375	no	n/a	n/a
890.5371094	n/a	227977.5	largeHSmallH	correct	congruent	0.47168	no	H	H
891.0087891	n/a	228098.25	responseLargeH	correct	n/a	0.47168	no	n/a	n/a
892.0834961	n/a	228373.375	largeHSmallH	correct	congruent	0.82422	no	H	H
892.9077148	n/a	228584.375	responseLargeH	correct	n/a	0.82422	no	n/a	n/a
893.9770508	n/a	228858.125	largeHSmallT	correct	incongruent	0.48779	no	H	T
894.4648438	n/a	228983	responseLargeH	correct	n/a	0.48779	no	n/a	n/a
895.5366211	n/a	229257.375	largeTSmallH	correct	incongruent	0.48438	no	T	H
896.0209961	n/a	229381.375	responseLargeT	correct	n/a	0.48438	no	n/a	n/a
897.0966797	n/a	229656.75	largeHSmallT	correct	incongruent	0.48047	no	H	T
897.5771484	n/a	229779.75	responseLargeH	correct	n/a	0.48047	no	n/a	n/a
898.6567383	n/a	230056.125	largeHSmallH	correct	congruent	0.62256	no	H	H
899.2792969	n/a	230215.5	responseLargeH	correct	n/a	0.62256	no	n/a	n/a
900.3500977	n/a	230489.625	largeHSmallH	correct	congruent	0.45459	no	H	H
900.8046875	n/a	230606	responseLargeH	correct	n/a	0.45459	no	n/a	n/a
901.8833008	n/a	230882.125	largeHSmallH	correct	congruent	0.46436	no	H	H
902.3476562	n/a	231001	responseLargeH	correct	n/a	0.46436	no	n/a	n/a
903.4291992	n/a	231277.875	largeHSmallH	correct	congruent	0.43945	no	H	H
903.8686523	n/a	231390.375	responseLargeH	correct	n/a	0.43945	no	n/a	n/a
904.9365234	n/a	231663.75	largeTSmallH	correct	incongruent	0.5293	no	T	H
905.4658203	n/a	231799.25	responseLargeT	correct	n/a	0.5293	no	n/a	n/a
906.5366211	n/a	232073.375	largeHSmallT	correct	incongruent	0.38965	no	H	T
906.9262695	n/a	232173.125	responseLargeH	correct	n/a	0.38965	no	n/a	n/a
907.9897461	n/a	232445.375	largeTSmallH	error	incongruent	0.34912	no	T	H
908.3388672	n/a	232534.75	responseLargeH	error	n/a	0.34912	no	n/a	n/a
909.4165039	n/a	232810.625	largeTSmallH	correct	incongruent	0.51221	no	T	H
909.9287109	n/a	232941.75	responseLargeT	correct	n/a	0.51221	no	n/a	n/a
911.0029297	n/a	233216.75	largeTSmallT	correct	congruent	0.43262	no	T	T
911.4355469	n/a	233327.5	responseLargeT	correct	n/a	0.43262	no	n/a	n/a
912.5097656	n/a	233602.5	largeTSmallT	correct	congruent	0.4668	no	T	T
912.9765625	n/a	233722	responseLargeT	correct	n/a	0.4668	no	n/a	n/a
914.0429688	n/a	233995	largeHSmallT	correct	incongruent	0.45752	no	H	T
914.5004883	n/a	234112.125	responseLargeH	correct	n/a	0.45752	no	n/a	n/a
915.5761719	n/a	234387.5	largeTSmallT	correct	congruent	0.50879	no	T	T
916.0849609	n/a	234517.75	responseLargeT	correct	n/a	0.50879	no	n/a	n/a
917.1494141	n/a	234790.25	largeHSmallH	correct	congruent	0.47412	no	H	H
917.6235352	n/a	234911.625	responseLargeH	correct	n/a	0.47412	no	n/a	n/a
918.6962891	n/a	235186.25	largeHSmallH	correct	congruent	0.52246	no	H	H
919.21875	n/a	235320	responseLargeH	correct	n/a	0.52246	no	n/a	n/a
920.2827148	n/a	235592.375	largeTSmallT	correct	congruent	0.40234	no	T	T
920.6850586	n/a	235695.375	responseLargeT	correct	n/a	0.40234	no	n/a	n/a
921.7495117	n/a	235967.875	largeTSmallH	correct	incongruent	0.54297	no	T	H
922.2924805	n/a	236106.875	responseLargeT	correct	n/a	0.54297	no	n/a	n/a
923.3623047	n/a	236380.75	largeTSmallH	correct	incongruent	0.49561	no	T	H
923.8579102	n/a	236507.625	responseLargeT	correct	n/a	0.49561	no	n/a	n/a
924.9228516	n/a	236780.25	largeHSmallT	error	incongruent	0.59521	no	H	T
925.5180664	n/a	236932.625	responseLargeT	error	n/a	0.59521	no	n/a	n/a
926.5893555	n/a	237206.875	largeHSmallT	correct	incongruent	0.50098	no	H	T
927.090332	n/a	237335.125	responseLargeH	correct	n/a	0.50098	no	n/a	n/a
928.1625977	n/a	237609.625	largeTSmallT	correct	congruent	0.45264	no	T	T
928.6152344	n/a	237725.5	responseLargeT	correct	n/a	0.45264	no	n/a	n/a
929.6826172	n/a	237998.75	largeTSmallT	correct	congruent	0.42383	no	T	T
930.1064453	n/a	238107.25	responseLargeT	correct	n/a	0.42383	no	n/a	n/a
931.1757812	n/a	238381	largeTSmallH	error	incongruent	0.44092	no	T	H
931.6166992	n/a	238493.875	responseLargeH	error	n/a	0.44092	no	n/a	n/a
932.6958008	n/a	238770.125	largeHSmallH	correct	congruent	0.4751	no	H	H
933.1708984	n/a	238891.75	responseLargeH	correct	n/a	0.4751	no	n/a	n/a
934.2421875	n/a	239166	largeHSmallH	error	congruent	0.46484	no	H	H
934.7070312	n/a	239285	responseLargeT	error	n/a	0.46484	no	n/a	n/a
935.7758789	n/a	239558.625	largeHSmallT	correct	incongruent	0.42822	no	H	T
936.2041016	n/a	239668.25	responseLargeH	correct	n/a	0.42822	no	n/a	n/a
937.2822266	n/a	239944.25	largeHSmallH	correct	congruent	0.59863	no	H	H
937.8808594	n/a	240097.5	responseLargeH	correct	n/a	0.59863	no	n/a	n/a
938.9487305	n/a	240370.875	largeHSmallH	correct	congruent	0.45166	no	H	H
939.4003906	n/a	240486.5	responseLargeH	correct	n/a	0.45166	no	n/a	n/a
940.4819336	n/a	240763.375	largeTSmallT	correct	congruent	0.48486	no	T	T
940.9667969	n/a	240887.5	responseLargeT	correct	n/a	0.48486	no	n/a	n/a
942.0288086	n/a	241159.375	largeHSmallT	correct	incongruent	0.4458	no	H	T
942.4746094	n/a	241273.5	responseLargeH	correct	n/a	0.4458	no	n/a	n/a
943.5488281	n/a	241548.5	largeTSmallT	correct	congruent	0.34521	no	T	T
943.894043	n/a	241636.875	responseLargeT	correct	n/a	0.34521	no	n/a	n/a
944.9755859	n/a	241913.75	largeHSmallH	correct	congruent	0.35791	no	H	H
945.3334961	n/a	242005.375	responseLargeH	correct	n/a	0.35791	no	n/a	n/a
946.4023438	n/a	242279	largeTSmallT	correct	congruent	0.39258	no	T	T
946.7949219	n/a	242379.5	responseLargeT	correct	n/a	0.39258	no	n/a	n/a
947.8686523	n/a	242654.375	largeTSmallH	error	incongruent	0.4375	no	T	H
948.3061523	n/a	242766.375	responseLargeH	error	n/a	0.4375	no	n/a	n/a
949.4765625	n/a	243066	largeTSmallH	error	incongruent	0.39551	no	T	H
949.8720703	n/a	243167.25	responseLargeH	error	n/a	0.39551	no	n/a	n/a
950.9487305	n/a	243442.875	largeTSmallT	correct	congruent	0.46924	no	T	T
951.4179688	n/a	243563	responseLargeT	correct	n/a	0.46924	no	n/a	n/a
955.4682617	n/a	244599.875	largeTSmallT	correct	congruent	1.0181	no	T	T
956.4863281	n/a	244860.5	responseSmallT	correct	n/a	1.0181	no	n/a	n/a
957.5620117	n/a	245135.875	largeHSmallH	correct	congruent	0.43506	no	H	H
957.9970703	n/a	245247.25	responseSmallH	correct	n/a	0.43506	no	n/a	n/a
959.0683594	n/a	245521.5	largeHSmallT	correct	incongruent	0.44141	no	H	T
959.5097656	n/a	245634.5	responseSmallT	correct	n/a	0.44141	no	n/a	n/a
960.5883789	n/a	245910.625	largeTSmallT	correct	congruent	0.55957	no	T	T
961.1479492	n/a	246053.875	responseSmallT	correct	n/a	0.55957	no	n/a	n/a
962.2285156	n/a	246330.5	largeHSmallH	correct	congruent	0.40967	no	H	H
962.6381836	n/a	246435.375	responseSmallH	correct	n/a	0.40967	no	n/a	n/a
963.7084961	n/a	246709.375	largeTSmallT	correct	congruent	0.3999	no	T	T
964.1083984	n/a	246811.75	responseSmallT	correct	n/a	0.3999	no	n/a	n/a
965.1884766	n/a	247088.25	largeHSmallH	correct	congruent	0.41699	no	H	H
965.6054688	n/a	247195	responseSmallH	correct	n/a	0.41699	no	n/a	n/a
966.6679688	n/a	247467	largeHSmallH	correct	congruent	0.53662	no	H	H
967.2045898	n/a	247604.375	responseSmallH	correct	n/a	0.53662	no	n/a	n/a
968.2680664	n/a	247876.625	largeHSmallH	correct	congruent	0.6084	no	H	H
968.8764648	n/a	248032.375	responseSmallH	correct	n/a	0.6084	no	n/a	n/a
969.9482422	n/a	248306.75	largeTSmallH	correct	incongruent	0.58936	no	T	H
970.5375977	n/a	248457.625	responseSmallH	correct	n/a	0.58936	no	n/a	n/a
971.6147461	n/a	248733.375	largeHSmallT	correct	incongruent	0.46973	no	H	T
972.0844727	n/a	248853.625	responseSmallT	correct	n/a	0.46973	no	n/a	n/a
973.1611328	n/a	249129.25	largeTSmallT	correct	congruent	0.59668	no	T	T
973.7578125	n/a	249282	responseSmallT	correct	n/a	0.59668	no	n/a	n/a
974.828125	n/a	249556	largeHSmallH	correct	congruent	0.51318	no	H	H
975.3413086	n/a	249687.375	responseSmallH	correct	n/a	0.51318	no	n/a	n/a
976.4145508	n/a	249962.125	largeTSmallT	correct	congruent	0.40137	no	T	T
976.815918	n/a	250064.875	responseSmallT	correct	n/a	0.40137	no	n/a	n/a
977.8813477	n/a	250337.625	largeTSmallT	correct	congruent	0.45068	no	T	T
978.3320312	n/a	250453	responseSmallT	correct	n/a	0.45068	no	n/a	n/a
979.4013672	n/a	250726.75	largeTSmallT	correct	congruent	0.56055	no	T	T
979.9619141	n/a	250870.25	responseSmallT	correct	n/a	0.56055	no	n/a	n/a
981.0283203	n/a	251143.25	largeHSmallT	correct	incongruent	0.55859	no	H	T
981.5869141	n/a	251286.25	responseSmallT	correct	n/a	0.55859	no	n/a	n/a
982.6542969	n/a	251559.5	largeHSmallH	correct	congruent	0.49463	no	H	H
983.1489258	n/a	251686.125	responseSmallH	correct	n/a	0.49463	no	n/a	n/a
984.2143555	n/a	251958.875	largeHSmallH	correct	congruent	0.56494	no	H	H
984.7792969	n/a	252103.5	responseSmallH	correct	n/a	0.56494	no	n/a	n/a
985.8544922	n/a	252378.75	largeTSmallH	correct	incongruent	0.59131	no	T	H
986.4458008	n/a	252530.125	responseSmallH	correct	n/a	0.59131	no	n/a	n/a
987.5078125	n/a	252802	largeHSmallH	correct	congruent	0.54785	no	H	H
988.0556641	n/a	252942.25	responseSmallH	correct	n/a	0.54785	no	n/a	n/a
989.1342773	n/a	253218.375	largeHSmallH	correct	congruent	0.49854	no	H	H
989.6328125	n/a	253346	responseSmallH	correct	n/a	0.49854	no	n/a	n/a
990.7075195	n/a	253621.125	largeTSmallH	error	incongruent	0.49023	no	T	H
991.1977539	n/a	253746.625	responseSmallT	error	n/a	0.49023	no	n/a	n/a
992.2675781	n/a	254020.5	largeTSmallT	correct	congruent	0.52051	no	T	T
992.7880859	n/a	254153.75	responseSmallT	correct	n/a	0.52051	no	n/a	n/a
993.8544922	n/a	254426.75	largeTSmallT	correct	congruent	0.46289	no	T	T
994.3173828	n/a	254545.25	responseSmallT	correct	n/a	0.46289	no	n/a	n/a
995.3876953	n/a	254819.25	largeTSmallT	correct	congruent	0.50342	no	T	T
995.8911133	n/a	254948.125	responseSmallT	correct	n/a	0.50342	no	n/a	n/a
996.9609375	n/a	255222	largeHSmallH	correct	congruent	0.49316	no	H	H
997.4541016	n/a	255348.25	responseSmallH	correct	n/a	0.49316	no	n/a	n/a
998.5209961	n/a	255621.375	largeHSmallT	correct	incongruent	0.64209	no	H	T
999.1630859	n/a	255785.75	responseSmallT	correct	n/a	0.64209	no	n/a	n/a
1000.240723	n/a	256061.625	largeTSmallH	correct	incongruent	0.4917	no	T	H
1000.732422	n/a	256187.5	responseSmallH	correct	n/a	0.4917	no	n/a	n/a
1001.800781	n/a	256461	largeHSmallT	correct	incongruent	0.39453	no	H	T
1002.195312	n/a	256562	responseSmallT	correct	n/a	0.39453	no	n/a	n/a
1003.267578	n/a	256836.5	largeTSmallH	correct	incongruent	0.4043	no	T	H
1003.671875	n/a	256940	responseSmallH	correct	n/a	0.4043	no	n/a	n/a
1004.74707	n/a	257215.25	largeHSmallT	correct	incongruent	0.45996	no	H	T
1005.207031	n/a	257333	responseSmallT	correct	n/a	0.45996	no	n/a	n/a
1006.280762	n/a	257607.875	largeHSmallH	correct	congruent	0.53809	no	H	H
1006.818848	n/a	257745.625	responseSmallH	correct	n/a	0.53809	no	n/a	n/a
1007.880371	n/a	258017.375	largeTSmallH	error	incongruent	0.39014	no	T	H
1008.270508	n/a	258117.25	responseSmallT	error	n/a	0.39014	no	n/a	n/a
1009.333984	n/a	258389.5	largeHSmallH	correct	congruent	0.48193	no	H	H
1009.815918	n/a	258512.875	responseSmallH	correct	n/a	0.48193	no	n/a	n/a
1010.880371	n/a	258785.375	largeTSmallH	correct	incongruent	0.54785	no	T	H
1011.428223	n/a	258925.625	responseSmallH	correct	n/a	0.54785	no	n/a	n/a
1012.507324	n/a	259201.875	largeTSmallT	correct	congruent	0.5166	no	T	T
1013.023926	n/a	259334.125	responseSmallT	correct	n/a	0.5166	no	n/a	n/a
1014.09375	n/a	259608	largeTSmallH	correct	incongruent	0.45996	no	T	H
1014.553711	n/a	259725.75	responseSmallH	correct	n/a	0.45996	no	n/a	n/a
1015.626953	n/a	260000.5	largeHSmallT	correct	incongruent	0.41113	no	H	T
1016.038086	n/a	260105.75	responseSmallT	correct	n/a	0.41113	no	n/a	n/a
1017.106934	n/a	260379.375	largeTSmallH	correct	incongruent	0.45752	no	T	H
1017.564453	n/a	260496.5	responseSmallH	correct	n/a	0.45752	no	n/a	n/a
1018.626953	n/a	260768.5	largeHSmallT	correct	incongruent	0.42822	no	H	T
1019.055176	n/a	260878.125	responseSmallT	correct	n/a	0.42822	no	n/a	n/a
1020.133301	n/a	261154.125	largeHSmallH	correct	congruent	0.41846	no	H	H
1020.551758	n/a	261261.25	responseSmallH	correct	n/a	0.41846	no	n/a	n/a
1021.626953	n/a	261536.5	largeTSmallT	error	congruent	0.51807	no	T	T
1022.14502	n/a	261669.125	responseSmallH	error	n/a	0.51807	no	n/a	n/a
1023.227051	n/a	261946.125	largeHSmallT	error	incongruent	0.50049	no	H	T
1023.727539	n/a	262074.25	responseSmallH	error	n/a	0.50049	no	n/a	n/a
1024.800293	n/a	262348.875	largeTSmallH	correct	incongruent	0.46924	no	T	H
1025.269531	n/a	262469	responseSmallH	correct	n/a	0.46924	no	n/a	n/a
1026.333496	n/a	262741.375	largeTSmallH	error	incongruent	0.3833	no	T	H
1026.716797	n/a	262839.5	responseSmallT	error	n/a	0.3833	no	n/a	n/a
1027.786621	n/a	263113.375	largeHSmallT	correct	incongruent	0.57031	no	H	T
1028.356934	n/a	263259.375	responseSmallT	correct	n/a	0.57031	no	n/a	n/a
1029.426758	n/a	263533.25	largeHSmallH	correct	congruent	0.40967	no	H	H
1029.836426	n/a	263638.125	responseSmallH	correct	n/a	0.40967	no	n/a	n/a
1030.906738	n/a	263912.125	largeHSmallH	correct	congruent	0.56787	no	H	H
1031.474609	n/a	264057.5	responseSmallH	correct	n/a	0.56787	no	n/a	n/a
1032.546387	n/a	264331.875	largeTSmallT	correct	congruent	0.44678	no	T	T
1032.993164	n/a	264446.25	responseSmallT	correct	n/a	0.44678	no	n/a	n/a
1034.053223	n/a	264717.625	largeTSmallH	correct	incongruent	0.44336	no	T	H
1034.496582	n/a	264831.125	responseSmallH	correct	n/a	0.44336	no	n/a	n/a
1035.573242	n/a	265106.75	largeTSmallT	correct	congruent	0.54443	no	T	T
1036.117676	n/a	265246.125	responseSmallT	correct	n/a	0.54443	no	n/a	n/a
1037.199707	n/a	265523.125	largeHSmallT	correct	incongruent	0.57275	no	H	T
1037.772461	n/a	265669.75	responseSmallT	correct	n/a	0.57275	no	n/a	n/a
1038.853027	n/a	265946.375	largeHSmallT	correct	incongruent	0.60742	no	H	T
1039.460449	n/a	266101.875	responseSmallT	correct	n/a	0.60742	no	n/a	n/a
1040.533203	n/a	266376.5	largeTSmallH	correct	incongruent	0.39258	no	T	H
1040.925781	n/a	266477	responseSmallH	correct	n/a	0.39258	no	n/a	n/a
1041.999512	n/a	266751.875	largeTSmallH	correct	incongruent	0.51514	no	T	H
1042.514648	n/a	266883.75	responseSmallH	correct	n/a	0.51514	no	n/a	n/a
1043.599609	n/a	267161.5	largeHSmallT	correct	incongruent	0.44922	no	H	T
1044.048828	n/a	267276.5	responseSmallT	correct	n/a	0.44922	no	n/a	n/a
1045.119629	n/a	267550.625	largeTSmallT	correct	congruent	0.48535	no	T	T
1045.60498	n/a	267674.875	responseSmallT	correct	n/a	0.48535	no	n/a	n/a
1046.679688	n/a	267950	largeHSmallH	correct	congruent	0.51123	no	H	H
1047.190918	n/a	268080.875	responseSmallH	correct	n/a	0.51123	no	n/a	n/a
1048.25293	n/a	268352.75	largeTSmallH	error	incongruent	0.37842	no	T	H
1048.631348	n/a	268449.625	responseSmallT	error	n/a	0.37842	no	n/a	n/a
1049.706055	n/a	268724.75	largeHSmallT	correct	incongruent	0.43555	no	H	T
1050.141602	n/a	268836.25	responseSmallT	correct	n/a	0.43555	no	n/a	n/a
1051.199219	n/a	269107	largeTSmallH	correct	incongruent	0.35498	no	T	H
1051.554199	n/a	269197.875	responseSmallH	correct	n/a	0.35498	no	n/a	n/a
1052.625977	n/a	269472.25	largeTSmallT	correct	congruent	0.52002	no	T	T
1053.145996	n/a	269605.375	responseSmallT	correct	n/a	0.52002	no	n/a	n/a
1054.212402	n/a	269878.375	largeHSmallH	correct	congruent	0.45459	no	H	H
1054.666992	n/a	269994.75	responseSmallH	correct	n/a	0.45459	no	n/a	n/a
1055.746094	n/a	270271	largeTSmallH	correct	incongruent	0.60742	no	T	H
1056.353516	n/a	270426.5	responseSmallH	correct	n/a	0.60742	no	n/a	n/a
1057.425781	n/a	270701	largeTSmallH	correct	incongruent	0.49658	no	T	H
1057.922363	n/a	270828.125	responseSmallH	correct	n/a	0.49658	no	n/a	n/a
1058.98584	n/a	271100.375	largeTSmallT	correct	congruent	0.44824	no	T	T
1059.434082	n/a	271215.125	responseSmallT	correct	n/a	0.44824	no	n/a	n/a
1060.505859	n/a	271489.5	largeHSmallH	correct	congruent	0.45166	no	H	H
1060.95752	n/a	271605.125	responseSmallH	correct	n/a	0.45166	no	n/a	n/a
1062.039062	n/a	271882	largeTSmallT	correct	congruent	0.47949	no	T	T
1062.518555	n/a	272004.75	responseSmallT	correct	n/a	0.47949	no	n/a	n/a
1063.585449	n/a	272277.875	largeTSmallT	correct	congruent	0.52637	no	T	T
1064.111816	n/a	272412.625	responseSmallT	correct	n/a	0.52637	no	n/a	n/a
1065.186035	n/a	272687.625	largeHSmallT	correct	incongruent	0.50586	no	H	T
1065.691895	n/a	272817.125	responseSmallT	correct	n/a	0.50586	no	n/a	n/a
1066.759277	n/a	273090.375	largeHSmallH	correct	congruent	0.3374	no	H	H
1067.09668	n/a	273176.75	responseSmallH	correct	n/a	0.3374	no	n/a	n/a
1068.158691	n/a	273448.625	largeHSmallT	correct	incongruent	0.52979	no	H	T
1068.688477	n/a	273584.25	responseSmallT	correct	n/a	0.52979	no	n/a	n/a
1069.758789	n/a	273858.25	largeHSmallH	correct	congruent	0.46777	no	H	H
1070.226562	n/a	273978	responseSmallH	correct	n/a	0.46777	no	n/a	n/a
1071.291992	n/a	274250.75	largeHSmallH	error	congruent	0.29346	no	H	H
1071.585449	n/a	274325.875	responseSmallT	error	n/a	0.29346	no	n/a	n/a
1072.652344	n/a	274599	largeTSmallT	correct	congruent	0.52637	no	T	T
1073.178711	n/a	274733.75	responseSmallT	correct	n/a	0.52637	no	n/a	n/a
1074.251953	n/a	275008.5	largeTSmallH	correct	incongruent	0.40771	no	T	H
1074.659668	n/a	275112.875	responseSmallH	correct	n/a	0.40771	no	n/a	n/a
1075.731934	n/a	275387.375	largeTSmallH	correct	incongruent	0.50146	no	T	H
1076.233398	n/a	275515.75	responseSmallH	correct	n/a	0.50146	no	n/a	n/a
1077.305176	n/a	275790.125	largeHSmallH	error	congruent	0.81445	no	H	H
1078.119629	n/a	275998.625	responseSmallT	error	n/a	0.81445	no	n/a	n/a
1079.19873	n/a	276274.875	largeHSmallH	correct	congruent	0.53418	no	H	H
1079.73291	n/a	276411.625	responseSmallH	correct	n/a	0.53418	no	n/a	n/a
1080.79834	n/a	276684.375	largeTSmallH	correct	incongruent	0.49268	no	T	H
1081.291016	n/a	276810.5	responseSmallH	correct	n/a	0.49268	no	n/a	n/a
1082.358398	n/a	277083.75	largeHSmallT	correct	incongruent	0.46143	no	H	T
1082.819824	n/a	277201.875	responseSmallT	correct	n/a	0.46143	no	n/a	n/a
1083.89209	n/a	277476.375	largeHSmallH	correct	congruent	0.38281	no	H	H
1084.274902	n/a	277574.375	responseSmallH	correct	n/a	0.38281	no	n/a	n/a
1085.345215	n/a	277848.375	largeHSmallT	correct	incongruent	0.3501	no	H	T
1085.695312	n/a	277938	responseSmallT	correct	n/a	0.3501	no	n/a	n/a
1086.771973	n/a	278213.625	largeTSmallT	error	congruent	0.38867	no	T	T
1087.160645	n/a	278313.125	responseSmallH	error	n/a	0.38867	no	n/a	n/a
1088.225098	n/a	278585.625	largeTSmallH	correct	incongruent	0.43945	no	T	H
1088.664551	n/a	278698.125	responseSmallH	correct	n/a	0.43945	no	n/a	n/a
1089.731445	n/a	278971.25	largeHSmallH	correct	congruent	0.51855	no	H	H
1090.25	n/a	279104	responseSmallH	correct	n/a	0.51855	no	n/a	n/a
1091.332031	n/a	279381	largeHSmallT	correct	incongruent	0.39697	no	H	T
1091.729004	n/a	279482.625	responseSmallT	correct	n/a	0.39697	no	n/a	n/a
1092.79834	n/a	279756.375	largeHSmallH	correct	congruent	0.49951	no	H	H
1093.297852	n/a	279884.25	responseSmallH	correct	n/a	0.49951	no	n/a	n/a
1094.371582	n/a	280159.125	largeTSmallT	correct	congruent	0.43408	no	T	T
1094.805664	n/a	280270.25	responseSmallT	correct	n/a	0.43408	no	n/a	n/a
1095.87793	n/a	280544.75	largeTSmallT	correct	congruent	0.54443	no	T	T
1096.422363	n/a	280684.125	responseSmallT	correct	n/a	0.54443	no	n/a	n/a
1097.491699	n/a	280957.875	largeTSmallH	correct	incongruent	0.39795	no	T	H
1097.889648	n/a	281059.75	responseSmallH	correct	n/a	0.39795	no	n/a	n/a
1098.958496	n/a	281333.375	largeHSmallH	correct	congruent	0.54541	no	H	H
1099.503906	n/a	281473	responseSmallH	correct	n/a	0.54541	no	n/a	n/a
1100.584961	n/a	281749.75	largeHSmallH	error	congruent	0.32178	no	H	H
1100.906738	n/a	281832.125	responseSmallT	error	n/a	0.32178	no	n/a	n/a
1101.984863	n/a	282108.125	largeHSmallT	correct	incongruent	0.46631	no	H	T
1102.451172	n/a	282227.5	responseSmallT	correct	n/a	0.46631	no	n/a	n/a
1103.53125	n/a	282504	largeTSmallH	correct	incongruent	0.4624	no	T	H
1103.993652	n/a	282622.375	responseSmallH	correct	n/a	0.4624	no	n/a	n/a
1105.078125	n/a	282900	largeHSmallT	correct	incongruent	0.46191	no	H	T
