onset	duration	sample	value	stimulus	response_type	response_time
16.89453125	n/a	4325	D	nontarget	n/a	n/a
18.4609375	n/a	4726	A	nontarget	n/a	n/a
20.01953125	n/a	5125	A	nontarget	n/a	n/a
21.58203125	n/a	5525	A	nontarget	n/a	n/a
23.140625	n/a	5924	A	target	hit	125
23.265625	n/a	5956	rt	n/a	hit	125
24.703125	n/a	6324	D	nontarget	n/a	n/a
26.2734375	n/a	6726	A	target	hit	1062.5
27.3359375	n/a	6998	rt	n/a	hit	1062.5
27.84765625	n/a	7129	B	nontarget	n/a	n/a
29.421875	n/a	7532	B	nontarget	n/a	n/a
30.99609375	n/a	7935	D	nontarget	n/a	n/a
32.56640625	n/a	8337	A	nontarget	n/a	n/a
34.140625	n/a	8740	B	target	miss	n/a
35.71484375	n/a	9143	A	nontarget	miss	n/a
37.27734375	n/a	9543	A	target	hit	675.7812
37.953125	n/a	9716	rt	n/a	hit	675.7812
38.859375	n/a	9948	D	nontarget	n/a	n/a
40.43359375	n/a	10351	B	nontarget	n/a	n/a
42.0078125	n/a	10754	C	nontarget	n/a	n/a
43.58203125	n/a	11157	A	nontarget	n/a	n/a
45.15234375	n/a	11559	A	nontarget	n/a	n/a
46.73046875	n/a	11963	C	target	miss	n/a
48.3125	n/a	12368	A	target	miss	n/a
49.890625	n/a	12772	D	nontarget	miss	n/a
51.4609375	n/a	13174	A	nontarget	n/a	n/a
53.03515625	n/a	13577	A	target	hit	1246.0938
54.28125	n/a	13896	rt	n/a	hit	1246.0938
54.60546875	n/a	13979	C	nontarget	n/a	n/a
56.16796875	n/a	14379	D	nontarget	n/a	n/a
57.73828125	n/a	14781	A	target	miss	n/a
59.30078125	n/a	15181	D	nontarget	miss	n/a
60.875	n/a	15584	D	target	miss	n/a
62.44921875	n/a	15987	A	target	hit	468.75
62.91796875	n/a	16107	rt	n/a	hit	468.75
64.01953125	n/a	16389	A	nontarget	n/a	n/a
65.59375	n/a	16792	D	target	hit	683.5938
66.27734375	n/a	16967	rt	n/a	hit	683.5938
67.1640625	n/a	17194	B	nontarget	n/a	n/a
68.7421875	n/a	17598	C	nontarget	n/a	n/a
70.3125	n/a	18000	C	nontarget	n/a	n/a
71.88671875	n/a	18403	D	nontarget	n/a	n/a
73.4609375	n/a	18806	A	nontarget	n/a	n/a
75.03515625	n/a	19209	D	nontarget	false_alarm	472.6562
75.5078125	n/a	19330	rt	n/a	false_alarm	472.6562
76.60546875	n/a	19611	D	target	miss	n/a
78.1796875	n/a	20014	D	nontarget	miss	n/a
79.75390625	n/a	20417	C	nontarget	n/a	n/a
81.3125	n/a	20816	A	nontarget	n/a	n/a
82.875	n/a	21216	D	target	hit	593.75
83.46875	n/a	21368	rt	n/a	hit	593.75
84.4453125	n/a	21618	C	target	hit	753.9062
85.19921875	n/a	21811	rt	n/a	hit	753.9062
86.01953125	n/a	22021	A	target	hit	468.75
86.48828125	n/a	22141	rt	n/a	hit	468.75
87.59375	n/a	22424	D	target	hit	425.7812
88.01953125	n/a	22533	rt	n/a	hit	425.7812
89.1640625	n/a	22826	C	target	miss	n/a
90.73828125	n/a	23229	D	nontarget	miss	n/a
92.3125	n/a	23632	B	nontarget	n/a	n/a
93.8984375	n/a	24038	D	nontarget	n/a	n/a
95.47265625	n/a	24441	B	nontarget	n/a	n/a
97.046875	n/a	24844	C	nontarget	n/a	n/a
98.6171875	n/a	25246	C	nontarget	n/a	n/a
100.1914062	n/a	25649	A	nontarget	n/a	n/a
101.765625	n/a	26052	D	nontarget	n/a	n/a
103.3398438	n/a	26455	B	nontarget	n/a	n/a
104.9140625	n/a	26858	D	nontarget	n/a	n/a
106.484375	n/a	27260	B	nontarget	n/a	n/a
108.0625	n/a	27664	C	nontarget	n/a	n/a
109.6328125	n/a	28066	B	nontarget	n/a	n/a
111.2070312	n/a	28469	C	nontarget	n/a	n/a
112.7773438	n/a	28871	D	nontarget	n/a	n/a
114.3398438	n/a	29271	B	target	miss	n/a
115.9257812	n/a	29677	C	target	miss	n/a
117.5	n/a	30080	C	nontarget	miss	n/a
119.0703125	n/a	30482	D	nontarget	n/a	n/a
120.6445312	n/a	30885	B	nontarget	n/a	n/a
122.21875	n/a	31288	C	target	miss	n/a
123.7929688	n/a	31691	C	nontarget	false_alarm	648.4375
124.4414062	n/a	31857	rt	n/a	false_alarm	648.4375
125.3515625	n/a	32090	C	nontarget	n/a	n/a
126.9375	n/a	32496	D	nontarget	n/a	n/a
128.5117188	n/a	32899	B	nontarget	n/a	n/a
130.0859375	n/a	33302	D	nontarget	n/a	n/a
131.6601562	n/a	33705	B	nontarget	n/a	n/a
133.2304688	n/a	34107	D	nontarget	n/a	n/a
134.8046875	n/a	34510	B	nontarget	n/a	n/a
136.3789062	n/a	34913	A	nontarget	n/a	n/a
137.953125	n/a	35316	A	nontarget	n/a	n/a
139.5273438	n/a	35719	B	target	hit	1289.0625
140.8164062	n/a	36049	rt	n/a	hit	1289.0625
141.0976562	n/a	36121	A	target	hit	679.6875
141.7773438	n/a	36295	rt	n/a	hit	679.6875
142.671875	n/a	36524	C	nontarget	n/a	n/a
144.2460938	n/a	36927	D	nontarget	n/a	n/a
145.8203125	n/a	37330	C	nontarget	n/a	n/a
147.3789062	n/a	37729	B	nontarget	n/a	n/a
148.9375	n/a	38128	D	target	hit	734.375
149.671875	n/a	38316	rt	n/a	hit	734.375
150.5	n/a	38528	B	nontarget	n/a	n/a
152.0703125	n/a	38930	A	nontarget	n/a	n/a
153.6445312	n/a	39333	C	nontarget	n/a	n/a
155.21875	n/a	39736	A	nontarget	n/a	n/a
156.7890625	n/a	40138	C	nontarget	n/a	n/a
158.3632812	n/a	40541	D	nontarget	n/a	n/a
159.9375	n/a	40944	B	nontarget	n/a	n/a
161.4960938	n/a	41343	A	nontarget	n/a	n/a
163.0585938	n/a	41743	C	nontarget	n/a	n/a
164.6445312	n/a	42149	C	nontarget	n/a	n/a
166.21875	n/a	42552	D	nontarget	n/a	n/a
167.7890625	n/a	42954	D	nontarget	n/a	n/a
169.3632812	n/a	43357	B	nontarget	n/a	n/a
170.9375	n/a	43760	D	target	hit	593.75
171.53125	n/a	43912	rt	n/a	hit	593.75
172.5234375	n/a	44166	C	nontarget	n/a	n/a
174.0976562	n/a	44569	C	nontarget	n/a	n/a
175.671875	n/a	44972	A	nontarget	n/a	n/a
177.2421875	n/a	45374	B	nontarget	n/a	n/a
178.8203125	n/a	45778	A	nontarget	n/a	n/a
180.390625	n/a	46180	D	nontarget	n/a	n/a
181.9648438	n/a	46583	A	nontarget	n/a	n/a
183.5507812	n/a	46989	D	nontarget	n/a	n/a
185.125	n/a	47392	C	nontarget	n/a	n/a
186.6953125	n/a	47794	C	nontarget	n/a	n/a
188.2695312	n/a	48197	C	nontarget	n/a	n/a
189.84375	n/a	48600	D	nontarget	n/a	n/a
191.4296875	n/a	49006	B	nontarget	n/a	n/a
193.0039062	n/a	49409	C	target	hit	734.375
193.7382812	n/a	49597	rt	n/a	hit	734.375
194.578125	n/a	49812	C	nontarget	n/a	n/a
196.1484375	n/a	50214	B	target	hit	480.4688
196.6289062	n/a	50337	rt	n/a	hit	480.4688
197.7226562	n/a	50617	D	nontarget	n/a	n/a
199.296875	n/a	51020	A	nontarget	n/a	n/a
200.8828125	n/a	51426	A	nontarget	n/a	n/a
202.4570312	n/a	51829	B	nontarget	n/a	n/a
204.03125	n/a	52232	D	nontarget	n/a	n/a
205.6015625	n/a	52634	B	nontarget	n/a	n/a
207.1796875	n/a	53038	A	nontarget	n/a	n/a
208.7617188	n/a	53443	D	target	hit	750
209.5117188	n/a	53635	rt	n/a	hit	750
210.3359375	n/a	53846	C	nontarget	n/a	n/a
211.9101562	n/a	54249	A	target	miss	n/a
213.484375	n/a	54652	D	target	hit	531.25
214.015625	n/a	54788	rt	n/a	hit	531.25
215.0585938	n/a	55055	D	nontarget	n/a	n/a
216.6289062	n/a	55457	D	nontarget	n/a	n/a
218.2148438	n/a	55863	A	nontarget	n/a	n/a
219.7890625	n/a	56266	D	target	miss	n/a
221.3632812	n/a	56669	B	nontarget	miss	n/a
222.9375	n/a	57072	C	nontarget	n/a	n/a
224.5117188	n/a	57475	A	nontarget	n/a	n/a
226.0820312	n/a	57877	B	target	hit	550.7812
226.6328125	n/a	58018	rt	n/a	hit	550.7812
227.6445312	n/a	58277	A	nontarget	n/a	n/a
229.2304688	n/a	58683	C	nontarget	n/a	n/a
230.8046875	n/a	59086	A	nontarget	n/a	n/a
232.3789062	n/a	59489	B	nontarget	n/a	n/a
233.9492188	n/a	59891	B	nontarget	n/a	n/a
235.5234375	n/a	60294	B	nontarget	n/a	n/a
237.09375	n/a	60696	B	target	hit	429.6875
237.5234375	n/a	60806	rt	n/a	hit	429.6875
238.65625	n/a	61096	B	target	hit	453.125
239.109375	n/a	61212	rt	n/a	hit	453.125
240.2148438	n/a	61495	B	target	miss	n/a
241.8007812	n/a	61901	D	nontarget	miss	n/a
243.375	n/a	62304	D	nontarget	n/a	n/a
244.9492188	n/a	62707	D	nontarget	n/a	n/a
246.5234375	n/a	63110	A	nontarget	n/a	n/a
248.0976562	n/a	63513	D	target	hit	1070.3125
249.1679688	n/a	63787	rt	n/a	hit	1070.3125
249.6835938	n/a	63919	A	nontarget	n/a	n/a
251.2539062	n/a	64321	B	nontarget	n/a	n/a
252.828125	n/a	64724	D	target	miss	n/a
254.4023438	n/a	65127	B	nontarget	miss	n/a
255.9765625	n/a	65530	C	nontarget	n/a	n/a
257.5507812	n/a	65933	D	target	hit	1035.1562
258.5859375	n/a	66198	rt	n/a	hit	1035.1562
259.1210938	n/a	66335	D	nontarget	n/a	n/a
260.6835938	n/a	66735	D	nontarget	n/a	n/a
262.2421875	n/a	67134	A	nontarget	n/a	n/a
263.8046875	n/a	67534	B	nontarget	false_alarm	453.125
264.2578125	n/a	67650	rt	n/a	false_alarm	453.125
265.3867188	n/a	67939	A	nontarget	n/a	n/a
266.9609375	n/a	68342	B	nontarget	n/a	n/a
268.5351562	n/a	68745	D	nontarget	false_alarm	562.5
269.0976562	n/a	68889	rt	n/a	false_alarm	562.5
270.109375	n/a	69148	B	nontarget	n/a	n/a
271.6835938	n/a	69551	D	nontarget	n/a	n/a
273.2578125	n/a	69954	A	nontarget	n/a	n/a
274.8398438	n/a	70359	A	nontarget	n/a	n/a
276.4140625	n/a	70762	D	target	hit	1457.0312
277.8710938	n/a	71135	rt	n/a	hit	1457.0312
277.9882812	n/a	71165	A	target	hit	550.7812
278.5390625	n/a	71306	rt	n/a	hit	550.7812
279.5625	n/a	71568	B	nontarget	n/a	n/a
281.1367188	n/a	71971	D	target	hit	570.3125
281.7070312	n/a	72117	rt	n/a	hit	570.3125
282.7226562	n/a	72377	C	nontarget	n/a	n/a
284.2929688	n/a	72779	B	target	hit	609.375
284.9023438	n/a	72935	rt	n/a	hit	609.375
285.8710938	n/a	73183	B	nontarget	n/a	n/a
287.4414062	n/a	73585	A	nontarget	n/a	n/a
289.015625	n/a	73988	A	nontarget	n/a	n/a
290.5898438	n/a	74391	A	nontarget	n/a	n/a
292.1757812	n/a	74797	D	nontarget	n/a	n/a
293.75	n/a	75200	D	nontarget	n/a	n/a
295.3203125	n/a	75602	D	nontarget	n/a	n/a
296.8945312	n/a	76005	C	nontarget	n/a	n/a
298.46875	n/a	76408	C	nontarget	n/a	n/a
300.0429688	n/a	76811	D	target	hit	531.25
300.5742188	n/a	76947	rt	n/a	hit	531.25
301.6015625	n/a	77210	B	nontarget	n/a	n/a
303.1757812	n/a	77613	D	nontarget	n/a	n/a
304.7460938	n/a	78015	A	nontarget	n/a	n/a
306.3242188	n/a	78419	C	nontarget	n/a	n/a
307.8945312	n/a	78821	D	target	miss	n/a
309.46875	n/a	79224	D	nontarget	miss	n/a
311.0390625	n/a	79626	D	nontarget	n/a	n/a
312.6289062	n/a	80033	C	nontarget	n/a	n/a
314.203125	n/a	80436	A	nontarget	n/a	n/a
315.7734375	n/a	80838	D	target	hit	503.9062
316.2773438	n/a	80967	rt	n/a	hit	503.9062
317.3476562	n/a	81241	D	nontarget	n/a	n/a
318.921875	n/a	81644	B	nontarget	n/a	n/a
320.4960938	n/a	82047	A	nontarget	n/a	n/a
322.078125	n/a	82452	B	nontarget	n/a	n/a
323.6523438	n/a	82855	C	nontarget	n/a	n/a
325.2304688	n/a	83259	C	nontarget	n/a	n/a
326.8007812	n/a	83661	C	nontarget	n/a	n/a
328.375	n/a	84064	B	nontarget	n/a	n/a
329.9453125	n/a	84466	D	nontarget	n/a	n/a
331.5078125	n/a	84866	D	nontarget	n/a	n/a
333.0664062	n/a	85265	A	nontarget	n/a	n/a
334.625	n/a	85664	D	target	hit	480.4688
335.1054688	n/a	85787	rt	n/a	hit	480.4688
336.1875	n/a	86064	D	target	hit	542.9688
336.7304688	n/a	86203	rt	n/a	hit	542.9688
337.7617188	n/a	86467	D	nontarget	n/a	n/a
339.3320312	n/a	86869	B	nontarget	n/a	n/a
340.90625	n/a	87272	C	nontarget	n/a	n/a
342.4804688	n/a	87675	D	target	miss	n/a
344.21875	n/a	88120	B	target	miss	n/a
345.7851562	n/a	88521	D	nontarget	miss	n/a
347.359375	n/a	88924	A	nontarget	n/a	n/a
348.9335938	n/a	89327	D	nontarget	n/a	n/a
350.5195312	n/a	89733	D	target	miss	n/a
352.09375	n/a	90136	B	nontarget	miss	n/a
353.6679688	n/a	90539	A	nontarget	n/a	n/a
355.2421875	n/a	90942	D	target	miss	n/a
356.8125	n/a	91344	B	target	hit	773.4375
357.5859375	n/a	91542	rt	n/a	hit	773.4375
358.3867188	n/a	91747	C	nontarget	n/a	n/a
359.9609375	n/a	92150	A	nontarget	n/a	n/a
361.5351562	n/a	92553	A	nontarget	n/a	n/a
363.1054688	n/a	92955	A	nontarget	n/a	n/a
364.6796875	n/a	93358	B	nontarget	n/a	n/a
366.2539062	n/a	93761	D	nontarget	n/a	n/a
367.828125	n/a	94164	A	target	miss	n/a
369.3984375	n/a	94566	A	nontarget	miss	n/a
370.984375	n/a	94972	A	nontarget	n/a	n/a
372.5585938	n/a	95375	B	nontarget	n/a	n/a
374.1328125	n/a	95778	B	nontarget	n/a	n/a
375.7070312	n/a	96181	A	target	miss	n/a
377.28125	n/a	96584	D	nontarget	miss	n/a
378.8515625	n/a	96986	C	nontarget	n/a	n/a
380.4257812	n/a	97389	C	nontarget	n/a	n/a
382	n/a	97792	C	nontarget	n/a	n/a
383.5742188	n/a	98195	D	nontarget	n/a	n/a
385.1445312	n/a	98597	A	nontarget	n/a	n/a
386.71875	n/a	99000	D	nontarget	n/a	n/a
388.2929688	n/a	99403	A	nontarget	n/a	n/a
389.8671875	n/a	99806	D	nontarget	n/a	n/a
391.4257812	n/a	100205	B	nontarget	n/a	n/a
393	n/a	100608	D	nontarget	n/a	n/a
394.5742188	n/a	101011	D	target	hit	753.9062
395.328125	n/a	101204	rt	n/a	hit	753.9062
396.1445312	n/a	101413	C	nontarget	n/a	n/a
397.71875	n/a	101816	D	target	hit	457.0312
398.1757812	n/a	101933	rt	n/a	hit	457.0312
399.2929688	n/a	102219	B	nontarget	n/a	n/a
400.8632812	n/a	102621	A	nontarget	n/a	n/a
402.4257812	n/a	103021	C	nontarget	n/a	n/a
403.984375	n/a	103420	D	nontarget	n/a	n/a
405.546875	n/a	103820	C	nontarget	n/a	n/a
407.1054688	n/a	104219	D	nontarget	n/a	n/a
408.6640625	n/a	104618	B	nontarget	n/a	n/a
410.2226562	n/a	105017	B	nontarget	n/a	n/a
411.7851562	n/a	105417	C	nontarget	n/a	n/a
413.34375	n/a	105816	D	nontarget	n/a	n/a
414.90625	n/a	106216	A	nontarget	n/a	n/a
416.4648438	n/a	106615	A	nontarget	n/a	n/a
418.0234375	n/a	107014	A	nontarget	n/a	n/a
419.5859375	n/a	107414	D	nontarget	n/a	n/a
421.1445312	n/a	107813	C	nontarget	n/a	n/a
422.7070312	n/a	108213	B	nontarget	n/a	n/a
424.265625	n/a	108612	D	target	hit	750
425.015625	n/a	108804	rt	n/a	hit	750
425.8515625	n/a	109018	A	nontarget	n/a	n/a
427.4257812	n/a	109421	A	nontarget	n/a	n/a
429	n/a	109824	D	target	hit	855.4688
429.8554688	n/a	110043	rt	n/a	hit	855.4688
430.5703125	n/a	110226	B	nontarget	false_alarm	417.9688
430.9882812	n/a	110333	rt	n/a	false_alarm	417.9688
432.1445312	n/a	110629	D	nontarget	n/a	n/a
433.7304688	n/a	111035	D	target	hit	664.0625
434.3945312	n/a	111205	rt	n/a	hit	664.0625
435.3046875	n/a	111438	B	target	hit	460.9375
435.765625	n/a	111556	rt	n/a	hit	460.9375
436.8789062	n/a	111841	B	nontarget	n/a	n/a
438.4492188	n/a	112243	D	target	hit	871.0938
439.3203125	n/a	112466	rt	n/a	hit	871.0938
440.0234375	n/a	112646	B	target	hit	394.5312
440.4179688	n/a	112747	rt	n/a	hit	394.5312
441.5976562	n/a	113049	A	nontarget	n/a	n/a
443.171875	n/a	113452	D	target	miss	n/a
444.734375	n/a	113852	C	nontarget	miss	n/a
446.3164062	n/a	114257	B	nontarget	n/a	n/a
447.890625	n/a	114660	A	nontarget	n/a	n/a
449.4648438	n/a	115063	C	target	miss	n/a
451.0351562	n/a	115465	B	target	hit	750
451.7851562	n/a	115657	rt	n/a	hit	750
452.625	n/a	115872	B	nontarget	n/a	n/a
454.1953125	n/a	116274	C	target	miss	n/a
455.7695312	n/a	116677	D	nontarget	miss	n/a
