onset	duration	sample	value	response_type	congruence	response_time	response_out_of_range	largeletter	smallletter
12.68359375	n/a	3247	largeTSmallT	correct	congruent	0.88672	no	T	T
13.5703125	n/a	3474	responseLargeT	correct	n/a	0.88672	no	n/a	n/a
14.64453125	n/a	3749	largeHSmallT	correct	incongruent	0.58203	no	H	T
15.2265625	n/a	3898	responseLargeH	correct	n/a	0.58203	no	n/a	n/a
16.296875	n/a	4172	largeTSmallH	correct	incongruent	0.54688	no	T	H
16.84375	n/a	4312	responseLargeT	correct	n/a	0.54688	no	n/a	n/a
17.91015625	n/a	4585	largeHSmallT	correct	incongruent	0.62891	no	H	T
18.5390625	n/a	4746	responseLargeH	correct	n/a	0.62891	no	n/a	n/a
19.60546875	n/a	5019	largeHSmallH	correct	congruent	0.50781	no	H	H
20.11328125	n/a	5149	responseLargeH	correct	n/a	0.50781	no	n/a	n/a
21.17578125	n/a	5421	largeTSmallH	correct	incongruent	0.5625	no	T	H
21.73828125	n/a	5565	responseLargeT	correct	n/a	0.5625	no	n/a	n/a
22.8046875	n/a	5838	largeTSmallH	correct	incongruent	0.56641	no	T	H
23.37109375	n/a	5983	responseLargeT	correct	n/a	0.56641	no	n/a	n/a
24.4453125	n/a	6258	largeTSmallT	correct	congruent	0.45703	no	T	T
24.90234375	n/a	6375	responseLargeT	correct	n/a	0.45703	no	n/a	n/a
25.9765625	n/a	6650	largeTSmallT	correct	congruent	0.39844	no	T	T
26.375	n/a	6752	responseLargeT	correct	n/a	0.39844	no	n/a	n/a
27.4453125	n/a	7026	largeHSmallH	correct	congruent	0.40234	no	H	H
27.84765625	n/a	7129	responseLargeH	correct	n/a	0.40234	no	n/a	n/a
28.92578125	n/a	7405	largeHSmallH	correct	congruent	0.47656	no	H	H
29.40234375	n/a	7527	responseLargeH	correct	n/a	0.47656	no	n/a	n/a
30.484375	n/a	7804	largeHSmallT	correct	incongruent	0.45312	no	H	T
30.9375	n/a	7920	responseLargeH	correct	n/a	0.45312	no	n/a	n/a
32.00390625	n/a	8193	largeHSmallT	correct	incongruent	0.48047	no	H	T
32.484375	n/a	8316	responseLargeH	correct	n/a	0.48047	no	n/a	n/a
33.55078125	n/a	8589	largeHSmallT	correct	incongruent	0.39844	no	H	T
33.94921875	n/a	8691	responseLargeH	correct	n/a	0.39844	no	n/a	n/a
35.015625	n/a	8964	largeTSmallT	error	congruent	0.41406	no	T	T
35.4296875	n/a	9070	responseLargeH	error	n/a	0.41406	no	n/a	n/a
36.49609375	n/a	9343	largeTSmallH	error	incongruent	0.51953	no	T	H
37.015625	n/a	9476	responseLargeH	error	n/a	0.51953	no	n/a	n/a
38.08203125	n/a	9749	largeHSmallH	correct	congruent	0.66797	no	H	H
38.75	n/a	9920	responseLargeH	correct	n/a	0.66797	no	n/a	n/a
39.83203125	n/a	10197	largeHSmallH	correct	congruent	0.46094	no	H	H
40.29296875	n/a	10315	responseLargeH	correct	n/a	0.46094	no	n/a	n/a
41.37890625	n/a	10593	largeTSmallT	correct	congruent	0.41016	no	T	T
41.7890625	n/a	10698	responseLargeT	correct	n/a	0.41016	no	n/a	n/a
42.87109375	n/a	10975	largeHSmallT	correct	incongruent	0.48047	no	H	T
43.3515625	n/a	11098	responseLargeH	correct	n/a	0.48047	no	n/a	n/a
44.4296875	n/a	11374	largeTSmallT	correct	congruent	0.63672	no	T	T
45.06640625	n/a	11537	responseLargeT	correct	n/a	0.63672	no	n/a	n/a
46.13671875	n/a	11811	largeHSmallH	correct	congruent	0.44531	no	H	H
46.58203125	n/a	11925	responseLargeH	correct	n/a	0.44531	no	n/a	n/a
47.65625	n/a	12200	largeHSmallH	correct	congruent	0.44531	no	H	H
48.1015625	n/a	12314	responseLargeH	correct	n/a	0.44531	no	n/a	n/a
49.17578125	n/a	12589	largeTSmallT	correct	congruent	0.39453	no	T	T
49.5703125	n/a	12690	responseLargeT	correct	n/a	0.39453	no	n/a	n/a
50.62890625	n/a	12961	largeHSmallH	correct	congruent	0.44922	no	H	H
51.078125	n/a	13076	responseLargeH	correct	n/a	0.44922	no	n/a	n/a
52.1484375	n/a	13350	largeHSmallT	correct	incongruent	0.44922	no	H	T
52.59765625	n/a	13465	responseLargeH	correct	n/a	0.44922	no	n/a	n/a
53.671875	n/a	13740	largeHSmallT	correct	incongruent	0.47266	no	H	T
54.14453125	n/a	13861	responseLargeH	correct	n/a	0.47266	no	n/a	n/a
55.203125	n/a	14132	largeTSmallH	error	incongruent	0.36328	no	T	H
55.56640625	n/a	14225	responseLargeH	error	n/a	0.36328	no	n/a	n/a
56.64453125	n/a	14501	largeTSmallH	correct	incongruent	0.48828	no	T	H
57.1328125	n/a	14626	responseLargeT	correct	n/a	0.48828	no	n/a	n/a
58.203125	n/a	14900	largeHSmallH	correct	congruent	0.41797	no	H	H
58.62109375	n/a	15007	responseLargeH	correct	n/a	0.41797	no	n/a	n/a
59.68359375	n/a	15279	largeHSmallT	correct	incongruent	0.38281	no	H	T
60.06640625	n/a	15377	responseLargeH	correct	n/a	0.38281	no	n/a	n/a
61.13671875	n/a	15651	largeHSmallT	correct	incongruent	0.39844	no	H	T
61.53515625	n/a	15753	responseLargeH	correct	n/a	0.39844	no	n/a	n/a
62.6015625	n/a	16026	largeTSmallT	correct	congruent	0.44531	no	T	T
63.046875	n/a	16140	responseLargeT	correct	n/a	0.44531	no	n/a	n/a
64.109375	n/a	16412	largeTSmallH	correct	incongruent	0.50781	no	T	H
64.6171875	n/a	16542	responseLargeT	correct	n/a	0.50781	no	n/a	n/a
65.6953125	n/a	16818	largeTSmallH	correct	incongruent	0.42188	no	T	H
66.1171875	n/a	16926	responseLargeT	correct	n/a	0.42188	no	n/a	n/a
67.19140625	n/a	17201	largeTSmallT	correct	congruent	0.39453	no	T	T
67.5859375	n/a	17302	responseLargeT	correct	n/a	0.39453	no	n/a	n/a
68.65625	n/a	17576	largeHSmallH	correct	congruent	0.46875	no	H	H
69.125	n/a	17696	responseLargeH	correct	n/a	0.46875	no	n/a	n/a
70.203125	n/a	17972	largeTSmallT	correct	congruent	0.47656	no	T	T
70.6796875	n/a	18094	responseLargeT	correct	n/a	0.47656	no	n/a	n/a
71.76171875	n/a	18371	largeTSmallT	correct	congruent	0.41406	no	T	T
72.17578125	n/a	18477	responseLargeT	correct	n/a	0.41406	no	n/a	n/a
73.2421875	n/a	18750	largeTSmallH	correct	incongruent	0.35547	no	T	H
73.59765625	n/a	18841	responseLargeT	correct	n/a	0.35547	no	n/a	n/a
74.66796875	n/a	19115	largeTSmallH	correct	incongruent	0.39453	no	T	H
75.0625	n/a	19216	responseLargeT	correct	n/a	0.39453	no	n/a	n/a
76.13671875	n/a	19491	largeTSmallT	correct	congruent	0.33203	no	T	T
76.46875	n/a	19576	responseLargeT	correct	n/a	0.33203	no	n/a	n/a
77.55078125	n/a	19853	largeTSmallT	correct	congruent	0.41406	no	T	T
77.96484375	n/a	19959	responseLargeT	correct	n/a	0.41406	no	n/a	n/a
79.03125	n/a	20232	largeTSmallT	correct	congruent	0.41797	no	T	T
79.44921875	n/a	20339	responseLargeT	correct	n/a	0.41797	no	n/a	n/a
80.5234375	n/a	20614	largeTSmallT	correct	congruent	0.35547	no	T	T
80.87890625	n/a	20705	responseLargeT	correct	n/a	0.35547	no	n/a	n/a
81.94921875	n/a	20979	largeHSmallH	correct	congruent	0.52734	no	H	H
82.4765625	n/a	21114	responseLargeH	correct	n/a	0.52734	no	n/a	n/a
83.55078125	n/a	21389	largeHSmallT	correct	incongruent	0.36328	no	H	T
83.9140625	n/a	21482	responseLargeH	correct	n/a	0.36328	no	n/a	n/a
84.98828125	n/a	21757	largeHSmallT	correct	incongruent	0.35547	no	H	T
85.34375	n/a	21848	responseLargeH	correct	n/a	0.35547	no	n/a	n/a
86.40234375	n/a	22119	largeTSmallH	correct	incongruent	0.39062	no	T	H
86.79296875	n/a	22219	responseLargeT	correct	n/a	0.39062	no	n/a	n/a
87.85546875	n/a	22491	largeTSmallH	error	incongruent	0.34766	no	T	H
88.203125	n/a	22580	responseLargeH	error	n/a	0.34766	no	n/a	n/a
89.28125	n/a	22856	largeHSmallT	error	incongruent	0.51953	no	H	T
89.80078125	n/a	22989	responseLargeT	error	n/a	0.51953	no	n/a	n/a
90.87109375	n/a	23263	largeHSmallH	correct	congruent	0.46094	no	H	H
91.33203125	n/a	23381	responseLargeH	correct	n/a	0.46094	no	n/a	n/a
92.40234375	n/a	23655	largeTSmallH	correct	incongruent	0.54688	no	T	H
92.94921875	n/a	23795	responseLargeT	correct	n/a	0.54688	no	n/a	n/a
94.015625	n/a	24068	largeHSmallH	correct	congruent	0.39844	no	H	H
94.4140625	n/a	24170	responseLargeH	correct	n/a	0.39844	no	n/a	n/a
95.484375	n/a	24444	largeHSmallT	correct	incongruent	0.53906	no	H	T
96.0234375	n/a	24582	responseLargeH	correct	n/a	0.53906	no	n/a	n/a
97.09765625	n/a	24857	largeTSmallT	correct	congruent	0.54297	no	T	T
97.640625	n/a	24996	responseLargeT	correct	n/a	0.54297	no	n/a	n/a
98.72265625	n/a	25273	largeHSmallH	correct	congruent	0.5	no	H	H
99.22265625	n/a	25401	responseLargeH	correct	n/a	0.5	no	n/a	n/a
100.296875	n/a	25676	largeTSmallT	correct	congruent	0.55859	no	T	T
100.8554688	n/a	25819	responseLargeT	correct	n/a	0.55859	no	n/a	n/a
101.921875	n/a	26092	largeTSmallH	correct	incongruent	0.64062	no	T	H
102.5625	n/a	26256	responseLargeT	correct	n/a	0.64062	no	n/a	n/a
103.6289062	n/a	26529	largeTSmallT	correct	congruent	0.44922	no	T	T
104.078125	n/a	26644	responseLargeT	correct	n/a	0.44922	no	n/a	n/a
105.1367188	n/a	26915	largeHSmallT	correct	incongruent	0.45703	no	H	T
105.59375	n/a	27032	responseLargeH	correct	n/a	0.45703	no	n/a	n/a
106.65625	n/a	27304	largeHSmallH	correct	congruent	0.43359	no	H	H
107.0898438	n/a	27415	responseLargeH	correct	n/a	0.43359	no	n/a	n/a
108.1484375	n/a	27686	largeHSmallH	correct	congruent	0.4375	no	H	H
108.5859375	n/a	27798	responseLargeH	correct	n/a	0.4375	no	n/a	n/a
109.65625	n/a	28072	largeTSmallH	correct	incongruent	0.49609	no	T	H
110.1523438	n/a	28199	responseLargeT	correct	n/a	0.49609	no	n/a	n/a
111.2304688	n/a	28475	largeTSmallT	correct	congruent	0.41016	no	T	T
111.640625	n/a	28580	responseLargeT	correct	n/a	0.41016	no	n/a	n/a
112.7070312	n/a	28853	largeTSmallT	correct	congruent	0.43359	no	T	T
113.140625	n/a	28964	responseLargeT	correct	n/a	0.43359	no	n/a	n/a
114.203125	n/a	29236	largeHSmallH	correct	congruent	0.41797	no	H	H
114.6210938	n/a	29343	responseLargeH	correct	n/a	0.41797	no	n/a	n/a
115.6953125	n/a	29618	largeTSmallT	correct	congruent	0.45312	no	T	T
116.1484375	n/a	29734	responseLargeT	correct	n/a	0.45312	no	n/a	n/a
117.2148438	n/a	30007	largeHSmallH	correct	congruent	0.41406	no	H	H
117.6289062	n/a	30113	responseLargeH	correct	n/a	0.41406	no	n/a	n/a
118.6953125	n/a	30386	largeTSmallT	correct	congruent	0.41797	no	T	T
119.1132812	n/a	30493	responseLargeT	correct	n/a	0.41797	no	n/a	n/a
120.1875	n/a	30768	largeTSmallT	correct	congruent	0.51172	no	T	T
120.6992188	n/a	30899	responseLargeT	correct	n/a	0.51172	no	n/a	n/a
121.7734375	n/a	31174	largeHSmallH	error	congruent	0.41797	no	H	H
122.1914062	n/a	31281	responseLargeT	error	n/a	0.41797	no	n/a	n/a
123.2695312	n/a	31557	largeTSmallH	correct	incongruent	0.50781	no	T	H
123.7773438	n/a	31687	responseLargeT	correct	n/a	0.50781	no	n/a	n/a
124.84375	n/a	31960	largeHSmallT	correct	incongruent	0.51953	no	H	T
125.3632812	n/a	32093	responseLargeH	correct	n/a	0.51953	no	n/a	n/a
126.4414062	n/a	32369	largeHSmallH	correct	congruent	0.38672	no	H	H
126.828125	n/a	32468	responseLargeH	correct	n/a	0.38672	no	n/a	n/a
127.9101562	n/a	32745	largeTSmallT	correct	congruent	0.41406	no	T	T
128.3242188	n/a	32851	responseLargeT	correct	n/a	0.41406	no	n/a	n/a
129.4023438	n/a	33127	largeHSmallH	correct	congruent	0.50391	no	H	H
129.90625	n/a	33256	responseLargeH	correct	n/a	0.50391	no	n/a	n/a
130.9765625	n/a	33530	largeHSmallT	correct	incongruent	0.44922	no	H	T
131.4257812	n/a	33645	responseLargeH	correct	n/a	0.44922	no	n/a	n/a
132.4960938	n/a	33919	largeHSmallH	correct	congruent	0.51953	no	H	H
133.015625	n/a	34052	responseLargeH	correct	n/a	0.51953	no	n/a	n/a
134.0820312	n/a	34325	largeTSmallH	correct	incongruent	0.52734	no	T	H
134.609375	n/a	34460	responseLargeT	correct	n/a	0.52734	no	n/a	n/a
135.6679688	n/a	34731	largeHSmallH	correct	congruent	0.37109	no	H	H
136.0390625	n/a	34826	responseLargeH	correct	n/a	0.37109	no	n/a	n/a
137.109375	n/a	35100	largeHSmallT	error	incongruent	0.50781	no	H	T
137.6171875	n/a	35230	responseLargeT	error	n/a	0.50781	no	n/a	n/a
138.6796875	n/a	35502	largeHSmallH	error	congruent	0.51953	no	H	H
139.1992188	n/a	35635	responseLargeT	error	n/a	0.51953	no	n/a	n/a
140.28125	n/a	35912	largeTSmallH	error	incongruent	0.44141	no	T	H
140.7226562	n/a	36025	responseLargeH	error	n/a	0.44141	no	n/a	n/a
141.7890625	n/a	36298	largeTSmallH	correct	incongruent	0.57422	no	T	H
142.3632812	n/a	36445	responseLargeT	correct	n/a	0.57422	no	n/a	n/a
143.4296875	n/a	36718	largeTSmallT	correct	congruent	0.44141	no	T	T
143.8710938	n/a	36831	responseLargeT	correct	n/a	0.44141	no	n/a	n/a
144.9335938	n/a	37103	largeHSmallT	correct	incongruent	0.4375	no	H	T
145.3710938	n/a	37215	responseLargeH	correct	n/a	0.4375	no	n/a	n/a
146.4414062	n/a	37489	largeTSmallH	correct	incongruent	0.49219	no	T	H
146.9335938	n/a	37615	responseLargeT	correct	n/a	0.49219	no	n/a	n/a
148.015625	n/a	37892	largeHSmallT	correct	incongruent	0.38281	no	H	T
148.3984375	n/a	37990	responseLargeH	correct	n/a	0.38281	no	n/a	n/a
149.46875	n/a	38264	largeHSmallH	correct	congruent	0.49609	no	H	H
149.9648438	n/a	38391	responseLargeH	correct	n/a	0.49609	no	n/a	n/a
151.0429688	n/a	38667	largeTSmallT	correct	congruent	0.48438	no	T	T
151.5273438	n/a	38791	responseLargeT	correct	n/a	0.48438	no	n/a	n/a
152.6015625	n/a	39066	largeHSmallT	correct	incongruent	0.42969	no	H	T
153.03125	n/a	39176	responseLargeH	correct	n/a	0.42969	no	n/a	n/a
154.109375	n/a	39452	largeTSmallT	correct	congruent	0.41797	no	T	T
154.5273438	n/a	39559	responseLargeT	correct	n/a	0.41797	no	n/a	n/a
155.5898438	n/a	39831	largeTSmallT	correct	congruent	0.45703	no	T	T
156.046875	n/a	39948	responseLargeT	correct	n/a	0.45703	no	n/a	n/a
157.1210938	n/a	40223	largeHSmallT	correct	incongruent	0.44531	no	H	T
157.5664062	n/a	40337	responseLargeH	correct	n/a	0.44531	no	n/a	n/a
158.640625	n/a	40612	largeTSmallH	error	incongruent	0.40625	no	T	H
159.046875	n/a	40716	responseLargeH	error	n/a	0.40625	no	n/a	n/a
160.1210938	n/a	40991	largeTSmallT	correct	congruent	0.42969	no	T	T
160.5507812	n/a	41101	responseLargeT	correct	n/a	0.42969	no	n/a	n/a
161.6132812	n/a	41373	largeHSmallH	correct	congruent	0.45312	no	H	H
162.0664062	n/a	41489	responseLargeH	correct	n/a	0.45312	no	n/a	n/a
163.1484375	n/a	41766	largeHSmallT	correct	incongruent	0.45312	no	H	T
163.6015625	n/a	41882	responseLargeH	correct	n/a	0.45312	no	n/a	n/a
164.6679688	n/a	42155	largeHSmallT	correct	incongruent	0.44922	no	H	T
165.1171875	n/a	42270	responseLargeH	correct	n/a	0.44922	no	n/a	n/a
166.1875	n/a	42544	largeTSmallH	correct	incongruent	0.46094	no	T	H
166.6484375	n/a	42662	responseLargeT	correct	n/a	0.46094	no	n/a	n/a
167.7226562	n/a	42937	largeTSmallH	correct	incongruent	0.45312	no	T	H
168.1757812	n/a	43053	responseLargeT	correct	n/a	0.45312	no	n/a	n/a
169.2421875	n/a	43326	largeTSmallT	correct	congruent	0.40234	no	T	T
169.6445312	n/a	43429	responseLargeT	correct	n/a	0.40234	no	n/a	n/a
170.7070312	n/a	43701	largeTSmallH	correct	incongruent	0.45312	no	T	H
171.1601562	n/a	43817	responseLargeT	correct	n/a	0.45312	no	n/a	n/a
172.2421875	n/a	44094	largeHSmallT	correct	incongruent	0.4375	no	H	T
172.6796875	n/a	44206	responseLargeH	correct	n/a	0.4375	no	n/a	n/a
173.7460938	n/a	44479	largeTSmallT	error	congruent	0.46875	no	T	T
174.2148438	n/a	44599	responseLargeH	error	n/a	0.46875	no	n/a	n/a
175.28125	n/a	44872	largeHSmallH	correct	congruent	0.49219	no	H	H
175.7734375	n/a	44998	responseLargeH	correct	n/a	0.49219	no	n/a	n/a
176.8398438	n/a	45271	largeTSmallT	correct	congruent	0.46875	no	T	T
177.3085938	n/a	45391	responseLargeT	correct	n/a	0.46875	no	n/a	n/a
178.3867188	n/a	45667	largeTSmallT	correct	congruent	0.46484	no	T	T
178.8515625	n/a	45786	responseLargeT	correct	n/a	0.46484	no	n/a	n/a
179.9335938	n/a	46063	largeTSmallH	correct	incongruent	0.42969	no	T	H
180.3632812	n/a	46173	responseLargeT	correct	n/a	0.42969	no	n/a	n/a
181.4257812	n/a	46445	largeHSmallT	correct	incongruent	0.43359	no	H	T
181.859375	n/a	46556	responseLargeH	correct	n/a	0.43359	no	n/a	n/a
182.921875	n/a	46828	largeTSmallH	correct	incongruent	0.39453	no	T	H
183.3164062	n/a	46929	responseLargeT	correct	n/a	0.39453	no	n/a	n/a
184.3867188	n/a	47203	largeHSmallH	correct	congruent	0.44141	no	H	H
184.828125	n/a	47316	responseLargeH	correct	n/a	0.44141	no	n/a	n/a
185.90625	n/a	47592	largeTSmallT	correct	congruent	0.42969	no	T	T
186.3359375	n/a	47702	responseLargeT	correct	n/a	0.42969	no	n/a	n/a
187.3984375	n/a	47974	largeHSmallH	correct	congruent	0.38281	no	H	H
187.78125	n/a	48072	responseLargeH	correct	n/a	0.38281	no	n/a	n/a
188.8515625	n/a	48346	largeHSmallH	correct	congruent	0.45703	no	H	H
189.3085938	n/a	48463	responseLargeH	correct	n/a	0.45703	no	n/a	n/a
190.3867188	n/a	48739	largeHSmallH	correct	congruent	0.43359	no	H	H
190.8203125	n/a	48850	responseLargeH	correct	n/a	0.43359	no	n/a	n/a
191.8945312	n/a	49125	largeTSmallH	correct	incongruent	0.43359	no	T	H
192.328125	n/a	49236	responseLargeT	correct	n/a	0.43359	no	n/a	n/a
193.3984375	n/a	49510	largeHSmallH	correct	congruent	0.4375	no	H	H
193.8359375	n/a	49622	responseLargeH	correct	n/a	0.4375	no	n/a	n/a
194.90625	n/a	49896	largeHSmallT	correct	incongruent	0.42969	no	H	T
195.3359375	n/a	50006	responseLargeH	correct	n/a	0.42969	no	n/a	n/a
196.3984375	n/a	50278	largeHSmallT	correct	incongruent	0.41797	no	H	T
196.8164062	n/a	50385	responseLargeH	correct	n/a	0.41797	no	n/a	n/a
197.8789062	n/a	50657	largeTSmallH	correct	incongruent	0.4375	no	T	H
198.3164062	n/a	50769	responseLargeT	correct	n/a	0.4375	no	n/a	n/a
199.3867188	n/a	51043	largeTSmallH	correct	incongruent	0.42578	no	T	H
199.8125	n/a	51152	responseLargeT	correct	n/a	0.42578	no	n/a	n/a
200.8789062	n/a	51425	largeHSmallH	correct	congruent	0.46875	no	H	H
201.3476562	n/a	51545	responseLargeH	correct	n/a	0.46875	no	n/a	n/a
202.4257812	n/a	51821	largeTSmallH	correct	incongruent	0.42188	no	T	H
202.8476562	n/a	51929	responseLargeT	correct	n/a	0.42188	no	n/a	n/a
203.9179688	n/a	52203	largeHSmallT	correct	incongruent	0.40625	no	H	T
204.3242188	n/a	52307	responseLargeH	correct	n/a	0.40625	no	n/a	n/a
205.3867188	n/a	52579	largeHSmallH	correct	congruent	0.42578	no	H	H
205.8125	n/a	52688	responseLargeH	correct	n/a	0.42578	no	n/a	n/a
206.8789062	n/a	52961	largeTSmallH	correct	incongruent	0.47266	no	T	H
207.3515625	n/a	53082	responseLargeT	correct	n/a	0.47266	no	n/a	n/a
208.4140625	n/a	53354	largeHSmallT	correct	incongruent	0.41406	no	H	T
208.828125	n/a	53460	responseLargeH	correct	n/a	0.41406	no	n/a	n/a
209.8945312	n/a	53733	largeTSmallT	correct	congruent	0.48438	no	T	T
210.3789062	n/a	53857	responseLargeT	correct	n/a	0.48438	no	n/a	n/a
211.453125	n/a	54132	largeTSmallT	correct	congruent	0.42188	no	T	T
211.875	n/a	54240	responseLargeT	correct	n/a	0.42188	no	n/a	n/a
212.9453125	n/a	54514	largeTSmallT	correct	congruent	0.38672	no	T	T
213.3320312	n/a	54613	responseLargeT	correct	n/a	0.38672	no	n/a	n/a
214.3984375	n/a	54886	largeHSmallT	correct	incongruent	0.42578	no	H	T
214.8242188	n/a	54995	responseLargeH	correct	n/a	0.42578	no	n/a	n/a
215.8945312	n/a	55269	largeTSmallT	correct	congruent	0.43359	no	T	T
216.328125	n/a	55380	responseLargeT	correct	n/a	0.43359	no	n/a	n/a
217.3984375	n/a	55654	largeHSmallT	correct	incongruent	0.40234	no	H	T
217.8007812	n/a	55757	responseLargeH	correct	n/a	0.40234	no	n/a	n/a
218.8671875	n/a	56030	largeHSmallH	correct	congruent	0.42578	no	H	H
219.2929688	n/a	56139	responseLargeH	correct	n/a	0.42578	no	n/a	n/a
220.359375	n/a	56412	largeTSmallT	error	congruent	0.42578	no	T	T
220.7851562	n/a	56521	responseLargeH	error	n/a	0.42578	no	n/a	n/a
221.8515625	n/a	56794	largeTSmallH	correct	incongruent	0.53516	no	T	H
222.3867188	n/a	56931	responseLargeT	correct	n/a	0.53516	no	n/a	n/a
223.453125	n/a	57204	largeHSmallH	correct	congruent	0.375	no	H	H
223.828125	n/a	57300	responseLargeH	correct	n/a	0.375	no	n/a	n/a
224.90625	n/a	57576	largeTSmallT	correct	congruent	0.39844	no	T	T
225.3046875	n/a	57678	responseLargeT	correct	n/a	0.39844	no	n/a	n/a
226.3710938	n/a	57951	largeHSmallT	correct	incongruent	0.40234	no	H	T
226.7734375	n/a	58054	responseLargeH	correct	n/a	0.40234	no	n/a	n/a
227.8398438	n/a	58327	largeTSmallT	correct	congruent	0.44922	no	T	T
228.2890625	n/a	58442	responseLargeT	correct	n/a	0.44922	no	n/a	n/a
229.3710938	n/a	58719	largeTSmallH	correct	incongruent	0.44531	no	T	H
229.8164062	n/a	58833	responseLargeT	correct	n/a	0.44531	no	n/a	n/a
230.8789062	n/a	59105	largeHSmallT	correct	incongruent	0.52344	no	H	T
231.4023438	n/a	59239	responseLargeH	correct	n/a	0.52344	no	n/a	n/a
232.4648438	n/a	59511	largeTSmallH	correct	incongruent	0.48828	no	T	H
232.953125	n/a	59636	responseLargeT	correct	n/a	0.48828	no	n/a	n/a
234.0273438	n/a	59911	largeHSmallT	correct	incongruent	0.41016	no	H	T
234.4375	n/a	60016	responseLargeH	correct	n/a	0.41016	no	n/a	n/a
235.5195312	n/a	60293	largeTSmallT	correct	congruent	0.50391	no	T	T
236.0234375	n/a	60422	responseLargeT	correct	n/a	0.50391	no	n/a	n/a
237.09375	n/a	60696	largeTSmallH	correct	incongruent	0.42969	no	T	H
237.5234375	n/a	60806	responseLargeT	correct	n/a	0.42969	no	n/a	n/a
238.5976562	n/a	61081	largeHSmallT	correct	incongruent	0.43359	no	H	T
239.03125	n/a	61192	responseLargeH	correct	n/a	0.43359	no	n/a	n/a
240.09375	n/a	61464	largeHSmallH	correct	congruent	0.46094	no	H	H
240.5546875	n/a	61582	responseLargeH	correct	n/a	0.46094	no	n/a	n/a
241.625	n/a	61856	largeHSmallH	correct	congruent	0.5	no	H	H
242.125	n/a	61984	responseLargeH	correct	n/a	0.5	no	n/a	n/a
243.1835938	n/a	62255	largeHSmallH	correct	congruent	0.47656	no	H	H
243.6601562	n/a	62377	responseLargeH	correct	n/a	0.47656	no	n/a	n/a
244.7304688	n/a	62651	largeHSmallT	correct	incongruent	0.46484	no	H	T
245.1953125	n/a	62770	responseLargeH	correct	n/a	0.46484	no	n/a	n/a
246.265625	n/a	63044	largeHSmallT	correct	incongruent	0.47656	no	H	T
246.7421875	n/a	63166	responseLargeH	correct	n/a	0.47656	no	n/a	n/a
247.796875	n/a	63436	largeHSmallT	correct	incongruent	0.43359	no	H	T
248.2304688	n/a	63547	responseLargeH	correct	n/a	0.43359	no	n/a	n/a
249.3046875	n/a	63822	largeTSmallH	correct	incongruent	0.38281	no	T	H
249.6875	n/a	63920	responseLargeT	correct	n/a	0.38281	no	n/a	n/a
250.7578125	n/a	64194	largeTSmallH	correct	incongruent	0.47266	no	T	H
251.2304688	n/a	64315	responseLargeT	correct	n/a	0.47266	no	n/a	n/a
252.2929688	n/a	64587	largeTSmallT	correct	congruent	0.38672	no	T	T
252.6796875	n/a	64686	responseLargeT	correct	n/a	0.38672	no	n/a	n/a
253.7460938	n/a	64959	largeHSmallH	correct	congruent	0.40625	no	H	H
254.1523438	n/a	65063	responseLargeH	correct	n/a	0.40625	no	n/a	n/a
255.2265625	n/a	65338	largeTSmallH	correct	incongruent	0.37891	no	T	H
255.6054688	n/a	65435	responseLargeT	correct	n/a	0.37891	no	n/a	n/a
256.6796875	n/a	65710	largeTSmallH	correct	incongruent	0.40234	no	T	H
257.0820312	n/a	65813	responseLargeT	correct	n/a	0.40234	no	n/a	n/a
258.1445312	n/a	66085	largeHSmallT	correct	incongruent	0.38672	no	H	T
258.53125	n/a	66184	responseLargeH	correct	n/a	0.38672	no	n/a	n/a
259.5976562	n/a	66457	largeTSmallH	correct	incongruent	0.44531	no	T	H
260.0429688	n/a	66571	responseLargeT	correct	n/a	0.44531	no	n/a	n/a
261.1171875	n/a	66846	largeTSmallH	correct	incongruent	0.45703	no	T	H
261.5742188	n/a	66963	responseLargeT	correct	n/a	0.45703	no	n/a	n/a
262.6367188	n/a	67235	largeHSmallT	correct	incongruent	0.47266	no	H	T
263.109375	n/a	67356	responseLargeH	correct	n/a	0.47266	no	n/a	n/a
264.1835938	n/a	67631	largeTSmallH	correct	incongruent	0.48828	no	T	H
264.671875	n/a	67756	responseLargeT	correct	n/a	0.48828	no	n/a	n/a
265.7460938	n/a	68031	largeTSmallT	correct	congruent	0.45703	no	T	T
266.203125	n/a	68148	responseLargeT	correct	n/a	0.45703	no	n/a	n/a
267.2773438	n/a	68423	largeTSmallH	correct	incongruent	0.55859	no	T	H
267.8359375	n/a	68566	responseLargeT	correct	n/a	0.55859	no	n/a	n/a
268.90625	n/a	68840	largeHSmallH	correct	congruent	0.5	no	H	H
269.40625	n/a	68968	responseLargeH	correct	n/a	0.5	no	n/a	n/a
270.4648438	n/a	69239	largeHSmallT	correct	incongruent	0.46484	no	H	T
270.9296875	n/a	69358	responseLargeH	correct	n/a	0.46484	no	n/a	n/a
271.9960938	n/a	69631	largeTSmallH	correct	incongruent	0.39453	no	T	H
272.390625	n/a	69732	responseLargeT	correct	n/a	0.39453	no	n/a	n/a
273.4648438	n/a	70007	largeHSmallH	correct	congruent	0.43359	no	H	H
273.8984375	n/a	70118	responseLargeH	correct	n/a	0.43359	no	n/a	n/a
274.9726562	n/a	70393	largeHSmallT	correct	incongruent	0.37109	no	H	T
275.34375	n/a	70488	responseLargeH	correct	n/a	0.37109	no	n/a	n/a
276.4257812	n/a	70765	largeTSmallH	correct	incongruent	0.41797	no	T	H
276.84375	n/a	70872	responseLargeT	correct	n/a	0.41797	no	n/a	n/a
277.9179688	n/a	71147	largeHSmallT	correct	incongruent	0.40234	no	H	T
278.3203125	n/a	71250	responseLargeH	correct	n/a	0.40234	no	n/a	n/a
279.3984375	n/a	71526	largeTSmallT	correct	congruent	0.41016	no	T	T
279.8085938	n/a	71631	responseLargeT	correct	n/a	0.41016	no	n/a	n/a
280.8789062	n/a	71905	largeTSmallH	correct	incongruent	0.38672	no	T	H
281.265625	n/a	72004	responseLargeT	correct	n/a	0.38672	no	n/a	n/a
282.34375	n/a	72280	largeHSmallH	correct	congruent	0.41406	no	H	H
282.7578125	n/a	72386	responseLargeH	correct	n/a	0.41406	no	n/a	n/a
283.8242188	n/a	72659	largeHSmallH	correct	congruent	0.4375	no	H	H
284.2617188	n/a	72771	responseLargeH	correct	n/a	0.4375	no	n/a	n/a
285.34375	n/a	73048	largeTSmallT	correct	congruent	0.45703	no	T	T
285.8007812	n/a	73165	responseLargeT	correct	n/a	0.45703	no	n/a	n/a
286.8632812	n/a	73437	largeHSmallT	correct	incongruent	0.54297	no	H	T
287.40625	n/a	73576	responseLargeH	correct	n/a	0.54297	no	n/a	n/a
288.4765625	n/a	73850	largeHSmallH	correct	congruent	0.46094	no	H	H
288.9375	n/a	73968	responseLargeH	correct	n/a	0.46094	no	n/a	n/a
289.9960938	n/a	74239	largeHSmallH	correct	congruent	0.44922	no	H	H
290.4453125	n/a	74354	responseLargeH	correct	n/a	0.44922	no	n/a	n/a
291.5195312	n/a	74629	largeHSmallT	correct	incongruent	0.42578	no	H	T
291.9453125	n/a	74738	responseLargeH	correct	n/a	0.42578	no	n/a	n/a
293.0117188	n/a	75011	largeTSmallT	correct	congruent	0.48047	no	T	T
293.4921875	n/a	75134	responseLargeT	correct	n/a	0.48047	no	n/a	n/a
294.5585938	n/a	75407	largeHSmallH	correct	congruent	0.36328	no	H	H
294.921875	n/a	75500	responseLargeH	correct	n/a	0.36328	no	n/a	n/a
295.9960938	n/a	75775	largeHSmallH	correct	congruent	0.45312	no	H	H
296.4492188	n/a	75891	responseLargeH	correct	n/a	0.45312	no	n/a	n/a
297.515625	n/a	76164	largeTSmallH	correct	incongruent	0.41797	no	T	H
297.9335938	n/a	76271	responseLargeT	correct	n/a	0.41797	no	n/a	n/a
299.0117188	n/a	76547	largeHSmallH	correct	congruent	0.47656	no	H	H
299.4882812	n/a	76669	responseLargeH	correct	n/a	0.47656	no	n/a	n/a
300.5703125	n/a	76946	largeTSmallH	correct	incongruent	0.41016	no	T	H
300.9804688	n/a	77051	responseLargeT	correct	n/a	0.41016	no	n/a	n/a
302.0507812	n/a	77325	largeTSmallH	correct	incongruent	0.43359	no	T	H
302.484375	n/a	77436	responseLargeT	correct	n/a	0.43359	no	n/a	n/a
303.5585938	n/a	77711	largeHSmallT	correct	incongruent	0.43359	no	H	T
303.9921875	n/a	77822	responseLargeH	correct	n/a	0.43359	no	n/a	n/a
305.0625	n/a	78096	largeHSmallT	correct	incongruent	0.45703	no	H	T
305.5195312	n/a	78213	responseLargeH	correct	n/a	0.45703	no	n/a	n/a
306.5820312	n/a	78485	largeHSmallH	correct	congruent	0.44141	no	H	H
307.0234375	n/a	78598	responseLargeH	correct	n/a	0.44141	no	n/a	n/a
308.1054688	n/a	78875	largeTSmallT	correct	congruent	0.46875	no	T	T
308.5742188	n/a	78995	responseLargeT	correct	n/a	0.46875	no	n/a	n/a
309.6367188	n/a	79267	largeTSmallT	correct	congruent	0.36719	no	T	T
310.0039062	n/a	79361	responseLargeT	correct	n/a	0.36719	no	n/a	n/a
311.078125	n/a	79636	largeTSmallT	correct	congruent	0.35938	no	T	T
311.4375	n/a	79728	responseLargeT	correct	n/a	0.35938	no	n/a	n/a
312.5039062	n/a	80001	largeHSmallT	correct	incongruent	0.58984	no	H	T
313.09375	n/a	80152	responseLargeH	correct	n/a	0.58984	no	n/a	n/a
314.171875	n/a	80428	largeTSmallH	correct	incongruent	0.46875	no	T	H
314.640625	n/a	80548	responseLargeT	correct	n/a	0.46875	no	n/a	n/a
315.71875	n/a	80824	largeHSmallT	error	incongruent	0.44141	no	H	T
316.1601562	n/a	80937	responseLargeT	error	n/a	0.44141	no	n/a	n/a
325.515625	n/a	83332	largeHSmallT	correct	incongruent	0.67188	no	H	T
326.1875	n/a	83504	responseSmallT	correct	n/a	0.67188	no	n/a	n/a
327.2617188	n/a	83779	largeTSmallT	correct	congruent	0.51172	no	T	T
327.7734375	n/a	83910	responseSmallT	correct	n/a	0.51172	no	n/a	n/a
328.8515625	n/a	84186	largeTSmallH	correct	incongruent	0.44531	no	T	H
329.296875	n/a	84300	responseSmallH	correct	n/a	0.44531	no	n/a	n/a
330.3828125	n/a	84578	largeTSmallH	correct	incongruent	0.43359	no	T	H
330.8164062	n/a	84689	responseSmallH	correct	n/a	0.43359	no	n/a	n/a
331.890625	n/a	84964	largeHSmallT	correct	incongruent	0.47656	no	H	T
332.3671875	n/a	85086	responseSmallT	correct	n/a	0.47656	no	n/a	n/a
333.4375	n/a	85360	largeHSmallH	correct	congruent	0.42188	no	H	H
333.859375	n/a	85468	responseSmallH	correct	n/a	0.42188	no	n/a	n/a
334.9296875	n/a	85742	largeHSmallH	correct	congruent	0.39453	no	H	H
335.3242188	n/a	85843	responseSmallH	correct	n/a	0.39453	no	n/a	n/a
336.3945312	n/a	86117	largeHSmallH	correct	congruent	0.46094	no	H	H
336.8554688	n/a	86235	responseSmallH	correct	n/a	0.46094	no	n/a	n/a
337.9296875	n/a	86510	largeHSmallH	correct	congruent	0.42969	no	H	H
338.359375	n/a	86620	responseSmallH	correct	n/a	0.42969	no	n/a	n/a
339.421875	n/a	86892	largeTSmallT	correct	congruent	0.44922	no	T	T
339.8710938	n/a	87007	responseSmallT	correct	n/a	0.44922	no	n/a	n/a
340.9414062	n/a	87281	largeTSmallT	correct	congruent	0.42188	no	T	T
341.3632812	n/a	87389	responseSmallT	correct	n/a	0.42188	no	n/a	n/a
342.4375	n/a	87664	largeHSmallT	correct	incongruent	0.48438	no	H	T
342.921875	n/a	87788	responseSmallT	correct	n/a	0.48438	no	n/a	n/a
343.9960938	n/a	88063	largeHSmallH	error	congruent	0.42969	no	H	H
344.4257812	n/a	88173	responseSmallT	error	n/a	0.42969	no	n/a	n/a
345.4882812	n/a	88445	largeHSmallT	correct	incongruent	0.53125	no	H	T
346.0195312	n/a	88581	responseSmallT	correct	n/a	0.53125	no	n/a	n/a
347.0898438	n/a	88855	largeHSmallH	correct	congruent	0.51172	no	H	H
347.6015625	n/a	88986	responseSmallH	correct	n/a	0.51172	no	n/a	n/a
348.6757812	n/a	89261	largeTSmallT	correct	congruent	0.50391	no	T	T
349.1796875	n/a	89390	responseSmallT	correct	n/a	0.50391	no	n/a	n/a
350.25	n/a	89664	largeHSmallT	correct	incongruent	1.3047	no	H	T
351.5546875	n/a	89998	responseSmallT	correct	n/a	1.3047	no	n/a	n/a
352.6210938	n/a	90271	largeTSmallT	correct	congruent	0.47656	no	T	T
353.0976562	n/a	90393	responseSmallT	correct	n/a	0.47656	no	n/a	n/a
354.1679688	n/a	90667	largeTSmallT	correct	congruent	0.58594	no	T	T
354.7539062	n/a	90817	responseSmallT	correct	n/a	0.58594	no	n/a	n/a
355.8242188	n/a	91091	largeHSmallH	correct	congruent	0.40234	no	H	H
356.2265625	n/a	91194	responseSmallH	correct	n/a	0.40234	no	n/a	n/a
357.3007812	n/a	91469	largeHSmallH	correct	congruent	0.39062	no	H	H
357.6914062	n/a	91569	responseSmallH	correct	n/a	0.39062	no	n/a	n/a
358.7695312	n/a	91845	largeTSmallT	correct	congruent	0.49609	no	T	T
359.265625	n/a	91972	responseSmallT	correct	n/a	0.49609	no	n/a	n/a
360.328125	n/a	92244	largeTSmallT	correct	congruent	0.49609	no	T	T
360.8242188	n/a	92371	responseSmallT	correct	n/a	0.49609	no	n/a	n/a
361.890625	n/a	92644	largeHSmallT	correct	incongruent	0.55859	no	H	T
362.4492188	n/a	92787	responseSmallT	correct	n/a	0.55859	no	n/a	n/a
363.5273438	n/a	93063	largeHSmallH	correct	congruent	0.41016	no	H	H
363.9375	n/a	93168	responseSmallH	correct	n/a	0.41016	no	n/a	n/a
365.0078125	n/a	93442	largeHSmallH	correct	congruent	0.40234	no	H	H
365.4101562	n/a	93545	responseSmallH	correct	n/a	0.40234	no	n/a	n/a
366.4765625	n/a	93818	largeTSmallT	correct	congruent	0.55859	no	T	T
367.0351562	n/a	93961	responseSmallT	correct	n/a	0.55859	no	n/a	n/a
368.1171875	n/a	94238	largeHSmallT	correct	incongruent	0.42969	no	H	T
368.546875	n/a	94348	responseSmallT	correct	n/a	0.42969	no	n/a	n/a
369.609375	n/a	94620	largeTSmallH	correct	incongruent	0.43359	no	T	H
370.0429688	n/a	94731	responseSmallH	correct	n/a	0.43359	no	n/a	n/a
371.1171875	n/a	95006	largeTSmallH	correct	incongruent	0.39844	no	T	H
371.515625	n/a	95108	responseSmallH	correct	n/a	0.39844	no	n/a	n/a
372.59375	n/a	95384	largeHSmallH	correct	congruent	0.50391	no	H	H
373.0976562	n/a	95513	responseSmallH	correct	n/a	0.50391	no	n/a	n/a
374.1679688	n/a	95787	largeHSmallT	correct	incongruent	0.54297	no	H	T
374.7109375	n/a	95926	responseSmallT	correct	n/a	0.54297	no	n/a	n/a
375.796875	n/a	96204	largeTSmallH	error	incongruent	0.53906	no	T	H
376.3359375	n/a	96342	responseSmallT	error	n/a	0.53906	no	n/a	n/a
377.4101562	n/a	96617	largeTSmallT	correct	congruent	0.54297	no	T	T
377.953125	n/a	96756	responseSmallT	correct	n/a	0.54297	no	n/a	n/a
379.0234375	n/a	97030	largeTSmallH	correct	incongruent	0.45703	no	T	H
379.4804688	n/a	97147	responseSmallH	correct	n/a	0.45703	no	n/a	n/a
380.5429688	n/a	97419	largeHSmallT	correct	incongruent	0.4375	no	H	T
380.9804688	n/a	97531	responseSmallT	correct	n/a	0.4375	no	n/a	n/a
382.046875	n/a	97804	largeTSmallH	correct	incongruent	0.51562	no	T	H
382.5625	n/a	97936	responseSmallH	correct	n/a	0.51562	no	n/a	n/a
383.6367188	n/a	98211	largeTSmallH	correct	incongruent	0.45312	no	T	H
384.0898438	n/a	98327	responseSmallH	correct	n/a	0.45312	no	n/a	n/a
385.1679688	n/a	98603	largeTSmallH	correct	incongruent	0.48047	no	T	H
385.6484375	n/a	98726	responseSmallH	correct	n/a	0.48047	no	n/a	n/a
386.7265625	n/a	99002	largeTSmallT	correct	congruent	0.43359	no	T	T
387.1601562	n/a	99113	responseSmallT	correct	n/a	0.43359	no	n/a	n/a
388.234375	n/a	99388	largeTSmallH	error	incongruent	0.47656	no	T	H
388.7109375	n/a	99510	responseSmallT	error	n/a	0.47656	no	n/a	n/a
389.78125	n/a	99784	largeHSmallT	correct	incongruent	0.625	no	H	T
390.40625	n/a	99944	responseSmallT	correct	n/a	0.625	no	n/a	n/a
391.4882812	n/a	100221	largeTSmallT	correct	congruent	0.52734	no	T	T
392.015625	n/a	100356	responseSmallT	correct	n/a	0.52734	no	n/a	n/a
393.0898438	n/a	100631	largeHSmallH	correct	congruent	0.52344	no	H	H
393.6132812	n/a	100765	responseSmallH	correct	n/a	0.52344	no	n/a	n/a
394.6757812	n/a	101037	largeHSmallH	correct	congruent	0.40234	no	H	H
395.078125	n/a	101140	responseSmallH	correct	n/a	0.40234	no	n/a	n/a
396.140625	n/a	101412	largeHSmallH	correct	congruent	0.45312	no	H	H
396.59375	n/a	101528	responseSmallH	correct	n/a	0.45312	no	n/a	n/a
397.6601562	n/a	101801	largeTSmallH	correct	incongruent	0.41406	no	T	H
398.0742188	n/a	101907	responseSmallH	correct	n/a	0.41406	no	n/a	n/a
399.140625	n/a	102180	largeHSmallH	correct	congruent	0.48047	no	H	H
399.6210938	n/a	102303	responseSmallH	correct	n/a	0.48047	no	n/a	n/a
400.6875	n/a	102576	largeHSmallT	correct	incongruent	0.54688	no	H	T
401.234375	n/a	102716	responseSmallT	correct	n/a	0.54688	no	n/a	n/a
402.3164062	n/a	102993	largeHSmallT	correct	incongruent	0.53906	no	H	T
402.8554688	n/a	103131	responseSmallT	correct	n/a	0.53906	no	n/a	n/a
403.9296875	n/a	103406	largeTSmallH	correct	incongruent	0.46094	no	T	H
404.390625	n/a	103524	responseSmallH	correct	n/a	0.46094	no	n/a	n/a
405.4609375	n/a	103798	largeHSmallH	correct	congruent	0.76172	no	H	H
406.2226562	n/a	103993	responseSmallH	correct	n/a	0.76172	no	n/a	n/a
407.3007812	n/a	104269	largeTSmallH	correct	incongruent	0.50391	no	T	H
407.8046875	n/a	104398	responseSmallH	correct	n/a	0.50391	no	n/a	n/a
408.875	n/a	104672	largeTSmallT	correct	congruent	0.54688	no	T	T
409.421875	n/a	104812	responseSmallT	correct	n/a	0.54688	no	n/a	n/a
410.5	n/a	105088	largeHSmallT	correct	incongruent	0.59375	no	H	T
411.09375	n/a	105240	responseSmallT	correct	n/a	0.59375	no	n/a	n/a
412.1679688	n/a	105515	largeHSmallH	correct	congruent	0.43359	no	H	H
412.6015625	n/a	105626	responseSmallH	correct	n/a	0.43359	no	n/a	n/a
413.6875	n/a	105904	largeTSmallH	correct	incongruent	0.4375	no	T	H
414.125	n/a	106016	responseSmallH	correct	n/a	0.4375	no	n/a	n/a
415.1953125	n/a	106290	largeHSmallT	correct	incongruent	0.47266	no	H	T
415.6679688	n/a	106411	responseSmallT	correct	n/a	0.47266	no	n/a	n/a
416.7421875	n/a	106686	largeTSmallH	correct	incongruent	0.51562	no	T	H
417.2578125	n/a	106818	responseSmallH	correct	n/a	0.51562	no	n/a	n/a
418.328125	n/a	107092	largeTSmallH	correct	incongruent	0.45703	no	T	H
418.7851562	n/a	107209	responseSmallH	correct	n/a	0.45703	no	n/a	n/a
419.859375	n/a	107484	largeHSmallT	correct	incongruent	0.43359	no	H	T
420.2929688	n/a	107595	responseSmallT	correct	n/a	0.43359	no	n/a	n/a
421.3554688	n/a	107867	largeHSmallT	correct	incongruent	0.45703	no	H	T
421.8125	n/a	107984	responseSmallT	correct	n/a	0.45703	no	n/a	n/a
422.8867188	n/a	108259	largeTSmallT	correct	congruent	0.55078	no	T	T
423.4375	n/a	108400	responseSmallT	correct	n/a	0.55078	no	n/a	n/a
424.5	n/a	108672	largeHSmallH	correct	congruent	0.42578	no	H	H
424.9257812	n/a	108781	responseSmallH	correct	n/a	0.42578	no	n/a	n/a
426.0078125	n/a	109058	largeHSmallT	error	incongruent	0.41406	no	H	T
426.421875	n/a	109164	responseSmallH	error	n/a	0.41406	no	n/a	n/a
427.4882812	n/a	109437	largeTSmallH	correct	incongruent	0.67188	no	T	H
428.1601562	n/a	109609	responseSmallH	correct	n/a	0.67188	no	n/a	n/a
429.234375	n/a	109884	largeTSmallT	correct	congruent	0.48047	no	T	T
429.7148438	n/a	110007	responseSmallT	correct	n/a	0.48047	no	n/a	n/a
430.78125	n/a	110280	largeTSmallT	correct	congruent	0.51172	no	T	T
431.2929688	n/a	110411	responseSmallT	correct	n/a	0.51172	no	n/a	n/a
432.3671875	n/a	110686	largeTSmallH	correct	incongruent	0.40625	no	T	H
432.7734375	n/a	110790	responseSmallH	correct	n/a	0.40625	no	n/a	n/a
433.8320312	n/a	111061	largeHSmallT	correct	incongruent	0.55859	no	H	T
434.390625	n/a	111204	responseSmallT	correct	n/a	0.55859	no	n/a	n/a
435.4609375	n/a	111478	largeHSmallT	correct	incongruent	0.74219	no	H	T
436.203125	n/a	111668	responseSmallT	correct	n/a	0.74219	no	n/a	n/a
437.2734375	n/a	111942	largeHSmallH	correct	congruent	0.4375	no	H	H
437.7109375	n/a	112054	responseSmallH	correct	n/a	0.4375	no	n/a	n/a
438.78125	n/a	112328	largeTSmallT	correct	congruent	0.4375	no	T	T
439.21875	n/a	112440	responseSmallT	correct	n/a	0.4375	no	n/a	n/a
440.3007812	n/a	112717	largeTSmallH	correct	incongruent	0.48047	no	T	H
440.78125	n/a	112840	responseSmallH	correct	n/a	0.48047	no	n/a	n/a
441.859375	n/a	113116	largeTSmallH	correct	incongruent	0.41406	no	T	H
442.2734375	n/a	113222	responseSmallH	correct	n/a	0.41406	no	n/a	n/a
443.3398438	n/a	113495	largeTSmallH	correct	incongruent	0.47656	no	T	H
443.8164062	n/a	113617	responseSmallH	correct	n/a	0.47656	no	n/a	n/a
444.8867188	n/a	113891	largeHSmallT	correct	incongruent	0.40625	no	H	T
445.2929688	n/a	113995	responseSmallT	correct	n/a	0.40625	no	n/a	n/a
446.3671875	n/a	114270	largeHSmallT	correct	incongruent	0.38281	no	H	T
446.75	n/a	114368	responseSmallT	correct	n/a	0.38281	no	n/a	n/a
447.8203125	n/a	114642	largeTSmallT	correct	congruent	0.48828	no	T	T
448.3085938	n/a	114767	responseSmallT	correct	n/a	0.48828	no	n/a	n/a
449.3789062	n/a	115041	largeHSmallH	correct	congruent	0.38281	no	H	H
449.7617188	n/a	115139	responseSmallH	correct	n/a	0.38281	no	n/a	n/a
450.8476562	n/a	115417	largeTSmallT	correct	congruent	0.4375	no	T	T
451.2851562	n/a	115529	responseSmallT	correct	n/a	0.4375	no	n/a	n/a
452.3515625	n/a	115802	largeHSmallT	error	incongruent	0.46094	no	H	T
452.8125	n/a	115920	responseSmallH	error	n/a	0.46094	no	n/a	n/a
453.8867188	n/a	116195	largeHSmallH	correct	congruent	0.40625	no	H	H
454.2929688	n/a	116299	responseSmallH	correct	n/a	0.40625	no	n/a	n/a
455.3671875	n/a	116574	largeTSmallT	correct	congruent	0.57031	no	T	T
455.9375	n/a	116720	responseSmallT	correct	n/a	0.57031	no	n/a	n/a
457.0078125	n/a	116994	largeTSmallH	correct	incongruent	0.57422	no	T	H
457.5820312	n/a	117141	responseSmallH	correct	n/a	0.57422	no	n/a	n/a
458.6601562	n/a	117417	largeTSmallT	correct	congruent	0.39453	no	T	T
459.0546875	n/a	117518	responseSmallT	correct	n/a	0.39453	no	n/a	n/a
460.125	n/a	117792	largeHSmallH	correct	congruent	0.42578	no	H	H
460.5507812	n/a	117901	responseSmallH	correct	n/a	0.42578	no	n/a	n/a
461.6210938	n/a	118175	largeTSmallH	correct	incongruent	0.51953	no	T	H
462.140625	n/a	118308	responseSmallH	correct	n/a	0.51953	no	n/a	n/a
463.2070312	n/a	118581	largeHSmallH	correct	congruent	0.40234	no	H	H
463.609375	n/a	118684	responseSmallH	correct	n/a	0.40234	no	n/a	n/a
464.671875	n/a	118956	largeTSmallT	correct	congruent	0.44531	no	T	T
465.1171875	n/a	119070	responseSmallT	correct	n/a	0.44531	no	n/a	n/a
466.1914062	n/a	119345	largeHSmallH	correct	congruent	0.375	no	H	H
466.5664062	n/a	119441	responseSmallH	correct	n/a	0.375	no	n/a	n/a
467.6445312	n/a	119717	largeTSmallT	correct	congruent	0.44531	no	T	T
468.0898438	n/a	119831	responseSmallT	correct	n/a	0.44531	no	n/a	n/a
469.1523438	n/a	120103	largeTSmallH	correct	incongruent	0.37109	no	T	H
469.5234375	n/a	120198	responseSmallH	correct	n/a	0.37109	no	n/a	n/a
470.59375	n/a	120472	largeTSmallH	correct	incongruent	0.5	no	T	H
471.09375	n/a	120600	responseSmallH	correct	n/a	0.5	no	n/a	n/a
472.1679688	n/a	120875	largeTSmallT	correct	congruent	0.47656	no	T	T
472.6445312	n/a	120997	responseSmallT	correct	n/a	0.47656	no	n/a	n/a
473.7109375	n/a	121270	largeHSmallT	correct	incongruent	0.45703	no	H	T
474.1679688	n/a	121387	responseSmallT	correct	n/a	0.45703	no	n/a	n/a
475.234375	n/a	121660	largeHSmallT	correct	incongruent	0.55078	no	H	T
475.7851562	n/a	121801	responseSmallT	correct	n/a	0.55078	no	n/a	n/a
476.859375	n/a	122076	largeHSmallH	correct	congruent	0.32812	no	H	H
477.1875	n/a	122160	responseSmallH	correct	n/a	0.32812	no	n/a	n/a
478.2578125	n/a	122434	largeHSmallT	correct	incongruent	0.46875	no	H	T
478.7265625	n/a	122554	responseSmallT	correct	n/a	0.46875	no	n/a	n/a
479.7929688	n/a	122827	largeHSmallT	correct	incongruent	0.63672	no	H	T
480.4296875	n/a	122990	responseSmallT	correct	n/a	0.63672	no	n/a	n/a
481.5	n/a	123264	largeHSmallH	correct	congruent	0.39062	no	H	H
481.890625	n/a	123364	responseSmallH	correct	n/a	0.39062	no	n/a	n/a
482.9648438	n/a	123639	largeTSmallH	error	incongruent	0.42578	no	T	H
483.390625	n/a	123748	responseSmallT	error	n/a	0.42578	no	n/a	n/a
484.4609375	n/a	124022	largeHSmallH	correct	congruent	0.44141	no	H	H
484.9023438	n/a	124135	responseSmallH	correct	n/a	0.44141	no	n/a	n/a
485.9648438	n/a	124407	largeTSmallH	correct	incongruent	0.44922	no	T	H
486.4140625	n/a	124522	responseSmallH	correct	n/a	0.44922	no	n/a	n/a
487.484375	n/a	124796	largeTSmallH	correct	incongruent	0.44922	no	T	H
487.9335938	n/a	124911	responseSmallH	correct	n/a	0.44922	no	n/a	n/a
488.9921875	n/a	125182	largeHSmallH	correct	congruent	0.42969	no	H	H
489.421875	n/a	125292	responseSmallH	correct	n/a	0.42969	no	n/a	n/a
490.5	n/a	125568	largeTSmallH	correct	incongruent	0.41406	no	T	H
490.9140625	n/a	125674	responseSmallH	correct	n/a	0.41406	no	n/a	n/a
491.9804688	n/a	125947	largeHSmallH	correct	congruent	0.47656	no	H	H
492.4570312	n/a	126069	responseSmallH	correct	n/a	0.47656	no	n/a	n/a
493.5273438	n/a	126343	largeTSmallH	correct	incongruent	0.51172	no	T	H
494.0390625	n/a	126474	responseSmallH	correct	n/a	0.51172	no	n/a	n/a
495.1132812	n/a	126749	largeTSmallH	correct	incongruent	0.41406	no	T	H
495.5273438	n/a	126855	responseSmallH	correct	n/a	0.41406	no	n/a	n/a
496.59375	n/a	127128	largeHSmallT	correct	incongruent	0.41406	no	H	T
497.0078125	n/a	127234	responseSmallT	correct	n/a	0.41406	no	n/a	n/a
498.0742188	n/a	127507	largeTSmallT	correct	congruent	0.41016	no	T	T
498.484375	n/a	127612	responseSmallT	correct	n/a	0.41016	no	n/a	n/a
499.5664062	n/a	127889	largeTSmallT	correct	congruent	0.47266	no	T	T
500.0390625	n/a	128010	responseSmallT	correct	n/a	0.47266	no	n/a	n/a
501.1132812	n/a	128285	largeTSmallT	correct	congruent	0.45703	no	T	T
501.5703125	n/a	128402	responseSmallT	correct	n/a	0.45703	no	n/a	n/a
502.6445312	n/a	128677	largeTSmallT	correct	congruent	0.47656	no	T	T
503.1210938	n/a	128799	responseSmallT	correct	n/a	0.47656	no	n/a	n/a
504.1914062	n/a	129073	largeHSmallT	correct	incongruent	0.50781	no	H	T
504.6992188	n/a	129203	responseSmallT	correct	n/a	0.50781	no	n/a	n/a
505.765625	n/a	129476	largeTSmallT	correct	congruent	0.46484	no	T	T
506.2304688	n/a	129595	responseSmallT	correct	n/a	0.46484	no	n/a	n/a
507.296875	n/a	129868	largeTSmallT	correct	congruent	0.50391	no	T	T
507.8007812	n/a	129997	responseSmallT	correct	n/a	0.50391	no	n/a	n/a
508.8710938	n/a	130271	largeHSmallH	correct	congruent	0.4375	no	H	H
509.3085938	n/a	130383	responseSmallH	correct	n/a	0.4375	no	n/a	n/a
510.390625	n/a	130660	largeTSmallT	correct	congruent	0.50391	no	T	T
510.8945312	n/a	130789	responseSmallT	correct	n/a	0.50391	no	n/a	n/a
511.9648438	n/a	131063	largeHSmallT	correct	incongruent	0.50391	no	H	T
512.46875	n/a	131192	responseSmallT	correct	n/a	0.50391	no	n/a	n/a
513.5390625	n/a	131466	largeHSmallT	correct	incongruent	0.46094	no	H	T
514	n/a	131584	responseSmallT	correct	n/a	0.46094	no	n/a	n/a
515.0585938	n/a	131855	largeHSmallH	correct	congruent	0.40234	no	H	H
515.4609375	n/a	131958	responseSmallH	correct	n/a	0.40234	no	n/a	n/a
516.5390625	n/a	132234	largeHSmallH	correct	congruent	0.48438	no	H	H
517.0234375	n/a	132358	responseSmallH	correct	n/a	0.48438	no	n/a	n/a
518.0859375	n/a	132630	largeHSmallT	error	incongruent	0.46094	no	H	T
518.546875	n/a	132748	responseSmallH	error	n/a	0.46094	no	n/a	n/a
519.6171875	n/a	133022	largeHSmallT	error	incongruent	0.44141	no	H	T
520.0585938	n/a	133135	responseSmallH	error	n/a	0.44141	no	n/a	n/a
521.1367188	n/a	133411	largeTSmallT	correct	congruent	0.44922	no	T	T
521.5859375	n/a	133526	responseSmallT	correct	n/a	0.44922	no	n/a	n/a
522.6601562	n/a	133801	largeTSmallT	correct	congruent	0.41016	no	T	T
523.0703125	n/a	133906	responseSmallT	correct	n/a	0.41016	no	n/a	n/a
524.1523438	n/a	134183	largeTSmallH	correct	incongruent	0.54297	no	T	H
524.6953125	n/a	134322	responseSmallH	correct	n/a	0.54297	no	n/a	n/a
525.765625	n/a	134596	largeHSmallT	correct	incongruent	0.45312	no	H	T
526.21875	n/a	134712	responseSmallT	correct	n/a	0.45312	no	n/a	n/a
527.296875	n/a	134988	largeHSmallH	correct	congruent	0.44922	no	H	H
527.7460938	n/a	135103	responseSmallH	correct	n/a	0.44922	no	n/a	n/a
528.8320312	n/a	135381	largeTSmallT	correct	congruent	0.39453	no	T	T
529.2265625	n/a	135482	responseSmallT	correct	n/a	0.39453	no	n/a	n/a
530.296875	n/a	135756	largeHSmallT	correct	incongruent	0.67188	no	H	T
530.96875	n/a	135928	responseSmallT	correct	n/a	0.67188	no	n/a	n/a
532.0429688	n/a	136203	largeTSmallT	correct	congruent	0.45312	no	T	T
532.4960938	n/a	136319	responseSmallT	correct	n/a	0.45312	no	n/a	n/a
533.5664062	n/a	136593	largeTSmallT	correct	congruent	0.39453	no	T	T
533.9609375	n/a	136694	responseSmallT	correct	n/a	0.39453	no	n/a	n/a
535.03125	n/a	136968	largeTSmallT	correct	congruent	0.46484	no	T	T
535.4960938	n/a	137087	responseSmallT	correct	n/a	0.46484	no	n/a	n/a
536.5664062	n/a	137361	largeHSmallT	correct	incongruent	0.45312	no	H	T
537.0195312	n/a	137477	responseSmallT	correct	n/a	0.45312	no	n/a	n/a
538.0859375	n/a	137750	largeTSmallH	correct	incongruent	0.35547	no	T	H
538.4414062	n/a	137841	responseSmallH	correct	n/a	0.35547	no	n/a	n/a
539.5117188	n/a	138115	largeTSmallH	correct	incongruent	0.45312	no	T	H
539.9648438	n/a	138231	responseSmallH	correct	n/a	0.45312	no	n/a	n/a
541.0429688	n/a	138507	largeTSmallH	correct	incongruent	0.41406	no	T	H
541.4570312	n/a	138613	responseSmallH	correct	n/a	0.41406	no	n/a	n/a
542.5390625	n/a	138890	largeTSmallH	correct	incongruent	0.41797	no	T	H
542.9570312	n/a	138997	responseSmallH	correct	n/a	0.41797	no	n/a	n/a
544.03125	n/a	139272	largeHSmallH	correct	congruent	0.43359	no	H	H
544.4648438	n/a	139383	responseSmallH	correct	n/a	0.43359	no	n/a	n/a
545.5390625	n/a	139658	largeTSmallH	correct	incongruent	0.44922	no	T	H
545.9882812	n/a	139773	responseSmallH	correct	n/a	0.44922	no	n/a	n/a
547.0585938	n/a	140047	largeTSmallT	correct	congruent	0.48828	no	T	T
547.546875	n/a	140172	responseSmallT	correct	n/a	0.48828	no	n/a	n/a
548.6171875	n/a	140446	largeTSmallT	correct	congruent	0.43359	no	T	T
549.0507812	n/a	140557	responseSmallT	correct	n/a	0.43359	no	n/a	n/a
550.125	n/a	140832	largeHSmallH	correct	congruent	0.58203	no	H	H
550.7070312	n/a	140981	responseSmallH	correct	n/a	0.58203	no	n/a	n/a
551.7773438	n/a	141255	largeTSmallT	correct	congruent	0.44922	no	T	T
552.2265625	n/a	141370	responseSmallT	correct	n/a	0.44922	no	n/a	n/a
553.296875	n/a	141644	largeTSmallT	correct	congruent	0.54688	no	T	T
553.84375	n/a	141784	responseSmallT	correct	n/a	0.54688	no	n/a	n/a
554.9101562	n/a	142057	largeHSmallT	correct	incongruent	0.58203	no	H	T
555.4921875	n/a	142206	responseSmallT	correct	n/a	0.58203	no	n/a	n/a
556.5625	n/a	142480	largeTSmallT	correct	congruent	0.46094	no	T	T
557.0234375	n/a	142598	responseSmallT	correct	n/a	0.46094	no	n/a	n/a
558.0976562	n/a	142873	largeHSmallH	correct	congruent	0.41016	no	H	H
558.5078125	n/a	142978	responseSmallH	correct	n/a	0.41016	no	n/a	n/a
559.578125	n/a	143252	largeHSmallH	correct	congruent	0.45703	no	H	H
560.0351562	n/a	143369	responseSmallH	correct	n/a	0.45703	no	n/a	n/a
561.0976562	n/a	143641	largeTSmallT	correct	congruent	0.42578	no	T	T
561.5234375	n/a	143750	responseSmallT	correct	n/a	0.42578	no	n/a	n/a
562.6054688	n/a	144027	largeHSmallT	correct	incongruent	0.60547	no	H	T
563.2109375	n/a	144182	responseSmallT	correct	n/a	0.60547	no	n/a	n/a
564.2851562	n/a	144457	largeTSmallT	correct	congruent	0.46094	no	T	T
564.7460938	n/a	144575	responseSmallT	correct	n/a	0.46094	no	n/a	n/a
565.8164062	n/a	144849	largeHSmallH	correct	congruent	0.47656	no	H	H
566.2929688	n/a	144971	responseSmallH	correct	n/a	0.47656	no	n/a	n/a
567.3515625	n/a	145242	largeHSmallH	correct	congruent	0.42969	no	H	H
567.78125	n/a	145352	responseSmallH	correct	n/a	0.42969	no	n/a	n/a
568.8554688	n/a	145627	largeTSmallH	correct	incongruent	0.44141	no	T	H
569.296875	n/a	145740	responseSmallH	correct	n/a	0.44141	no	n/a	n/a
570.3632812	n/a	146013	largeHSmallT	correct	incongruent	0.48828	no	H	T
570.8515625	n/a	146138	responseSmallT	correct	n/a	0.48828	no	n/a	n/a
571.9375	n/a	146416	largeTSmallH	correct	incongruent	0.48047	no	T	H
572.4179688	n/a	146539	responseSmallH	correct	n/a	0.48047	no	n/a	n/a
573.484375	n/a	146812	largeHSmallT	correct	incongruent	0.48828	no	H	T
573.9726562	n/a	146937	responseSmallT	correct	n/a	0.48828	no	n/a	n/a
575.0429688	n/a	147211	largeHSmallH	correct	congruent	0.46484	no	H	H
575.5078125	n/a	147330	responseSmallH	correct	n/a	0.46484	no	n/a	n/a
576.578125	n/a	147604	largeTSmallH	error	incongruent	0.41406	no	T	H
576.9921875	n/a	147710	responseSmallT	error	n/a	0.41406	no	n/a	n/a
578.0585938	n/a	147983	largeHSmallH	correct	congruent	0.40625	no	H	H
578.4648438	n/a	148087	responseSmallH	correct	n/a	0.40625	no	n/a	n/a
579.5351562	n/a	148361	largeHSmallT	correct	incongruent	0.44141	no	H	T
579.9765625	n/a	148474	responseSmallT	correct	n/a	0.44141	no	n/a	n/a
581.0429688	n/a	148747	largeHSmallT	correct	incongruent	0.54688	no	H	T
581.5898438	n/a	148887	responseSmallT	correct	n/a	0.54688	no	n/a	n/a
582.65625	n/a	149160	largeTSmallH	correct	incongruent	0.55078	no	T	H
583.2070312	n/a	149301	responseSmallH	correct	n/a	0.55078	no	n/a	n/a
584.2851562	n/a	149577	largeTSmallH	correct	incongruent	0.45703	no	T	H
584.7421875	n/a	149694	responseSmallH	correct	n/a	0.45703	no	n/a	n/a
585.8164062	n/a	149969	largeTSmallT	correct	congruent	0.46094	no	T	T
586.2773438	n/a	150087	responseSmallT	correct	n/a	0.46094	no	n/a	n/a
587.3515625	n/a	150362	largeHSmallH	correct	congruent	0.45312	no	H	H
587.8046875	n/a	150478	responseSmallH	correct	n/a	0.45312	no	n/a	n/a
588.8710938	n/a	150751	largeHSmallT	correct	incongruent	0.44141	no	H	T
589.3125	n/a	150864	responseSmallT	correct	n/a	0.44141	no	n/a	n/a
590.375	n/a	151136	largeTSmallH	correct	incongruent	0.53906	no	T	H
590.9140625	n/a	151274	responseSmallH	correct	n/a	0.53906	no	n/a	n/a
591.9882812	n/a	151549	largeTSmallH	correct	incongruent	0.43359	no	T	H
592.421875	n/a	151660	responseSmallH	correct	n/a	0.43359	no	n/a	n/a
593.484375	n/a	151932	largeTSmallH	correct	incongruent	0.39844	no	T	H
593.8828125	n/a	152034	responseSmallH	correct	n/a	0.39844	no	n/a	n/a
594.9492188	n/a	152307	largeHSmallT	error	incongruent	0.39062	no	H	T
595.3398438	n/a	152407	responseSmallH	error	n/a	0.39062	no	n/a	n/a
596.4023438	n/a	152679	largeHSmallT	correct	incongruent	0.53516	no	H	T
596.9375	n/a	152816	responseSmallT	correct	n/a	0.53516	no	n/a	n/a
598.0039062	n/a	153089	largeTSmallH	correct	incongruent	0.35156	no	T	H
598.3554688	n/a	153179	responseSmallH	correct	n/a	0.35156	no	n/a	n/a
599.4296875	n/a	153454	largeHSmallT	correct	incongruent	0.5	no	H	T
599.9296875	n/a	153582	responseSmallT	correct	n/a	0.5	no	n/a	n/a
601.0039062	n/a	153857	largeHSmallH	correct	congruent	0.55469	no	H	H
601.5585938	n/a	153999	responseSmallH	correct	n/a	0.55469	no	n/a	n/a
602.6289062	n/a	154273	largeHSmallT	correct	incongruent	0.53125	no	H	T
603.1601562	n/a	154409	responseSmallT	correct	n/a	0.53125	no	n/a	n/a
604.2304688	n/a	154683	largeHSmallH	correct	congruent	0.39844	no	H	H
604.6289062	n/a	154785	responseSmallH	correct	n/a	0.39844	no	n/a	n/a
605.6953125	n/a	155058	largeHSmallH	correct	congruent	0.44141	no	H	H
606.1367188	n/a	155171	responseSmallH	correct	n/a	0.44141	no	n/a	n/a
607.203125	n/a	155444	largeTSmallH	correct	incongruent	0.53516	no	T	H
607.7382812	n/a	155581	responseSmallH	correct	n/a	0.53516	no	n/a	n/a
608.8007812	n/a	155853	largeHSmallT	error	incongruent	0.45703	no	H	T
609.2578125	n/a	155970	responseSmallH	error	n/a	0.45703	no	n/a	n/a
610.3359375	n/a	156246	largeHSmallT	correct	incongruent	0.50391	no	H	T
610.8398438	n/a	156375	responseSmallT	correct	n/a	0.50391	no	n/a	n/a
611.9101562	n/a	156649	largeTSmallT	error	congruent	0.51172	no	T	T
612.421875	n/a	156780	responseSmallH	error	n/a	0.51172	no	n/a	n/a
613.4804688	n/a	157051	largeTSmallH	correct	incongruent	0.45312	no	T	H
613.9335938	n/a	157167	responseSmallH	correct	n/a	0.45312	no	n/a	n/a
615.0039062	n/a	157441	largeHSmallH	correct	congruent	0.46875	no	H	H
615.4726562	n/a	157561	responseSmallH	correct	n/a	0.46875	no	n/a	n/a
616.5507812	n/a	157837	largeHSmallH	correct	congruent	0.42578	no	H	H
616.9765625	n/a	157946	responseSmallH	correct	n/a	0.42578	no	n/a	n/a
618.0429688	n/a	158219	largeHSmallT	correct	incongruent	0.49219	no	H	T
618.5351562	n/a	158345	responseSmallT	correct	n/a	0.49219	no	n/a	n/a
619.6015625	n/a	158618	largeTSmallH	correct	incongruent	0.53906	no	T	H
620.140625	n/a	158756	responseSmallH	correct	n/a	0.53906	no	n/a	n/a
621.2148438	n/a	159031	largeTSmallT	correct	congruent	0.43359	no	T	T
621.6484375	n/a	159142	responseSmallT	correct	n/a	0.43359	no	n/a	n/a
622.7226562	n/a	159417	largeTSmallT	correct	congruent	0.45703	no	T	T
623.1796875	n/a	159534	responseSmallT	correct	n/a	0.45703	no	n/a	n/a
624.2539062	n/a	159809	largeTSmallT	correct	congruent	0.49609	no	T	T
624.75	n/a	159936	responseSmallT	correct	n/a	0.49609	no	n/a	n/a
625.828125	n/a	160212	largeTSmallH	correct	incongruent	0.4375	no	T	H
626.265625	n/a	160324	responseSmallH	correct	n/a	0.4375	no	n/a	n/a
627.3359375	n/a	160598	largeTSmallT	error	congruent	0.53906	no	T	T
627.875	n/a	160736	responseSmallH	error	n/a	0.53906	no	n/a	n/a
628.9492188	n/a	161011	largeHSmallH	correct	congruent	0.50781	no	H	H
629.4570312	n/a	161141	responseSmallH	correct	n/a	0.50781	no	n/a	n/a
630.5234375	n/a	161414	largeHSmallT	error	incongruent	0.47656	no	H	T
631	n/a	161536	responseSmallH	error	n/a	0.47656	no	n/a	n/a
632.0703125	n/a	161810	largeHSmallH	correct	congruent	0.41797	no	H	H
632.4882812	n/a	161917	responseSmallH	correct	n/a	0.41797	no	n/a	n/a
633.5625	n/a	162192	largeHSmallH	correct	congruent	0.46094	no	H	H
634.0234375	n/a	162310	responseSmallH	correct	n/a	0.46094	no	n/a	n/a
645.3476562	n/a	165209	largeHSmallT	correct	incongruent	0.66797	no	H	T
646.015625	n/a	165380	responseLargeH	correct	n/a	0.66797	no	n/a	n/a
647.09375	n/a	165656	largeTSmallH	correct	incongruent	0.55859	no	T	H
647.6523438	n/a	165799	responseLargeT	correct	n/a	0.55859	no	n/a	n/a
648.7226562	n/a	166073	largeTSmallH	correct	incongruent	0.45703	no	T	H
649.1796875	n/a	166190	responseLargeT	correct	n/a	0.45703	no	n/a	n/a
650.2539062	n/a	166465	largeHSmallT	correct	incongruent	0.29688	no	H	T
650.5507812	n/a	166541	responseLargeH	correct	n/a	0.29688	no	n/a	n/a
651.6289062	n/a	166817	largeHSmallH	correct	congruent	0.4375	no	H	H
652.0664062	n/a	166929	responseLargeH	correct	n/a	0.4375	no	n/a	n/a
653.1484375	n/a	167206	largeHSmallH	correct	congruent	0.42578	no	H	H
653.5742188	n/a	167315	responseLargeH	correct	n/a	0.42578	no	n/a	n/a
654.640625	n/a	167588	largeHSmallH	correct	congruent	0.37109	no	H	H
655.0117188	n/a	167683	responseLargeH	correct	n/a	0.37109	no	n/a	n/a
656.09375	n/a	167960	largeHSmallT	correct	incongruent	0.375	no	H	T
656.46875	n/a	168056	responseLargeH	correct	n/a	0.375	no	n/a	n/a
657.5351562	n/a	168329	largeHSmallH	correct	congruent	0.45312	no	H	H
657.9882812	n/a	168445	responseLargeH	correct	n/a	0.45312	no	n/a	n/a
659.0546875	n/a	168718	largeTSmallT	correct	congruent	0.48047	no	T	T
659.5351562	n/a	168841	responseLargeT	correct	n/a	0.48047	no	n/a	n/a
660.6132812	n/a	169117	largeHSmallH	correct	congruent	0.41016	no	H	H
661.0234375	n/a	169222	responseLargeH	correct	n/a	0.41016	no	n/a	n/a
662.09375	n/a	169496	largeTSmallH	correct	incongruent	0.49219	no	T	H
662.5859375	n/a	169622	responseLargeT	correct	n/a	0.49219	no	n/a	n/a
663.65625	n/a	169896	largeTSmallH	correct	incongruent	0.50391	no	T	H
664.1601562	n/a	170025	responseLargeT	correct	n/a	0.50391	no	n/a	n/a
665.2265625	n/a	170298	largeTSmallH	correct	incongruent	0.47656	no	T	H
665.703125	n/a	170420	responseLargeT	correct	n/a	0.47656	no	n/a	n/a
666.7734375	n/a	170694	largeHSmallH	correct	congruent	0.44141	no	H	H
667.2148438	n/a	170807	responseLargeH	correct	n/a	0.44141	no	n/a	n/a
668.2929688	n/a	171083	largeTSmallH	correct	incongruent	0.32031	no	T	H
668.6132812	n/a	171165	responseLargeT	correct	n/a	0.32031	no	n/a	n/a
669.6796875	n/a	171438	largeTSmallT	correct	congruent	0.51172	no	T	T
670.1914062	n/a	171569	responseLargeT	correct	n/a	0.51172	no	n/a	n/a
671.265625	n/a	171844	largeHSmallT	correct	incongruent	0.53125	no	H	T
671.796875	n/a	171980	responseLargeH	correct	n/a	0.53125	no	n/a	n/a
672.8554688	n/a	172251	largeHSmallH	correct	congruent	0.42969	no	H	H
673.2851562	n/a	172361	responseLargeH	correct	n/a	0.42969	no	n/a	n/a
674.359375	n/a	172636	largeHSmallH	correct	congruent	0.4375	no	H	H
674.796875	n/a	172748	responseLargeH	correct	n/a	0.4375	no	n/a	n/a
675.8671875	n/a	173022	largeHSmallT	correct	incongruent	0.40234	no	H	T
676.2695312	n/a	173125	responseLargeH	correct	n/a	0.40234	no	n/a	n/a
677.3359375	n/a	173398	largeTSmallT	correct	congruent	0.41406	no	T	T
677.75	n/a	173504	responseLargeT	correct	n/a	0.41406	no	n/a	n/a
678.8125	n/a	173776	largeHSmallT	correct	incongruent	0.46875	no	H	T
679.28125	n/a	173896	responseLargeH	correct	n/a	0.46875	no	n/a	n/a
680.3476562	n/a	174169	largeHSmallT	correct	incongruent	0.50781	no	H	T
680.8554688	n/a	174299	responseLargeH	correct	n/a	0.50781	no	n/a	n/a
681.921875	n/a	174572	largeHSmallT	correct	incongruent	0.37109	no	H	T
682.2929688	n/a	174667	responseLargeH	correct	n/a	0.37109	no	n/a	n/a
683.359375	n/a	174940	largeHSmallT	correct	incongruent	0.42969	no	H	T
683.7890625	n/a	175050	responseLargeH	correct	n/a	0.42969	no	n/a	n/a
684.8554688	n/a	175323	largeHSmallH	correct	congruent	0.39844	no	H	H
685.2539062	n/a	175425	responseLargeH	correct	n/a	0.39844	no	n/a	n/a
686.3203125	n/a	175698	largeTSmallT	error	congruent	0.40625	no	T	T
686.7265625	n/a	175802	responseLargeH	error	n/a	0.40625	no	n/a	n/a
687.8125	n/a	176080	largeHSmallT	correct	incongruent	0.42188	no	H	T
688.234375	n/a	176188	responseLargeH	correct	n/a	0.42188	no	n/a	n/a
689.3085938	n/a	176463	largeHSmallH	correct	congruent	0.49219	no	H	H
689.8007812	n/a	176589	responseLargeH	correct	n/a	0.49219	no	n/a	n/a
690.8789062	n/a	176865	largeHSmallT	correct	incongruent	0.55859	no	H	T
691.4375	n/a	177008	responseLargeH	correct	n/a	0.55859	no	n/a	n/a
692.5195312	n/a	177285	largeHSmallH	correct	congruent	0.40625	no	H	H
692.9257812	n/a	177389	responseLargeH	correct	n/a	0.40625	no	n/a	n/a
694	n/a	177664	largeHSmallT	correct	incongruent	0.44531	no	H	T
694.4453125	n/a	177778	responseLargeH	correct	n/a	0.44531	no	n/a	n/a
695.5078125	n/a	178050	largeTSmallH	correct	incongruent	0.58203	no	T	H
696.0898438	n/a	178199	responseLargeT	correct	n/a	0.58203	no	n/a	n/a
697.1601562	n/a	178473	largeHSmallH	correct	congruent	0.38281	no	H	H
697.5429688	n/a	178571	responseLargeH	correct	n/a	0.38281	no	n/a	n/a
698.6132812	n/a	178845	largeTSmallH	error	incongruent	0.375	no	T	H
698.9882812	n/a	178941	responseLargeH	error	n/a	0.375	no	n/a	n/a
700.0546875	n/a	179214	largeHSmallT	correct	incongruent	0.45703	no	H	T
700.5117188	n/a	179331	responseLargeH	correct	n/a	0.45703	no	n/a	n/a
701.5742188	n/a	179603	largeHSmallT	correct	incongruent	0.44922	no	H	T
702.0234375	n/a	179718	responseLargeH	correct	n/a	0.44922	no	n/a	n/a
703.09375	n/a	179992	largeTSmallH	correct	incongruent	0.47266	no	T	H
703.5664062	n/a	180113	responseLargeT	correct	n/a	0.47266	no	n/a	n/a
704.640625	n/a	180388	largeTSmallT	correct	congruent	0.48828	no	T	T
705.1289062	n/a	180513	responseLargeT	correct	n/a	0.48828	no	n/a	n/a
706.1992188	n/a	180787	largeTSmallT	correct	congruent	0.39062	no	T	T
706.5898438	n/a	180887	responseLargeT	correct	n/a	0.39062	no	n/a	n/a
707.6679688	n/a	181163	largeTSmallH	correct	incongruent	0.57422	no	T	H
708.2421875	n/a	181310	responseLargeT	correct	n/a	0.57422	no	n/a	n/a
709.3203125	n/a	181586	largeTSmallH	correct	incongruent	0.67578	no	T	H
709.9960938	n/a	181759	responseLargeT	correct	n/a	0.67578	no	n/a	n/a
711.0664062	n/a	182033	largeTSmallT	correct	congruent	0.42969	no	T	T
711.4960938	n/a	182143	responseLargeT	correct	n/a	0.42969	no	n/a	n/a
712.5585938	n/a	182415	largeTSmallH	correct	incongruent	0.41406	no	T	H
712.9726562	n/a	182521	responseLargeT	correct	n/a	0.41406	no	n/a	n/a
714.0390625	n/a	182794	largeHSmallT	correct	incongruent	0.41406	no	H	T
714.453125	n/a	182900	responseLargeH	correct	n/a	0.41406	no	n/a	n/a
715.5195312	n/a	183173	largeTSmallT	correct	congruent	0.42188	no	T	T
715.9414062	n/a	183281	responseLargeT	correct	n/a	0.42188	no	n/a	n/a
717.0117188	n/a	183555	largeTSmallH	correct	incongruent	0.45312	no	T	H
717.4648438	n/a	183671	responseLargeT	correct	n/a	0.45312	no	n/a	n/a
718.53125	n/a	183944	largeHSmallT	correct	incongruent	0.42578	no	H	T
718.9570312	n/a	184053	responseLargeH	correct	n/a	0.42578	no	n/a	n/a
720.0117188	n/a	184323	largeHSmallT	correct	incongruent	0.45703	no	H	T
720.46875	n/a	184440	responseLargeH	correct	n/a	0.45703	no	n/a	n/a
721.546875	n/a	184716	largeTSmallH	correct	incongruent	0.41797	no	T	H
721.9648438	n/a	184823	responseLargeT	correct	n/a	0.41797	no	n/a	n/a
723.0273438	n/a	185095	largeTSmallH	error	incongruent	0.375	no	T	H
723.4023438	n/a	185191	responseLargeH	error	n/a	0.375	no	n/a	n/a
724.4804688	n/a	185467	largeHSmallT	correct	incongruent	0.46094	no	H	T
724.9414062	n/a	185585	responseLargeH	correct	n/a	0.46094	no	n/a	n/a
726.0117188	n/a	185859	largeHSmallH	correct	congruent	0.42969	no	H	H
726.4414062	n/a	185969	responseLargeH	correct	n/a	0.42969	no	n/a	n/a
727.5078125	n/a	186242	largeTSmallT	correct	congruent	0.53516	no	T	T
728.0429688	n/a	186379	responseLargeT	correct	n/a	0.53516	no	n/a	n/a
729.1210938	n/a	186655	largeTSmallT	correct	congruent	0.55078	no	T	T
729.671875	n/a	186796	responseLargeT	correct	n/a	0.55078	no	n/a	n/a
730.734375	n/a	187068	largeHSmallT	error	incongruent	0.39062	no	H	T
731.125	n/a	187168	responseLargeT	error	n/a	0.39062	no	n/a	n/a
732.1992188	n/a	187443	largeTSmallH	correct	incongruent	0.50781	no	T	H
732.7070312	n/a	187573	responseLargeT	correct	n/a	0.50781	no	n/a	n/a
733.7734375	n/a	187846	largeHSmallH	correct	congruent	0.46484	no	H	H
734.2382812	n/a	187965	responseLargeH	correct	n/a	0.46484	no	n/a	n/a
735.3046875	n/a	188238	largeTSmallT	correct	congruent	0.50391	no	T	T
735.8085938	n/a	188367	responseLargeT	correct	n/a	0.50391	no	n/a	n/a
736.8789062	n/a	188641	largeTSmallT	correct	congruent	0.41016	no	T	T
737.2890625	n/a	188746	responseLargeT	correct	n/a	0.41016	no	n/a	n/a
738.359375	n/a	189020	largeTSmallH	correct	incongruent	0.40625	no	T	H
738.765625	n/a	189124	responseLargeT	correct	n/a	0.40625	no	n/a	n/a
739.8242188	n/a	189395	largeTSmallH	correct	incongruent	0.36719	no	T	H
740.1914062	n/a	189489	responseLargeT	correct	n/a	0.36719	no	n/a	n/a
741.265625	n/a	189764	largeTSmallH	correct	incongruent	0.625	no	T	H
741.890625	n/a	189924	responseLargeT	correct	n/a	0.625	no	n/a	n/a
742.9609375	n/a	190198	largeHSmallH	correct	congruent	0.45703	no	H	H
743.4179688	n/a	190315	responseLargeH	correct	n/a	0.45703	no	n/a	n/a
744.4921875	n/a	190590	largeHSmallH	correct	congruent	0.44141	no	H	H
744.9335938	n/a	190703	responseLargeH	correct	n/a	0.44141	no	n/a	n/a
746.0117188	n/a	190979	largeHSmallT	correct	incongruent	0.44141	no	H	T
746.453125	n/a	191092	responseLargeH	correct	n/a	0.44141	no	n/a	n/a
747.5195312	n/a	191365	largeTSmallH	correct	incongruent	0.40625	no	T	H
747.9257812	n/a	191469	responseLargeT	correct	n/a	0.40625	no	n/a	n/a
748.984375	n/a	191740	largeTSmallH	correct	incongruent	0.30469	no	T	H
749.2890625	n/a	191818	responseLargeT	correct	n/a	0.30469	no	n/a	n/a
750.359375	n/a	192092	largeHSmallH	correct	congruent	0.44141	no	H	H
750.8007812	n/a	192205	responseLargeH	correct	n/a	0.44141	no	n/a	n/a
751.8789062	n/a	192481	largeTSmallT	correct	congruent	0.40625	no	T	T
752.2851562	n/a	192585	responseLargeT	correct	n/a	0.40625	no	n/a	n/a
753.359375	n/a	192860	largeTSmallH	correct	incongruent	0.42969	no	T	H
753.7890625	n/a	192970	responseLargeT	correct	n/a	0.42969	no	n/a	n/a
754.8515625	n/a	193242	largeHSmallH	correct	congruent	0.39062	no	H	H
755.2421875	n/a	193342	responseLargeH	correct	n/a	0.39062	no	n/a	n/a
756.3203125	n/a	193618	largeTSmallH	correct	incongruent	0.34766	no	T	H
756.6679688	n/a	193707	responseLargeT	correct	n/a	0.34766	no	n/a	n/a
757.7460938	n/a	193983	largeHSmallT	correct	incongruent	0.42969	no	H	T
758.1757812	n/a	194093	responseLargeH	correct	n/a	0.42969	no	n/a	n/a
759.2539062	n/a	194369	largeTSmallH	correct	incongruent	0.51953	no	T	H
759.7734375	n/a	194502	responseLargeT	correct	n/a	0.51953	no	n/a	n/a
760.8515625	n/a	194778	largeHSmallT	correct	incongruent	0.54297	no	H	T
761.3945312	n/a	194917	responseLargeH	correct	n/a	0.54297	no	n/a	n/a
762.4648438	n/a	195191	largeTSmallT	correct	congruent	0.45312	no	T	T
762.9179688	n/a	195307	responseLargeT	correct	n/a	0.45312	no	n/a	n/a
764	n/a	195584	largeHSmallH	correct	congruent	0.41406	no	H	H
764.4140625	n/a	195690	responseLargeH	correct	n/a	0.41406	no	n/a	n/a
765.4921875	n/a	195966	largeTSmallT	correct	congruent	0.51172	no	T	T
766.0039062	n/a	196097	responseLargeT	correct	n/a	0.51172	no	n/a	n/a
767.0664062	n/a	196369	largeHSmallH	correct	congruent	0.41406	no	H	H
767.4804688	n/a	196475	responseLargeH	correct	n/a	0.41406	no	n/a	n/a
768.546875	n/a	196748	largeTSmallH	correct	incongruent	0.46094	no	T	H
769.0078125	n/a	196866	responseLargeT	correct	n/a	0.46094	no	n/a	n/a
770.078125	n/a	197140	largeHSmallT	correct	incongruent	0.44531	no	H	T
770.5234375	n/a	197254	responseLargeH	correct	n/a	0.44531	no	n/a	n/a
771.5976562	n/a	197529	largeHSmallT	correct	incongruent	0.49609	no	H	T
772.09375	n/a	197656	responseLargeH	correct	n/a	0.49609	no	n/a	n/a
773.171875	n/a	197932	largeTSmallH	correct	incongruent	0.40234	no	T	H
773.5742188	n/a	198035	responseLargeT	correct	n/a	0.40234	no	n/a	n/a
774.6523438	n/a	198311	largeTSmallT	correct	congruent	0.45703	no	T	T
775.109375	n/a	198428	responseLargeT	correct	n/a	0.45703	no	n/a	n/a
776.171875	n/a	198700	largeTSmallT	correct	congruent	0.44531	no	T	T
776.6171875	n/a	198814	responseLargeT	correct	n/a	0.44531	no	n/a	n/a
777.6914062	n/a	199089	largeTSmallT	correct	congruent	0.45312	no	T	T
778.1445312	n/a	199205	responseLargeT	correct	n/a	0.45312	no	n/a	n/a
779.2265625	n/a	199482	largeTSmallT	correct	congruent	0.33984	no	T	T
779.5664062	n/a	199569	responseLargeT	correct	n/a	0.33984	no	n/a	n/a
780.6367188	n/a	199843	largeTSmallH	correct	incongruent	0.33594	no	T	H
780.9726562	n/a	199929	responseLargeT	correct	n/a	0.33594	no	n/a	n/a
782.0390625	n/a	200202	largeTSmallH	correct	incongruent	0.46094	no	T	H
782.5	n/a	200320	responseLargeT	correct	n/a	0.46094	no	n/a	n/a
783.5703125	n/a	200594	largeHSmallT	correct	incongruent	0.46875	no	H	T
784.0390625	n/a	200714	responseLargeH	correct	n/a	0.46875	no	n/a	n/a
785.1171875	n/a	200990	largeHSmallH	error	congruent	0.34375	no	H	H
785.4609375	n/a	201078	responseLargeT	error	n/a	0.34375	no	n/a	n/a
786.53125	n/a	201352	largeHSmallH	correct	congruent	0.40234	no	H	H
786.9335938	n/a	201455	responseLargeH	correct	n/a	0.40234	no	n/a	n/a
787.9960938	n/a	201727	largeHSmallH	correct	congruent	0.45312	no	H	H
788.4492188	n/a	201843	responseLargeH	correct	n/a	0.45312	no	n/a	n/a
789.5195312	n/a	202117	largeTSmallH	error	incongruent	0.37891	no	T	H
789.8984375	n/a	202214	responseLargeH	error	n/a	0.37891	no	n/a	n/a
790.9726562	n/a	202489	largeTSmallH	correct	incongruent	0.62109	no	T	H
791.59375	n/a	202648	responseLargeT	correct	n/a	0.62109	no	n/a	n/a
792.6640625	n/a	202922	largeTSmallH	correct	incongruent	0.58594	no	T	H
793.25	n/a	203072	responseLargeT	correct	n/a	0.58594	no	n/a	n/a
794.3164062	n/a	203345	largeTSmallT	correct	congruent	0.49609	no	T	T
794.8125	n/a	203472	responseLargeT	correct	n/a	0.49609	no	n/a	n/a
795.8789062	n/a	203745	largeTSmallT	correct	congruent	0.38672	no	T	T
796.265625	n/a	203844	responseLargeT	correct	n/a	0.38672	no	n/a	n/a
797.3320312	n/a	204117	largeHSmallH	correct	congruent	0.41016	no	H	H
797.7421875	n/a	204222	responseLargeH	correct	n/a	0.41016	no	n/a	n/a
798.8125	n/a	204496	largeHSmallH	correct	congruent	0.35156	no	H	H
799.1640625	n/a	204586	responseLargeH	correct	n/a	0.35156	no	n/a	n/a
800.2382812	n/a	204861	largeHSmallH	correct	congruent	0.375	no	H	H
800.6132812	n/a	204957	responseLargeH	correct	n/a	0.375	no	n/a	n/a
801.6914062	n/a	205233	largeTSmallT	correct	congruent	0.47266	no	T	T
802.1640625	n/a	205354	responseLargeT	correct	n/a	0.47266	no	n/a	n/a
803.2226562	n/a	205625	largeTSmallH	correct	incongruent	0.91016	no	T	H
804.1328125	n/a	205858	responseLargeT	correct	n/a	0.91016	no	n/a	n/a
805.2109375	n/a	206134	largeHSmallH	correct	congruent	0.42188	no	H	H
805.6328125	n/a	206242	responseLargeH	correct	n/a	0.42188	no	n/a	n/a
806.703125	n/a	206516	largeHSmallT	correct	incongruent	0.4375	no	H	T
807.140625	n/a	206628	responseLargeH	correct	n/a	0.4375	no	n/a	n/a
808.2109375	n/a	206902	largeHSmallT	correct	incongruent	0.37891	no	H	T
808.5898438	n/a	206999	responseLargeH	correct	n/a	0.37891	no	n/a	n/a
809.6640625	n/a	207274	largeTSmallT	correct	congruent	0.42188	no	T	T
810.0859375	n/a	207382	responseLargeT	correct	n/a	0.42188	no	n/a	n/a
811.15625	n/a	207656	largeHSmallT	correct	incongruent	0.37891	no	H	T
811.5351562	n/a	207753	responseLargeH	correct	n/a	0.37891	no	n/a	n/a
812.609375	n/a	208028	largeHSmallH	correct	congruent	0.44922	no	H	H
813.0585938	n/a	208143	responseLargeH	correct	n/a	0.44922	no	n/a	n/a
814.1289062	n/a	208417	largeHSmallH	correct	congruent	0.41797	no	H	H
814.546875	n/a	208524	responseLargeH	correct	n/a	0.41797	no	n/a	n/a
815.609375	n/a	208796	largeTSmallT	correct	congruent	0.42578	no	T	T
816.0351562	n/a	208905	responseLargeT	correct	n/a	0.42578	no	n/a	n/a
817.1054688	n/a	209179	largeTSmallH	error	incongruent	0.5	no	T	H
817.6054688	n/a	209307	responseLargeH	error	n/a	0.5	no	n/a	n/a
818.6757812	n/a	209581	largeTSmallH	correct	incongruent	0.5	no	T	H
819.1757812	n/a	209709	responseLargeT	correct	n/a	0.5	no	n/a	n/a
820.25	n/a	209984	largeTSmallH	error	incongruent	0.42578	no	T	H
820.6757812	n/a	210093	responseLargeH	error	n/a	0.42578	no	n/a	n/a
821.7421875	n/a	210366	largeTSmallH	correct	incongruent	0.49609	no	T	H
822.2382812	n/a	210493	responseLargeT	correct	n/a	0.49609	no	n/a	n/a
823.3046875	n/a	210766	largeHSmallT	correct	incongruent	0.44922	no	H	T
823.7539062	n/a	210881	responseLargeH	correct	n/a	0.44922	no	n/a	n/a
824.8242188	n/a	211155	largeHSmallT	correct	incongruent	0.42969	no	H	T
825.2539062	n/a	211265	responseLargeH	correct	n/a	0.42969	no	n/a	n/a
826.3164062	n/a	211537	largeHSmallH	correct	congruent	0.44141	no	H	H
826.7578125	n/a	211650	responseLargeH	correct	n/a	0.44141	no	n/a	n/a
827.8359375	n/a	211926	largeTSmallH	correct	incongruent	0.45703	no	T	H
828.2929688	n/a	212043	responseLargeT	correct	n/a	0.45703	no	n/a	n/a
829.3554688	n/a	212315	largeHSmallT	correct	incongruent	0.625	no	H	T
829.9804688	n/a	212475	responseLargeH	correct	n/a	0.625	no	n/a	n/a
831.0625	n/a	212752	largeHSmallH	correct	congruent	0.46094	no	H	H
831.5234375	n/a	212870	responseLargeH	correct	n/a	0.46094	no	n/a	n/a
832.5976562	n/a	213145	largeHSmallH	correct	congruent	0.40625	no	H	H
833.0039062	n/a	213249	responseLargeH	correct	n/a	0.40625	no	n/a	n/a
834.078125	n/a	213524	largeHSmallT	correct	incongruent	0.42188	no	H	T
834.5	n/a	213632	responseLargeH	correct	n/a	0.42188	no	n/a	n/a
835.5703125	n/a	213906	largeTSmallT	correct	congruent	0.42578	no	T	T
835.9960938	n/a	214015	responseLargeT	correct	n/a	0.42578	no	n/a	n/a
837.0625	n/a	214288	largeHSmallT	correct	incongruent	0.42188	no	H	T
837.484375	n/a	214396	responseLargeH	correct	n/a	0.42188	no	n/a	n/a
838.5429688	n/a	214667	largeHSmallT	correct	incongruent	0.38281	no	H	T
838.9257812	n/a	214765	responseLargeH	correct	n/a	0.38281	no	n/a	n/a
839.9960938	n/a	215039	largeTSmallT	correct	congruent	0.41016	no	T	T
840.40625	n/a	215144	responseLargeT	correct	n/a	0.41016	no	n/a	n/a
841.4765625	n/a	215418	largeHSmallT	correct	incongruent	0.39844	no	H	T
841.875	n/a	215520	responseLargeH	correct	n/a	0.39844	no	n/a	n/a
842.9414062	n/a	215793	largeHSmallH	correct	congruent	0.36328	no	H	H
843.3046875	n/a	215886	responseLargeH	correct	n/a	0.36328	no	n/a	n/a
844.3828125	n/a	216162	largeHSmallT	correct	incongruent	0.4375	no	H	T
844.8203125	n/a	216274	responseLargeH	correct	n/a	0.4375	no	n/a	n/a
845.9023438	n/a	216551	largeHSmallT	correct	incongruent	0.40234	no	H	T
846.3046875	n/a	216654	responseLargeH	correct	n/a	0.40234	no	n/a	n/a
847.3828125	n/a	216930	largeTSmallT	correct	congruent	0.48438	no	T	T
847.8671875	n/a	217054	responseLargeT	correct	n/a	0.48438	no	n/a	n/a
848.9414062	n/a	217329	largeTSmallT	correct	congruent	0.41797	no	T	T
849.359375	n/a	217436	responseLargeT	correct	n/a	0.41797	no	n/a	n/a
850.4375	n/a	217712	largeHSmallH	correct	congruent	0.46875	no	H	H
850.90625	n/a	217832	responseLargeH	correct	n/a	0.46875	no	n/a	n/a
851.984375	n/a	218108	largeTSmallT	correct	congruent	0.40625	no	T	T
852.390625	n/a	218212	responseLargeT	correct	n/a	0.40625	no	n/a	n/a
853.4609375	n/a	218486	largeTSmallH	correct	incongruent	0.5625	no	T	H
854.0234375	n/a	218630	responseLargeT	correct	n/a	0.5625	no	n/a	n/a
855.1015625	n/a	218906	largeHSmallT	correct	incongruent	0.37891	no	H	T
855.4804688	n/a	219003	responseLargeH	correct	n/a	0.37891	no	n/a	n/a
856.5546875	n/a	219278	largeHSmallH	correct	congruent	0.43359	no	H	H
856.9882812	n/a	219389	responseLargeH	correct	n/a	0.43359	no	n/a	n/a
858.0625	n/a	219664	largeHSmallH	correct	congruent	0.44141	no	H	H
858.5039062	n/a	219777	responseLargeH	correct	n/a	0.44141	no	n/a	n/a
859.5820312	n/a	220053	largeTSmallH	correct	incongruent	0.40234	no	T	H
859.984375	n/a	220156	responseLargeT	correct	n/a	0.40234	no	n/a	n/a
861.0625	n/a	220432	largeTSmallT	correct	congruent	0.48438	no	T	T
861.546875	n/a	220556	responseLargeT	correct	n/a	0.48438	no	n/a	n/a
862.6210938	n/a	220831	largeHSmallT	correct	incongruent	0.40234	no	H	T
863.0234375	n/a	220934	responseLargeH	correct	n/a	0.40234	no	n/a	n/a
864.1015625	n/a	221210	largeHSmallT	correct	incongruent	0.41016	no	H	T
864.5117188	n/a	221315	responseLargeH	correct	n/a	0.41016	no	n/a	n/a
865.5820312	n/a	221589	largeTSmallH	correct	incongruent	0.30078	no	T	H
865.8828125	n/a	221666	responseLargeT	correct	n/a	0.30078	no	n/a	n/a
866.9570312	n/a	221941	largeTSmallT	correct	congruent	0.47266	no	T	T
867.4296875	n/a	222062	responseLargeT	correct	n/a	0.47266	no	n/a	n/a
868.5039062	n/a	222337	largeHSmallT	correct	incongruent	0.40234	no	H	T
868.90625	n/a	222440	responseLargeH	correct	n/a	0.40234	no	n/a	n/a
869.9804688	n/a	222715	largeHSmallT	correct	incongruent	0.47266	no	H	T
870.453125	n/a	222836	responseLargeH	correct	n/a	0.47266	no	n/a	n/a
871.5273438	n/a	223111	largeTSmallT	correct	congruent	0.39844	no	T	T
871.9257812	n/a	223213	responseLargeT	correct	n/a	0.39844	no	n/a	n/a
872.9960938	n/a	223487	largeTSmallT	error	congruent	0.37109	no	T	T
873.3671875	n/a	223582	responseLargeH	error	n/a	0.37109	no	n/a	n/a
874.4492188	n/a	223859	largeTSmallH	error	incongruent	0.43359	no	T	H
874.8828125	n/a	223970	responseLargeH	error	n/a	0.43359	no	n/a	n/a
875.9570312	n/a	224245	largeTSmallT	correct	congruent	0.44922	no	T	T
876.40625	n/a	224360	responseLargeT	correct	n/a	0.44922	no	n/a	n/a
877.4765625	n/a	224634	largeTSmallT	correct	congruent	0.45703	no	T	T
877.9335938	n/a	224751	responseLargeT	correct	n/a	0.45703	no	n/a	n/a
878.9960938	n/a	225023	largeTSmallH	correct	incongruent	0.50781	no	T	H
879.5039062	n/a	225153	responseLargeT	correct	n/a	0.50781	no	n/a	n/a
880.5820312	n/a	225429	largeHSmallH	correct	congruent	0.82422	no	H	H
881.40625	n/a	225640	responseLargeH	correct	n/a	0.82422	no	n/a	n/a
882.4765625	n/a	225914	largeHSmallT	correct	incongruent	0.42188	no	H	T
882.8984375	n/a	226022	responseLargeH	correct	n/a	0.42188	no	n/a	n/a
883.96875	n/a	226296	largeHSmallT	correct	incongruent	0.375	no	H	T
884.34375	n/a	226392	responseLargeH	correct	n/a	0.375	no	n/a	n/a
885.4101562	n/a	226665	largeHSmallH	correct	congruent	0.39844	no	H	H
885.8085938	n/a	226767	responseLargeH	correct	n/a	0.39844	no	n/a	n/a
886.875	n/a	227040	largeTSmallH	correct	incongruent	0.44922	no	T	H
887.3242188	n/a	227155	responseLargeT	correct	n/a	0.44922	no	n/a	n/a
888.3945312	n/a	227429	largeTSmallT	error	congruent	0.34766	no	T	T
888.7421875	n/a	227518	responseLargeH	error	n/a	0.34766	no	n/a	n/a
889.8085938	n/a	227791	largeTSmallT	correct	congruent	0.45703	no	T	T
890.265625	n/a	227908	responseLargeT	correct	n/a	0.45703	no	n/a	n/a
891.34375	n/a	228184	largeHSmallT	error	incongruent	0.42578	no	H	T
891.7695312	n/a	228293	responseLargeT	error	n/a	0.42578	no	n/a	n/a
892.8359375	n/a	228566	largeTSmallH	correct	incongruent	0.61328	no	T	H
893.4492188	n/a	228723	responseLargeT	correct	n/a	0.61328	no	n/a	n/a
894.5273438	n/a	228999	largeTSmallH	correct	incongruent	0.52344	no	T	H
895.0507812	n/a	229133	responseLargeT	correct	n/a	0.52344	no	n/a	n/a
896.1289062	n/a	229409	largeHSmallH	correct	congruent	0.44531	no	H	H
896.5742188	n/a	229523	responseLargeH	correct	n/a	0.44531	no	n/a	n/a
897.6484375	n/a	229798	largeTSmallT	correct	congruent	0.42188	no	T	T
898.0703125	n/a	229906	responseLargeT	correct	n/a	0.42188	no	n/a	n/a
899.140625	n/a	230180	largeHSmallH	correct	congruent	0.37891	no	H	H
899.5195312	n/a	230277	responseLargeH	correct	n/a	0.37891	no	n/a	n/a
900.59375	n/a	230552	largeTSmallT	correct	congruent	0.36719	no	T	T
900.9609375	n/a	230646	responseLargeT	correct	n/a	0.36719	no	n/a	n/a
902.0195312	n/a	230917	largeTSmallT	correct	congruent	0.39453	no	T	T
902.4140625	n/a	231018	responseLargeT	correct	n/a	0.39453	no	n/a	n/a
903.4882812	n/a	231293	largeTSmallT	correct	congruent	0.38672	no	T	T
903.875	n/a	231392	responseLargeT	correct	n/a	0.38672	no	n/a	n/a
904.9414062	n/a	231665	largeHSmallH	correct	congruent	0.44922	no	H	H
905.390625	n/a	231780	responseLargeH	correct	n/a	0.44922	no	n/a	n/a
906.4609375	n/a	232054	largeTSmallH	correct	incongruent	0.35156	no	T	H
906.8125	n/a	232144	responseLargeT	correct	n/a	0.35156	no	n/a	n/a
907.8867188	n/a	232419	largeTSmallH	correct	incongruent	0.47656	no	T	H
908.3632812	n/a	232541	responseLargeT	correct	n/a	0.47656	no	n/a	n/a
909.4335938	n/a	232815	largeTSmallT	correct	congruent	0.41406	no	T	T
909.8476562	n/a	232921	responseLargeT	correct	n/a	0.41406	no	n/a	n/a
910.9140625	n/a	233194	largeHSmallH	correct	congruent	0.46484	no	H	H
911.3789062	n/a	233313	responseLargeH	correct	n/a	0.46484	no	n/a	n/a
912.4492188	n/a	233587	largeTSmallT	correct	congruent	0.46484	no	T	T
912.9140625	n/a	233706	responseLargeT	correct	n/a	0.46484	no	n/a	n/a
913.9960938	n/a	233983	largeHSmallH	correct	congruent	0.40234	no	H	H
914.3984375	n/a	234086	responseLargeH	correct	n/a	0.40234	no	n/a	n/a
915.4765625	n/a	234362	largeHSmallH	correct	congruent	0.39453	no	H	H
915.8710938	n/a	234463	responseLargeH	correct	n/a	0.39453	no	n/a	n/a
916.9414062	n/a	234737	largeHSmallH	correct	congruent	0.43359	no	H	H
917.375	n/a	234848	responseLargeH	correct	n/a	0.43359	no	n/a	n/a
918.4492188	n/a	235123	largeHSmallH	correct	congruent	0.40234	no	H	H
918.8515625	n/a	235226	responseLargeH	correct	n/a	0.40234	no	n/a	n/a
919.9140625	n/a	235498	largeTSmallT	correct	congruent	0.44141	no	T	T
920.3554688	n/a	235611	responseLargeT	correct	n/a	0.44141	no	n/a	n/a
921.4335938	n/a	235887	largeHSmallT	correct	incongruent	0.34766	no	H	T
921.78125	n/a	235976	responseLargeH	correct	n/a	0.34766	no	n/a	n/a
922.8476562	n/a	236249	largeTSmallT	correct	congruent	0.41016	no	T	T
923.2578125	n/a	236354	responseLargeT	correct	n/a	0.41016	no	n/a	n/a
924.328125	n/a	236628	largeHSmallT	correct	incongruent	0.34766	no	H	T
924.6757812	n/a	236717	responseLargeH	correct	n/a	0.34766	no	n/a	n/a
925.7539062	n/a	236993	largeTSmallH	correct	incongruent	0.39062	no	T	H
926.1445312	n/a	237093	responseLargeT	correct	n/a	0.39062	no	n/a	n/a
927.2226562	n/a	237369	largeHSmallT	correct	incongruent	0.37891	no	H	T
927.6015625	n/a	237466	responseLargeH	correct	n/a	0.37891	no	n/a	n/a
928.6757812	n/a	237741	largeTSmallT	correct	congruent	0.36719	no	T	T
929.0429688	n/a	237835	responseLargeT	correct	n/a	0.36719	no	n/a	n/a
930.1132812	n/a	238109	largeTSmallH	error	incongruent	0.37109	no	T	H
930.484375	n/a	238204	responseLargeH	error	n/a	0.37109	no	n/a	n/a
931.5546875	n/a	238478	largeHSmallH	correct	congruent	0.41797	no	H	H
931.9726562	n/a	238585	responseLargeH	correct	n/a	0.41797	no	n/a	n/a
933.0351562	n/a	238857	largeTSmallT	correct	congruent	0.37109	no	T	T
933.40625	n/a	238952	responseLargeT	correct	n/a	0.37109	no	n/a	n/a
934.4726562	n/a	239225	largeHSmallH	correct	congruent	0.36328	no	H	H
934.8359375	n/a	239318	responseLargeH	correct	n/a	0.36328	no	n/a	n/a
935.9140625	n/a	239594	largeHSmallH	correct	congruent	0.37109	no	H	H
936.2851562	n/a	239689	responseLargeH	correct	n/a	0.37109	no	n/a	n/a
937.3554688	n/a	239963	largeHSmallT	correct	incongruent	0.39844	no	H	T
937.7539062	n/a	240065	responseLargeH	correct	n/a	0.39844	no	n/a	n/a
938.8203125	n/a	240338	largeTSmallT	correct	congruent	0.4375	no	T	T
939.2578125	n/a	240450	responseLargeT	correct	n/a	0.4375	no	n/a	n/a
940.328125	n/a	240724	largeTSmallT	correct	congruent	0.53125	no	T	T
940.859375	n/a	240860	responseLargeT	correct	n/a	0.53125	no	n/a	n/a
941.9257812	n/a	241133	largeTSmallH	error	incongruent	0.35156	no	T	H
942.2773438	n/a	241223	responseLargeH	error	n/a	0.35156	no	n/a	n/a
943.3554688	n/a	241499	largeHSmallT	correct	incongruent	0.40625	no	H	T
943.7617188	n/a	241603	responseLargeH	correct	n/a	0.40625	no	n/a	n/a
944.8320312	n/a	241877	largeHSmallH	correct	congruent	0.40234	no	H	H
945.234375	n/a	241980	responseLargeH	correct	n/a	0.40234	no	n/a	n/a
946.3125	n/a	242256	largeTSmallT	correct	congruent	0.44141	no	T	T
946.7539062	n/a	242369	responseLargeT	correct	n/a	0.44141	no	n/a	n/a
958.59375	n/a	245400	largeHSmallH	correct	congruent	0.50391	no	H	H
959.0976562	n/a	245529	responseSmallH	correct	n/a	0.50391	no	n/a	n/a
960.1679688	n/a	245803	largeHSmallT	correct	incongruent	0.50781	no	H	T
960.6757812	n/a	245933	responseSmallT	correct	n/a	0.50781	no	n/a	n/a
961.7382812	n/a	246205	largeTSmallH	correct	incongruent	0.5625	no	T	H
962.3007812	n/a	246349	responseSmallH	correct	n/a	0.5625	no	n/a	n/a
963.3671875	n/a	246622	largeHSmallT	correct	incongruent	0.47266	no	H	T
963.8398438	n/a	246743	responseSmallT	correct	n/a	0.47266	no	n/a	n/a
964.9140625	n/a	247018	largeTSmallT	correct	congruent	0.50781	no	T	T
965.421875	n/a	247148	responseSmallT	correct	n/a	0.50781	no	n/a	n/a
966.5	n/a	247424	largeHSmallT	error	incongruent	0.42188	no	H	T
966.921875	n/a	247532	responseSmallH	error	n/a	0.42188	no	n/a	n/a
967.9921875	n/a	247806	largeTSmallH	correct	incongruent	0.46094	no	T	H
968.453125	n/a	247924	responseSmallH	correct	n/a	0.46094	no	n/a	n/a
969.5273438	n/a	248199	largeTSmallT	correct	congruent	0.54297	no	T	T
970.0703125	n/a	248338	responseSmallT	correct	n/a	0.54297	no	n/a	n/a
971.1523438	n/a	248615	largeHSmallH	correct	congruent	0.35547	no	H	H
971.5078125	n/a	248706	responseSmallH	correct	n/a	0.35547	no	n/a	n/a
972.578125	n/a	248980	largeHSmallT	error	incongruent	0.4375	no	H	T
973.015625	n/a	249092	responseSmallH	error	n/a	0.4375	no	n/a	n/a
974.0859375	n/a	249366	largeTSmallH	correct	incongruent	0.64062	no	T	H
974.7265625	n/a	249530	responseSmallH	correct	n/a	0.64062	no	n/a	n/a
975.7929688	n/a	249803	largeTSmallH	correct	incongruent	0.42969	no	T	H
976.2226562	n/a	249913	responseSmallH	correct	n/a	0.42969	no	n/a	n/a
977.3007812	n/a	250189	largeHSmallH	correct	congruent	0.46094	no	H	H
977.7617188	n/a	250307	responseSmallH	correct	n/a	0.46094	no	n/a	n/a
978.8203125	n/a	250578	largeHSmallH	correct	congruent	0.36328	no	H	H
979.1835938	n/a	250671	responseSmallH	correct	n/a	0.36328	no	n/a	n/a
980.2578125	n/a	250946	largeHSmallT	correct	incongruent	0.42578	no	H	T
980.6835938	n/a	251055	responseSmallT	correct	n/a	0.42578	no	n/a	n/a
981.7539062	n/a	251329	largeHSmallH	correct	congruent	0.4375	no	H	H
982.1914062	n/a	251441	responseSmallH	correct	n/a	0.4375	no	n/a	n/a
983.2734375	n/a	251718	largeTSmallH	correct	incongruent	0.54297	no	T	H
983.8164062	n/a	251857	responseSmallH	correct	n/a	0.54297	no	n/a	n/a
984.8867188	n/a	252131	largeTSmallT	correct	congruent	0.55078	no	T	T
985.4375	n/a	252272	responseSmallT	correct	n/a	0.55078	no	n/a	n/a
986.5	n/a	252544	largeHSmallT	correct	incongruent	0.51562	no	H	T
987.015625	n/a	252676	responseSmallT	correct	n/a	0.51562	no	n/a	n/a
988.0859375	n/a	252950	largeTSmallT	correct	congruent	0.50781	no	T	T
988.59375	n/a	253080	responseSmallT	correct	n/a	0.50781	no	n/a	n/a
989.671875	n/a	253356	largeTSmallH	correct	incongruent	0.75	no	T	H
990.421875	n/a	253548	responseSmallH	correct	n/a	0.75	no	n/a	n/a
991.484375	n/a	253820	largeTSmallH	correct	incongruent	0.48828	no	T	H
991.9726562	n/a	253945	responseSmallH	correct	n/a	0.48828	no	n/a	n/a
993.03125	n/a	254216	largeHSmallT	correct	incongruent	0.46484	no	H	T
993.4960938	n/a	254335	responseSmallT	correct	n/a	0.46484	no	n/a	n/a
994.5664062	n/a	254609	largeHSmallH	correct	congruent	0.50391	no	H	H
995.0703125	n/a	254738	responseSmallH	correct	n/a	0.50391	no	n/a	n/a
996.140625	n/a	255012	largeHSmallH	correct	congruent	0.46094	no	H	H
996.6015625	n/a	255130	responseSmallH	correct	n/a	0.46094	no	n/a	n/a
997.671875	n/a	255404	largeHSmallH	correct	congruent	0.37109	no	H	H
998.0429688	n/a	255499	responseSmallH	correct	n/a	0.37109	no	n/a	n/a
999.125	n/a	255776	largeHSmallT	error	incongruent	0.39844	no	H	T
999.5234375	n/a	255878	responseSmallH	error	n/a	0.39844	no	n/a	n/a
1000.578125	n/a	256148	largeHSmallT	correct	incongruent	0.52344	no	H	T
1001.101562	n/a	256282	responseSmallT	correct	n/a	0.52344	no	n/a	n/a
1002.179688	n/a	256558	largeHSmallH	correct	congruent	0.53906	no	H	H
1002.71875	n/a	256696	responseSmallH	correct	n/a	0.53906	no	n/a	n/a
1003.777344	n/a	256967	largeTSmallT	correct	congruent	0.50781	no	T	T
1004.285156	n/a	257097	responseSmallT	correct	n/a	0.50781	no	n/a	n/a
1005.367188	n/a	257374	largeHSmallH	correct	congruent	0.37891	no	H	H
1005.746094	n/a	257471	responseSmallH	correct	n/a	0.37891	no	n/a	n/a
1006.804688	n/a	257742	largeTSmallH	correct	incongruent	0.55859	no	T	H
1007.363281	n/a	257885	responseSmallH	correct	n/a	0.55859	no	n/a	n/a
1008.433594	n/a	258159	largeHSmallH	correct	congruent	0.4375	no	H	H
1008.871094	n/a	258271	responseSmallH	correct	n/a	0.4375	no	n/a	n/a
1009.953125	n/a	258548	largeTSmallH	correct	incongruent	0.41016	no	T	H
1010.363281	n/a	258653	responseSmallH	correct	n/a	0.41016	no	n/a	n/a
1011.433594	n/a	258927	largeHSmallH	correct	congruent	0.41016	no	H	H
1011.84375	n/a	259032	responseSmallH	correct	n/a	0.41016	no	n/a	n/a
1012.914062	n/a	259306	largeHSmallH	correct	congruent	0.40625	no	H	H
1013.320312	n/a	259410	responseSmallH	correct	n/a	0.40625	no	n/a	n/a
1014.390625	n/a	259684	largeTSmallH	correct	incongruent	0.46875	no	T	H
1014.859375	n/a	259804	responseSmallH	correct	n/a	0.46875	no	n/a	n/a
1015.9375	n/a	260080	largeTSmallH	correct	incongruent	0.41406	no	T	H
1016.351562	n/a	260186	responseSmallH	correct	n/a	0.41406	no	n/a	n/a
1017.417969	n/a	260459	largeHSmallT	correct	incongruent	0.64062	no	H	T
1018.058594	n/a	260623	responseSmallT	correct	n/a	0.64062	no	n/a	n/a
1019.136719	n/a	260899	largeTSmallH	correct	incongruent	0.52734	no	T	H
1019.664062	n/a	261034	responseSmallH	correct	n/a	0.52734	no	n/a	n/a
1020.738281	n/a	261309	largeTSmallH	correct	incongruent	0.48828	no	T	H
1021.226562	n/a	261434	responseSmallH	correct	n/a	0.48828	no	n/a	n/a
1022.296875	n/a	261708	largeTSmallT	correct	congruent	0.48828	no	T	T
1022.785156	n/a	261833	responseSmallT	correct	n/a	0.48828	no	n/a	n/a
1023.859375	n/a	262108	largeTSmallH	correct	incongruent	0.38281	no	T	H
1024.242188	n/a	262206	responseSmallH	correct	n/a	0.38281	no	n/a	n/a
1025.3125	n/a	262480	largeHSmallT	correct	incongruent	0.55078	no	H	T
1025.863281	n/a	262621	responseSmallT	correct	n/a	0.55078	no	n/a	n/a
1026.9375	n/a	262896	largeTSmallH	correct	incongruent	0.41406	no	T	H
1027.351562	n/a	263002	responseSmallH	correct	n/a	0.41406	no	n/a	n/a
1028.417969	n/a	263275	largeHSmallH	correct	congruent	0.39453	no	H	H
1028.8125	n/a	263376	responseSmallH	correct	n/a	0.39453	no	n/a	n/a
1029.886719	n/a	263651	largeTSmallH	correct	incongruent	0.44531	no	T	H
1030.332031	n/a	263765	responseSmallH	correct	n/a	0.44531	no	n/a	n/a
1031.390625	n/a	264036	largeHSmallT	correct	incongruent	0.55469	no	H	T
1031.945312	n/a	264178	responseSmallT	correct	n/a	0.55469	no	n/a	n/a
1033.019531	n/a	264453	largeTSmallT	correct	congruent	0.49219	no	T	T
1033.511719	n/a	264579	responseSmallT	correct	n/a	0.49219	no	n/a	n/a
1034.578125	n/a	264852	largeHSmallH	correct	congruent	0.45703	no	H	H
1035.035156	n/a	264969	responseSmallH	correct	n/a	0.45703	no	n/a	n/a
1036.113281	n/a	265245	largeTSmallH	error	incongruent	0.43359	no	T	H
1036.546875	n/a	265356	responseSmallT	error	n/a	0.43359	no	n/a	n/a
1037.617188	n/a	265630	largeTSmallT	correct	congruent	0.48438	no	T	T
1038.101562	n/a	265754	responseSmallT	correct	n/a	0.48438	no	n/a	n/a
1039.164062	n/a	266026	largeTSmallH	correct	incongruent	0.49609	no	T	H
1039.660156	n/a	266153	responseSmallH	correct	n/a	0.49609	no	n/a	n/a
1040.722656	n/a	266425	largeHSmallH	correct	congruent	0.53516	no	H	H
1041.257812	n/a	266562	responseSmallH	correct	n/a	0.53516	no	n/a	n/a
1042.335938	n/a	266838	largeHSmallH	correct	congruent	0.51172	no	H	H
1042.847656	n/a	266969	responseSmallH	correct	n/a	0.51172	no	n/a	n/a
1043.925781	n/a	267245	largeHSmallT	correct	incongruent	0.63281	no	H	T
1044.558594	n/a	267407	responseSmallT	correct	n/a	0.63281	no	n/a	n/a
1045.617188	n/a	267678	largeTSmallH	correct	incongruent	0.5	no	T	H
1046.117188	n/a	267806	responseSmallH	correct	n/a	0.5	no	n/a	n/a
1047.175781	n/a	268077	largeTSmallT	correct	congruent	0.5	no	T	T
1047.675781	n/a	268205	responseSmallT	correct	n/a	0.5	no	n/a	n/a
1048.738281	n/a	268477	largeTSmallH	correct	incongruent	0.39062	no	T	H
1049.128906	n/a	268577	responseSmallH	correct	n/a	0.39062	no	n/a	n/a
1050.191406	n/a	268849	largeTSmallH	correct	incongruent	0.51172	no	T	H
1050.703125	n/a	268980	responseSmallH	correct	n/a	0.51172	no	n/a	n/a
1051.765625	n/a	269252	largeHSmallT	correct	incongruent	0.60156	no	H	T
1052.367188	n/a	269406	responseSmallT	correct	n/a	0.60156	no	n/a	n/a
1053.445312	n/a	269682	largeHSmallH	correct	congruent	0.46484	no	H	H
1053.910156	n/a	269801	responseSmallH	correct	n/a	0.46484	no	n/a	n/a
1054.992188	n/a	270078	largeHSmallT	correct	incongruent	0.52734	no	H	T
1055.519531	n/a	270213	responseSmallT	correct	n/a	0.52734	no	n/a	n/a
1056.589844	n/a	270487	largeHSmallT	correct	incongruent	0.56641	no	H	T
1057.15625	n/a	270632	responseSmallT	correct	n/a	0.56641	no	n/a	n/a
1058.230469	n/a	270907	largeTSmallT	correct	congruent	0.60156	no	T	T
1058.832031	n/a	271061	responseSmallT	correct	n/a	0.60156	no	n/a	n/a
1059.898438	n/a	271334	largeTSmallH	correct	incongruent	0.35547	no	T	H
1060.253906	n/a	271425	responseSmallH	correct	n/a	0.35547	no	n/a	n/a
1061.3125	n/a	271696	largeHSmallT	correct	incongruent	0.5	no	H	T
1061.8125	n/a	271824	responseSmallT	correct	n/a	0.5	no	n/a	n/a
1062.882812	n/a	272098	largeHSmallT	error	incongruent	0.42578	no	H	T
1063.308594	n/a	272207	responseSmallH	error	n/a	0.42578	no	n/a	n/a
1064.378906	n/a	272481	largeTSmallH	correct	incongruent	0.53516	no	T	H
1064.914062	n/a	272618	responseSmallH	correct	n/a	0.53516	no	n/a	n/a
1065.976562	n/a	272890	largeTSmallT	correct	congruent	0.39844	no	T	T
1066.375	n/a	272992	responseSmallT	correct	n/a	0.39844	no	n/a	n/a
1067.445312	n/a	273266	largeHSmallH	correct	congruent	0.38672	no	H	H
1067.832031	n/a	273365	responseSmallH	correct	n/a	0.38672	no	n/a	n/a
1068.898438	n/a	273638	largeTSmallT	correct	congruent	0.59375	no	T	T
1069.492188	n/a	273790	responseSmallT	correct	n/a	0.59375	no	n/a	n/a
1070.5625	n/a	274064	largeHSmallH	correct	congruent	0.58594	no	H	H
1071.148438	n/a	274214	responseSmallH	correct	n/a	0.58594	no	n/a	n/a
1072.21875	n/a	274488	largeHSmallH	correct	congruent	0.54297	no	H	H
1072.761719	n/a	274627	responseSmallH	correct	n/a	0.54297	no	n/a	n/a
1073.832031	n/a	274901	largeTSmallT	correct	congruent	0.66406	no	T	T
1074.496094	n/a	275071	responseSmallT	correct	n/a	0.66406	no	n/a	n/a
1075.5625	n/a	275344	largeTSmallT	correct	congruent	0.59375	no	T	T
1076.15625	n/a	275496	responseSmallT	correct	n/a	0.59375	no	n/a	n/a
1077.230469	n/a	275771	largeTSmallT	correct	congruent	0.54297	no	T	T
1077.773438	n/a	275910	responseSmallT	correct	n/a	0.54297	no	n/a	n/a
1078.859375	n/a	276188	largeTSmallT	correct	congruent	0.49609	no	T	T
1079.355469	n/a	276315	responseSmallT	correct	n/a	0.49609	no	n/a	n/a
1080.429688	n/a	276590	largeHSmallT	error	incongruent	0.67188	no	H	T
1081.101562	n/a	276762	responseSmallH	error	n/a	0.67188	no	n/a	n/a
1082.175781	n/a	277037	largeTSmallH	correct	incongruent	0.55078	no	T	H
1082.726562	n/a	277178	responseSmallH	correct	n/a	0.55078	no	n/a	n/a
1083.804688	n/a	277454	largeTSmallH	correct	incongruent	0.46484	no	T	H
1084.269531	n/a	277573	responseSmallH	correct	n/a	0.46484	no	n/a	n/a
1085.335938	n/a	277846	largeHSmallH	correct	congruent	0.52344	no	H	H
1085.859375	n/a	277980	responseSmallH	correct	n/a	0.52344	no	n/a	n/a
1086.9375	n/a	278256	largeTSmallT	correct	congruent	0.48828	no	T	T
1087.425781	n/a	278381	responseSmallT	correct	n/a	0.48828	no	n/a	n/a
1088.496094	n/a	278655	largeTSmallH	correct	incongruent	0.39062	no	T	H
1088.886719	n/a	278755	responseSmallH	correct	n/a	0.39062	no	n/a	n/a
1089.964844	n/a	279031	largeHSmallT	correct	incongruent	0.49219	no	H	T
1090.457031	n/a	279157	responseSmallT	correct	n/a	0.49219	no	n/a	n/a
1091.535156	n/a	279433	largeTSmallH	correct	incongruent	0.39062	no	T	H
1091.925781	n/a	279533	responseSmallH	correct	n/a	0.39062	no	n/a	n/a
1093.003906	n/a	279809	largeHSmallT	correct	incongruent	0.43359	no	H	T
1093.4375	n/a	279920	responseSmallT	correct	n/a	0.43359	no	n/a	n/a
1094.511719	n/a	280195	largeTSmallH	correct	incongruent	0.43359	no	T	H
1094.945312	n/a	280306	responseSmallH	correct	n/a	0.43359	no	n/a	n/a
1096.015625	n/a	280580	largeTSmallT	correct	congruent	0.39062	no	T	T
1096.40625	n/a	280680	responseSmallT	correct	n/a	0.39062	no	n/a	n/a
1097.484375	n/a	280956	largeHSmallT	correct	incongruent	0.51562	no	H	T
1098	n/a	281088	responseSmallT	correct	n/a	0.51562	no	n/a	n/a
1099.070312	n/a	281362	largeTSmallT	correct	congruent	0.47656	no	T	T
1099.546875	n/a	281484	responseSmallT	correct	n/a	0.47656	no	n/a	n/a
1100.617188	n/a	281758	largeHSmallH	correct	congruent	0.38281	no	H	H
1101	n/a	281856	responseSmallH	correct	n/a	0.38281	no	n/a	n/a
1102.070312	n/a	282130	largeTSmallT	correct	congruent	0.49219	no	T	T
1102.5625	n/a	282256	responseSmallT	correct	n/a	0.49219	no	n/a	n/a
1103.644531	n/a	282533	largeTSmallH	correct	incongruent	0.40234	no	T	H
1104.046875	n/a	282636	responseSmallH	correct	n/a	0.40234	no	n/a	n/a
1105.121094	n/a	282911	largeHSmallT	correct	incongruent	0.45312	no	H	T
1105.574219	n/a	283027	responseSmallT	correct	n/a	0.45312	no	n/a	n/a
1106.65625	n/a	283304	largeTSmallT	correct	congruent	0.48828	no	T	T
1107.144531	n/a	283429	responseSmallT	correct	n/a	0.48828	no	n/a	n/a
1108.203125	n/a	283700	largeTSmallH	correct	incongruent	0.54297	no	T	H
1108.746094	n/a	283839	responseSmallH	correct	n/a	0.54297	no	n/a	n/a
1109.816406	n/a	284113	largeHSmallT	correct	incongruent	0.38281	no	H	T
1110.199219	n/a	284211	responseSmallT	correct	n/a	0.38281	no	n/a	n/a
1111.269531	n/a	284485	largeHSmallT	correct	incongruent	0.47656	no	H	T
1111.746094	n/a	284607	responseSmallT	correct	n/a	0.47656	no	n/a	n/a
1112.816406	n/a	284881	largeHSmallT	error	incongruent	0.34766	no	H	T
1113.164062	n/a	284970	responseSmallH	error	n/a	0.34766	no	n/a	n/a
1114.230469	n/a	285243	largeHSmallT	correct	incongruent	0.47656	no	H	T
1114.707031	n/a	285365	responseSmallT	correct	n/a	0.47656	no	n/a	n/a
1115.777344	n/a	285639	largeTSmallT	correct	congruent	0.54297	no	T	T
1116.320312	n/a	285778	responseSmallT	correct	n/a	0.54297	no	n/a	n/a
1117.402344	n/a	286055	largeTSmallT	correct	congruent	0.45312	no	T	T
1117.855469	n/a	286171	responseSmallT	correct	n/a	0.45312	no	n/a	n/a
1118.921875	n/a	286444	largeHSmallT	correct	incongruent	0.44141	no	H	T
1119.363281	n/a	286557	responseSmallT	correct	n/a	0.44141	no	n/a	n/a
1120.429688	n/a	286830	largeTSmallH	correct	incongruent	0.47656	no	T	H
1120.90625	n/a	286952	responseSmallH	correct	n/a	0.47656	no	n/a	n/a
1121.976562	n/a	287226	largeTSmallH	correct	incongruent	0.40625	no	T	H
1122.382812	n/a	287330	responseSmallH	correct	n/a	0.40625	no	n/a	n/a
1123.457031	n/a	287605	largeTSmallT	correct	congruent	0.44531	no	T	T
1123.902344	n/a	287719	responseSmallT	correct	n/a	0.44531	no	n/a	n/a
1124.976562	n/a	287994	largeHSmallH	correct	congruent	0.41797	no	H	H
1125.394531	n/a	288101	responseSmallH	correct	n/a	0.41797	no	n/a	n/a
1126.457031	n/a	288373	largeTSmallT	correct	congruent	0.42969	no	T	T
1126.886719	n/a	288483	responseSmallT	correct	n/a	0.42969	no	n/a	n/a
1127.960938	n/a	288758	largeHSmallH	correct	congruent	0.38281	no	H	H
1128.34375	n/a	288856	responseSmallH	correct	n/a	0.38281	no	n/a	n/a
1129.414062	n/a	289130	largeHSmallH	correct	congruent	0.45312	no	H	H
1129.867188	n/a	289246	responseSmallH	correct	n/a	0.45312	no	n/a	n/a
1130.9375	n/a	289520	largeHSmallT	correct	incongruent	0.41016	no	H	T
1131.347656	n/a	289625	responseSmallT	correct	n/a	0.41016	no	n/a	n/a
1132.429688	n/a	289902	largeTSmallT	correct	congruent	0.54688	no	T	T
1132.976562	n/a	290042	responseSmallT	correct	n/a	0.54688	no	n/a	n/a
1134.042969	n/a	290315	largeTSmallT	correct	congruent	0.47266	no	T	T
1134.515625	n/a	290436	responseSmallT	correct	n/a	0.47266	no	n/a	n/a
1135.589844	n/a	290711	largeTSmallT	correct	congruent	0.43359	no	T	T
1136.023438	n/a	290822	responseSmallT	correct	n/a	0.43359	no	n/a	n/a
1137.109375	n/a	291100	largeHSmallT	correct	incongruent	0.44141	no	H	T
1137.550781	n/a	291213	responseSmallT	correct	n/a	0.44141	no	n/a	n/a
1138.617188	n/a	291486	largeTSmallH	correct	incongruent	0.39844	no	T	H
1139.015625	n/a	291588	responseSmallH	correct	n/a	0.39844	no	n/a	n/a
1140.082031	n/a	291861	largeTSmallT	correct	congruent	0.39062	no	T	T
1140.472656	n/a	291961	responseSmallT	correct	n/a	0.39062	no	n/a	n/a
1141.546875	n/a	292236	largeHSmallT	correct	incongruent	0.46484	no	H	T
1142.011719	n/a	292355	responseSmallT	correct	n/a	0.46484	no	n/a	n/a
1143.082031	n/a	292629	largeTSmallT	correct	congruent	0.42188	no	T	T
1143.503906	n/a	292737	responseSmallT	correct	n/a	0.42188	no	n/a	n/a
1144.574219	n/a	293011	largeHSmallT	error	incongruent	0.39844	no	H	T
1144.972656	n/a	293113	responseSmallH	error	n/a	0.39844	no	n/a	n/a
1146.042969	n/a	293387	largeHSmallT	correct	incongruent	0.44531	no	H	T
1146.488281	n/a	293501	responseSmallT	correct	n/a	0.44531	no	n/a	n/a
1147.546875	n/a	293772	largeTSmallH	correct	incongruent	0.42188	no	T	H
1147.96875	n/a	293880	responseSmallH	correct	n/a	0.42188	no	n/a	n/a
1149.042969	n/a	294155	largeTSmallT	correct	congruent	0.39453	no	T	T
1149.4375	n/a	294256	responseSmallT	correct	n/a	0.39453	no	n/a	n/a
1150.507812	n/a	294530	largeTSmallH	correct	incongruent	0.44531	no	T	H
1150.953125	n/a	294644	responseSmallH	correct	n/a	0.44531	no	n/a	n/a
1152.027344	n/a	294919	largeTSmallT	correct	congruent	0.40234	no	T	T
1152.429688	n/a	295022	responseSmallT	correct	n/a	0.40234	no	n/a	n/a
1153.496094	n/a	295295	largeHSmallH	correct	congruent	0.53125	no	H	H
1154.027344	n/a	295431	responseSmallH	correct	n/a	0.53125	no	n/a	n/a
1155.109375	n/a	295708	largeTSmallH	correct	incongruent	0.51562	no	T	H
1155.625	n/a	295840	responseSmallH	correct	n/a	0.51562	no	n/a	n/a
1156.695312	n/a	296114	largeTSmallT	correct	congruent	0.33594	no	T	T
1157.03125	n/a	296200	responseSmallT	correct	n/a	0.33594	no	n/a	n/a
1158.09375	n/a	296472	largeHSmallH	correct	congruent	0.30469	no	H	H
1158.398438	n/a	296550	responseSmallH	correct	n/a	0.30469	no	n/a	n/a
