onset	duration	sample	value	stimulus	response_type	response_time
22.7109375	n/a	5814	C	nontarget	n/a	n/a
24.38671875	n/a	6243	B	nontarget	n/a	n/a
25.9765625	n/a	6650	C	nontarget	n/a	n/a
27.55859375	n/a	7055	C	target	hit	566.4062
28.125	n/a	7200	rt	n/a	hit	566.4062
29.1328125	n/a	7458	D	nontarget	n/a	n/a
30.703125	n/a	7860	D	target	hit	730.4688
31.43359375	n/a	8047	rt	n/a	hit	730.4688
32.28125	n/a	8264	C	nontarget	n/a	n/a
33.8515625	n/a	8666	C	target	hit	621.0938
34.47265625	n/a	8825	rt	n/a	hit	621.0938
35.4140625	n/a	9066	C	target	hit	703.125
36.1171875	n/a	9246	rt	n/a	hit	703.125
36.99609375	n/a	9471	C	target	hit	542.9688
37.5390625	n/a	9610	rt	n/a	hit	542.9688
38.5703125	n/a	9874	C	target	hit	972.6562
39.54296875	n/a	10123	rt	n/a	hit	972.6562
40.14453125	n/a	10277	B	nontarget	n/a	n/a
41.71484375	n/a	10679	B	target	hit	632.8125
42.34765625	n/a	10841	rt	n/a	hit	632.8125
43.29296875	n/a	11083	C	nontarget	n/a	n/a
44.875	n/a	11488	C	target	hit	601.5625
45.4765625	n/a	11642	rt	n/a	hit	601.5625
46.44921875	n/a	11891	C	target	hit	597.6562
47.046875	n/a	12044	rt	n/a	hit	597.6562
48.0234375	n/a	12294	B	nontarget	n/a	n/a
49.59765625	n/a	12697	D	nontarget	n/a	n/a
51.171875	n/a	13100	A	nontarget	n/a	n/a
52.7421875	n/a	13502	C	nontarget	n/a	n/a
54.3046875	n/a	13902	B	nontarget	n/a	n/a
55.875	n/a	14304	D	nontarget	n/a	n/a
57.44921875	n/a	14707	C	nontarget	n/a	n/a
59.0234375	n/a	15110	C	target	hit	597.6562
59.62109375	n/a	15263	rt	n/a	hit	597.6562
60.59765625	n/a	15513	C	target	hit	664.0625
61.26171875	n/a	15683	rt	n/a	hit	664.0625
62.16796875	n/a	15915	B	nontarget	n/a	n/a
63.74609375	n/a	16319	D	nontarget	n/a	n/a
65.31640625	n/a	16721	A	nontarget	n/a	n/a
66.875	n/a	17120	A	target	hit	644.5312
67.51953125	n/a	17285	rt	n/a	hit	644.5312
68.4609375	n/a	17526	D	nontarget	n/a	n/a
70.0390625	n/a	17930	B	nontarget	n/a	n/a
71.61328125	n/a	18333	C	nontarget	n/a	n/a
73.18359375	n/a	18735	C	target	hit	656.25
73.83984375	n/a	18903	rt	n/a	hit	656.25
74.7578125	n/a	19138	D	nontarget	n/a	n/a
76.33203125	n/a	19541	C	nontarget	n/a	n/a
77.9140625	n/a	19946	B	nontarget	n/a	n/a
79.4921875	n/a	20350	A	nontarget	n/a	n/a
81.0625	n/a	20752	B	nontarget	n/a	n/a
82.63671875	n/a	21155	A	nontarget	n/a	n/a
84.2109375	n/a	21558	D	nontarget	n/a	n/a
85.78125	n/a	21960	A	nontarget	n/a	n/a
87.35546875	n/a	22363	D	nontarget	n/a	n/a
88.9296875	n/a	22766	B	nontarget	n/a	n/a
90.5	n/a	23168	B	target	hit	625
91.125	n/a	23328	rt	n/a	hit	625
92.07421875	n/a	23571	A	nontarget	n/a	n/a
93.6484375	n/a	23974	C	nontarget	n/a	n/a
95.22265625	n/a	24377	A	nontarget	n/a	n/a
96.80859375	n/a	24783	A	target	hit	562.5
97.37109375	n/a	24927	rt	n/a	hit	562.5
98.3828125	n/a	25186	B	nontarget	n/a	n/a
99.953125	n/a	25588	C	nontarget	n/a	n/a
101.53125	n/a	25992	A	nontarget	n/a	n/a
103.1015625	n/a	26394	C	nontarget	n/a	n/a
104.6757812	n/a	26797	C	target	hit	640.625
105.3164062	n/a	26961	rt	n/a	hit	640.625
106.2617188	n/a	27203	B	nontarget	n/a	n/a
107.8359375	n/a	27606	A	nontarget	n/a	n/a
109.4101562	n/a	28009	B	nontarget	n/a	n/a
110.9804688	n/a	28411	A	nontarget	n/a	n/a
112.5546875	n/a	28814	B	nontarget	n/a	n/a
114.1328125	n/a	29218	B	target	hit	542.9688
114.6757812	n/a	29357	rt	n/a	hit	542.9688
115.7148438	n/a	29623	B	target	hit	574.2188
116.2890625	n/a	29770	rt	n/a	hit	574.2188
117.2890625	n/a	30026	C	nontarget	n/a	n/a
118.859375	n/a	30428	D	nontarget	n/a	n/a
120.4375	n/a	30832	C	nontarget	n/a	n/a
122.0117188	n/a	31235	C	target	hit	539.0625
122.5507812	n/a	31373	rt	n/a	hit	539.0625
123.59375	n/a	31640	B	nontarget	n/a	n/a
125.171875	n/a	32044	A	nontarget	n/a	n/a
126.7421875	n/a	32446	A	target	hit	679.6875
127.421875	n/a	32620	rt	n/a	hit	679.6875
128.3164062	n/a	32849	A	target	hit	597.6562
128.9140625	n/a	33002	rt	n/a	hit	597.6562
129.890625	n/a	33252	B	nontarget	n/a	n/a
131.4609375	n/a	33654	A	nontarget	n/a	n/a
133.046875	n/a	34060	D	nontarget	n/a	n/a
134.6210938	n/a	34463	B	nontarget	n/a	n/a
136.1953125	n/a	34866	D	nontarget	n/a	n/a
137.7695312	n/a	35269	D	target	hit	660.1562
138.4296875	n/a	35438	rt	n/a	hit	660.1562
139.3398438	n/a	35671	D	target	hit	617.1875
139.9570312	n/a	35829	rt	n/a	hit	617.1875
140.9140625	n/a	36074	C	nontarget	n/a	n/a
142.5	n/a	36480	D	nontarget	n/a	n/a
144.0742188	n/a	36883	C	nontarget	n/a	n/a
145.6484375	n/a	37286	B	nontarget	n/a	n/a
147.21875	n/a	37688	B	target	hit	632.8125
147.8515625	n/a	37850	rt	n/a	hit	632.8125
148.796875	n/a	38092	A	nontarget	n/a	n/a
150.3710938	n/a	38495	D	nontarget	n/a	n/a
151.953125	n/a	38900	B	nontarget	n/a	n/a
153.53125	n/a	39304	B	target	hit	617.1875
154.1484375	n/a	39462	rt	n/a	hit	617.1875
155.1015625	n/a	39706	B	target	hit	570.3125
155.671875	n/a	39852	rt	n/a	hit	570.3125
156.6757812	n/a	40109	C	nontarget	n/a	n/a
158.25	n/a	40512	B	nontarget	n/a	n/a
159.8203125	n/a	40914	A	nontarget	n/a	n/a
161.3945312	n/a	41317	D	nontarget	n/a	n/a
162.96875	n/a	41720	A	nontarget	n/a	n/a
164.5390625	n/a	42122	B	nontarget	n/a	n/a
166.1132812	n/a	42525	D	nontarget	n/a	n/a
167.6914062	n/a	42929	C	nontarget	n/a	n/a
169.2617188	n/a	43331	D	nontarget	n/a	n/a
170.8476562	n/a	43737	B	nontarget	n/a	n/a
172.4101562	n/a	44137	D	nontarget	n/a	n/a
173.9921875	n/a	44542	B	nontarget	n/a	n/a
175.5703125	n/a	44946	D	nontarget	n/a	n/a
177.140625	n/a	45348	C	nontarget	n/a	n/a
178.7148438	n/a	45751	B	nontarget	n/a	n/a
180.2890625	n/a	46154	D	nontarget	n/a	n/a
181.8710938	n/a	46559	B	nontarget	n/a	n/a
183.4492188	n/a	46963	D	nontarget	n/a	n/a
185.0195312	n/a	47365	B	nontarget	n/a	n/a
186.59375	n/a	47768	D	nontarget	n/a	n/a
188.1679688	n/a	48171	B	nontarget	n/a	n/a
189.7539062	n/a	48577	C	nontarget	n/a	n/a
191.328125	n/a	48980	C	target	hit	675.7812
192.0039062	n/a	49153	rt	n/a	hit	675.7812
192.8984375	n/a	49382	B	nontarget	n/a	n/a
194.4726562	n/a	49785	B	target	hit	554.6875
195.0273438	n/a	49927	rt	n/a	hit	554.6875
196.046875	n/a	50188	C	nontarget	n/a	n/a
197.6210938	n/a	50591	D	nontarget	n/a	n/a
199.1796875	n/a	50990	B	nontarget	n/a	n/a
200.765625	n/a	51396	A	nontarget	n/a	n/a
202.3398438	n/a	51799	C	nontarget	n/a	n/a
203.9140625	n/a	52202	C	target	hit	636.7188
204.5507812	n/a	52365	rt	n/a	hit	636.7188
205.4882812	n/a	52605	C	target	hit	640.625
206.1289062	n/a	52769	rt	n/a	hit	640.625
207.0585938	n/a	53007	C	target	hit	570.3125
207.6289062	n/a	53153	rt	n/a	hit	570.3125
208.6328125	n/a	53410	C	target	hit	511.7188
209.1445312	n/a	53541	rt	n/a	hit	511.7188
210.21875	n/a	53816	A	nontarget	n/a	n/a
211.7929688	n/a	54219	D	nontarget	n/a	n/a
213.3671875	n/a	54622	A	nontarget	n/a	n/a
214.9375	n/a	55024	C	nontarget	n/a	n/a
216.515625	n/a	55428	C	target	hit	660.1562
217.1757812	n/a	55597	rt	n/a	hit	660.1562
218.0898438	n/a	55831	D	nontarget	n/a	n/a
219.671875	n/a	56236	A	nontarget	n/a	n/a
221.2460938	n/a	56639	D	nontarget	n/a	n/a
222.8203125	n/a	57042	C	nontarget	n/a	n/a
224.3945312	n/a	57445	B	nontarget	n/a	n/a
225.96875	n/a	57848	D	nontarget	n/a	n/a
227.5507812	n/a	58253	D	target	hit	570.3125
228.1210938	n/a	58399	rt	n/a	hit	570.3125
229.1289062	n/a	58657	A	nontarget	n/a	n/a
230.6992188	n/a	59059	B	nontarget	n/a	n/a
232.2734375	n/a	59462	A	nontarget	n/a	n/a
233.8476562	n/a	59865	D	nontarget	n/a	n/a
235.421875	n/a	60268	A	nontarget	n/a	n/a
237.0078125	n/a	60674	B	nontarget	n/a	n/a
238.578125	n/a	61076	D	nontarget	n/a	n/a
240.1523438	n/a	61479	C	nontarget	n/a	n/a
241.7265625	n/a	61882	B	nontarget	false_alarm	871.0938
242.5976562	n/a	62105	rt	n/a	false_alarm	871.0938
243.296875	n/a	62284	A	nontarget	n/a	n/a
244.8867188	n/a	62691	A	target	miss	n/a
246.4492188	n/a	63091	A	target	hit	597.6562
247.046875	n/a	63244	rt	n/a	hit	597.6562
248.03125	n/a	63496	B	nontarget	n/a	n/a
249.6054688	n/a	63899	C	nontarget	n/a	n/a
251.1796875	n/a	64302	A	nontarget	n/a	n/a
252.75	n/a	64704	C	nontarget	n/a	n/a
254.328125	n/a	65108	B	nontarget	n/a	n/a
255.9101562	n/a	65513	B	target	hit	539.0625
256.4492188	n/a	65651	rt	n/a	hit	539.0625
257.4882812	n/a	65917	D	nontarget	n/a	n/a
259.0585938	n/a	66319	A	nontarget	n/a	n/a
260.6328125	n/a	66722	D	nontarget	n/a	n/a
262.2070312	n/a	67125	C	nontarget	n/a	n/a
263.7773438	n/a	67527	C	target	hit	605.4688
264.3828125	n/a	67682	rt	n/a	hit	605.4688
265.3398438	n/a	67927	B	nontarget	n/a	n/a
266.8984375	n/a	68326	A	nontarget	n/a	n/a
268.4609375	n/a	68726	C	nontarget	n/a	n/a
270.03125	n/a	69128	C	target	hit	523.4375
270.5546875	n/a	69262	rt	n/a	hit	523.4375
271.609375	n/a	69532	B	nontarget	n/a	n/a
273.1757812	n/a	69933	C	nontarget	n/a	n/a
274.7539062	n/a	70337	A	nontarget	n/a	n/a
276.328125	n/a	70740	A	target	hit	597.6562
276.9257812	n/a	70893	rt	n/a	hit	597.6562
277.8984375	n/a	71142	C	nontarget	n/a	n/a
279.4609375	n/a	71542	B	nontarget	n/a	n/a
281.0429688	n/a	71947	B	target	hit	617.1875
281.6601562	n/a	72105	rt	n/a	hit	617.1875
282.6171875	n/a	72350	D	nontarget	n/a	n/a
284.1914062	n/a	72753	A	nontarget	n/a	n/a
285.765625	n/a	73156	C	nontarget	n/a	n/a
287.3359375	n/a	73558	D	nontarget	n/a	n/a
288.9101562	n/a	73961	B	nontarget	n/a	n/a
290.484375	n/a	74364	A	nontarget	n/a	n/a
292.0585938	n/a	74767	B	nontarget	n/a	n/a
293.6328125	n/a	75170	C	nontarget	n/a	n/a
295.2070312	n/a	75573	D	nontarget	n/a	n/a
296.7773438	n/a	75975	B	nontarget	n/a	n/a
298.3515625	n/a	76378	A	nontarget	n/a	n/a
299.9257812	n/a	76781	B	nontarget	n/a	n/a
301.5117188	n/a	77187	C	nontarget	n/a	n/a
303.0859375	n/a	77590	C	target	hit	625
303.7109375	n/a	77750	rt	n/a	hit	625
304.65625	n/a	77992	A	nontarget	n/a	n/a
306.2304688	n/a	78395	A	target	hit	539.0625
306.7695312	n/a	78533	rt	n/a	hit	539.0625
307.8046875	n/a	78798	C	nontarget	n/a	n/a
309.390625	n/a	79204	C	target	hit	562.5
309.953125	n/a	79348	rt	n/a	hit	562.5
310.9648438	n/a	79607	D	nontarget	n/a	n/a
312.5351562	n/a	80009	B	nontarget	n/a	n/a
314.1132812	n/a	80413	A	nontarget	n/a	n/a
315.6875	n/a	80816	D	nontarget	n/a	n/a
317.2695312	n/a	81221	D	target	hit	535.1562
317.8046875	n/a	81358	rt	n/a	hit	535.1562
318.84375	n/a	81624	A	nontarget	n/a	n/a
320.4179688	n/a	82027	D	nontarget	n/a	n/a
321.9921875	n/a	82430	B	nontarget	n/a	n/a
323.5625	n/a	82832	C	nontarget	n/a	n/a
325.1367188	n/a	83235	A	nontarget	n/a	n/a
326.7226562	n/a	83641	C	nontarget	n/a	n/a
328.296875	n/a	84044	C	target	hit	511.7188
328.8085938	n/a	84175	rt	n/a	hit	511.7188
329.8710938	n/a	84447	A	nontarget	n/a	n/a
331.4453125	n/a	84850	A	target	hit	546.875
331.9921875	n/a	84990	rt	n/a	hit	546.875
333.015625	n/a	85252	A	target	hit	539.0625
333.5546875	n/a	85390	rt	n/a	hit	539.0625
334.5898438	n/a	85655	B	nontarget	n/a	n/a
336.1640625	n/a	86058	C	nontarget	n/a	n/a
337.75	n/a	86464	C	target	hit	574.2188
338.3242188	n/a	86611	rt	n/a	hit	574.2188
339.3242188	n/a	86867	C	target	hit	792.9688
340.1171875	n/a	87070	rt	n/a	hit	792.9688
340.8945312	n/a	87269	A	nontarget	n/a	n/a
342.46875	n/a	87672	B	nontarget	n/a	n/a
344.046875	n/a	88076	B	target	hit	558.5938
344.6054688	n/a	88219	rt	n/a	hit	558.5938
345.6289062	n/a	88481	A	nontarget	n/a	n/a
347.203125	n/a	88884	C	nontarget	n/a	n/a
348.7773438	n/a	89287	C	target	hit	675.7812
349.453125	n/a	89460	rt	n/a	hit	675.7812
350.3515625	n/a	89690	A	nontarget	n/a	n/a
351.9257812	n/a	90093	A	target	hit	496.0938
352.421875	n/a	90220	rt	n/a	hit	496.0938
353.4960938	n/a	90495	D	nontarget	n/a	n/a
355.0820312	n/a	90901	B	nontarget	n/a	n/a
356.65625	n/a	91304	B	target	hit	542.9688
357.1992188	n/a	91443	rt	n/a	hit	542.9688
358.2304688	n/a	91707	C	nontarget	n/a	n/a
359.8046875	n/a	92110	B	nontarget	n/a	n/a
361.375	n/a	92512	A	nontarget	n/a	n/a
362.9492188	n/a	92915	B	nontarget	n/a	n/a
364.5351562	n/a	93321	C	nontarget	n/a	n/a
366.109375	n/a	93724	A	nontarget	n/a	n/a
367.6835938	n/a	94127	D	nontarget	n/a	n/a
369.2539062	n/a	94529	D	target	hit	550.7812
369.8046875	n/a	94670	rt	n/a	hit	550.7812
370.828125	n/a	94932	B	nontarget	n/a	n/a
372.4023438	n/a	95335	C	nontarget	n/a	n/a
373.9648438	n/a	95735	B	nontarget	n/a	n/a
375.546875	n/a	96140	B	target	hit	707.0312
376.2539062	n/a	96321	rt	n/a	hit	707.0312
377.125	n/a	96544	C	nontarget	n/a	n/a
378.6953125	n/a	96946	B	nontarget	n/a	n/a
380.2695312	n/a	97349	C	nontarget	n/a	n/a
381.84375	n/a	97752	C	target	hit	722.6562
382.5664062	n/a	97937	rt	n/a	hit	722.6562
383.4296875	n/a	98158	C	target	hit	941.4062
384.3710938	n/a	98399	rt	n/a	hit	941.4062
385.0039062	n/a	98561	C	target	hit	972.6562
385.9765625	n/a	98810	rt	n/a	hit	972.6562
386.5742188	n/a	98963	B	nontarget	n/a	n/a
388.1523438	n/a	99367	B	target	hit	941.4062
389.09375	n/a	99608	rt	n/a	hit	941.4062
389.7226562	n/a	99769	B	target	hit	1054.6875
390.7773438	n/a	100039	rt	n/a	hit	1054.6875
391.2929688	n/a	100171	C	nontarget	n/a	n/a
392.8554688	n/a	100571	A	nontarget	n/a	n/a
394.4414062	n/a	100977	A	target	hit	562.5
395.0039062	n/a	101121	rt	n/a	hit	562.5
396.015625	n/a	101380	A	target	hit	460.9375
396.4765625	n/a	101498	rt	n/a	hit	460.9375
397.5898438	n/a	101783	D	nontarget	n/a	n/a
399.1640625	n/a	102186	B	nontarget	n/a	n/a
400.734375	n/a	102588	D	nontarget	n/a	n/a
402.3085938	n/a	102991	B	nontarget	n/a	n/a
403.8945312	n/a	103397	D	nontarget	n/a	n/a
405.46875	n/a	103800	C	nontarget	n/a	n/a
407.0429688	n/a	104203	D	nontarget	n/a	n/a
408.6132812	n/a	104605	B	nontarget	n/a	n/a
410.1875	n/a	105008	C	nontarget	n/a	n/a
411.7617188	n/a	105411	C	target	hit	644.5312
412.40625	n/a	105576	rt	n/a	hit	644.5312
413.3476562	n/a	105817	C	target	hit	554.6875
413.9023438	n/a	105959	rt	n/a	hit	554.6875
414.921875	n/a	106220	B	nontarget	n/a	n/a
416.4921875	n/a	106622	D	nontarget	n/a	n/a
418.0664062	n/a	107025	A	nontarget	n/a	n/a
419.6445312	n/a	107429	A	target	hit	617.1875
420.2617188	n/a	107587	rt	n/a	hit	617.1875
421.2265625	n/a	107834	D	nontarget	n/a	n/a
422.8007812	n/a	108237	D	target	hit	742.1875
423.5429688	n/a	108427	rt	n/a	hit	742.1875
424.375	n/a	108640	D	target	hit	562.5
424.9375	n/a	108784	rt	n/a	hit	562.5
425.9492188	n/a	109043	C	nontarget	n/a	n/a
427.5234375	n/a	109446	B	nontarget	n/a	n/a
429.09375	n/a	109848	C	nontarget	n/a	n/a
430.6796875	n/a	110254	A	nontarget	n/a	n/a
432.2539062	n/a	110657	B	nontarget	n/a	n/a
433.828125	n/a	111060	D	nontarget	n/a	n/a
435.4023438	n/a	111463	D	target	hit	519.5312
435.921875	n/a	111596	rt	n/a	hit	519.5312
436.9726562	n/a	111865	C	nontarget	n/a	n/a
438.546875	n/a	112268	A	nontarget	n/a	n/a
440.109375	n/a	112668	D	nontarget	n/a	n/a
441.6953125	n/a	113074	C	nontarget	n/a	n/a
443.265625	n/a	113476	A	nontarget	n/a	n/a
444.84375	n/a	113880	C	nontarget	n/a	n/a
446.4140625	n/a	114282	C	target	hit	476.5625
446.890625	n/a	114404	rt	n/a	hit	476.5625
447.9882812	n/a	114685	C	target	hit	492.1875
448.4804688	n/a	114811	rt	n/a	hit	492.1875
449.5742188	n/a	115091	C	target	hit	441.4062
450.015625	n/a	115204	rt	n/a	hit	441.4062
451.1484375	n/a	115494	C	target	hit	546.875
451.6953125	n/a	115634	rt	n/a	hit	546.875
452.7226562	n/a	115897	D	nontarget	n/a	n/a
454.2929688	n/a	116299	C	nontarget	n/a	n/a
455.8671875	n/a	116702	B	nontarget	n/a	n/a
457.4414062	n/a	117105	D	nontarget	n/a	n/a
459.0273438	n/a	117511	B	nontarget	n/a	n/a
460.6015625	n/a	117914	D	nontarget	n/a	n/a
462.171875	n/a	118316	C	nontarget	n/a	n/a
