onset	duration	sample	value	response_type	congruence	response_time	response_out_of_range	largeletter	smallletter
23.40625	n/a	5992	largeTSmallT	correct	congruent	0.52734	no	T	T
23.93359375	n/a	6127	responseLargeT	correct	n/a	0.52734	no	n/a	n/a
25.0078125	n/a	6402	largeHSmallH	correct	congruent	0.35156	no	H	H
25.359375	n/a	6492	responseLargeH	correct	n/a	0.35156	no	n/a	n/a
26.4375	n/a	6768	largeTSmallT	correct	congruent	0.30859	no	T	T
26.74609375	n/a	6847	responseLargeT	correct	n/a	0.30859	no	n/a	n/a
27.80859375	n/a	7119	largeHSmallT	correct	incongruent	0.33203	no	H	T
28.140625	n/a	7204	responseLargeH	correct	n/a	0.33203	no	n/a	n/a
29.2109375	n/a	7478	largeTSmallH	correct	incongruent	0.38672	no	T	H
29.59765625	n/a	7577	responseLargeT	correct	n/a	0.38672	no	n/a	n/a
30.6640625	n/a	7850	largeHSmallT	correct	incongruent	0.37891	no	H	T
31.04296875	n/a	7947	responseLargeH	correct	n/a	0.37891	no	n/a	n/a
32.1171875	n/a	8222	largeTSmallH	correct	incongruent	0.32031	no	T	H
32.4375	n/a	8304	responseLargeT	correct	n/a	0.32031	no	n/a	n/a
33.50390625	n/a	8577	largeHSmallH	correct	congruent	0.38672	no	H	H
33.890625	n/a	8676	responseLargeH	correct	n/a	0.38672	no	n/a	n/a
34.95703125	n/a	8949	largeTSmallH	correct	incongruent	0.32422	no	T	H
35.28125	n/a	9032	responseLargeT	correct	n/a	0.32422	no	n/a	n/a
36.35546875	n/a	9307	largeTSmallH	correct	incongruent	0.45703	no	T	H
36.8125	n/a	9424	responseLargeT	correct	n/a	0.45703	no	n/a	n/a
37.890625	n/a	9700	largeTSmallT	error	congruent	0.28125	no	T	T
38.171875	n/a	9772	responseLargeH	error	n/a	0.28125	no	n/a	n/a
39.25	n/a	10048	largeTSmallH	correct	incongruent	0.42578	no	T	H
39.67578125	n/a	10157	responseLargeT	correct	n/a	0.42578	no	n/a	n/a
40.7421875	n/a	10430	largeTSmallT	correct	congruent	0.40625	no	T	T
41.1484375	n/a	10534	responseLargeT	correct	n/a	0.40625	no	n/a	n/a
42.22265625	n/a	10809	largeHSmallH	correct	congruent	0.44141	no	H	H
42.6640625	n/a	10922	responseLargeH	correct	n/a	0.44141	no	n/a	n/a
43.7421875	n/a	11198	largeHSmallT	error	incongruent	0.48828	no	H	T
44.23046875	n/a	11323	responseLargeT	error	n/a	0.48828	no	n/a	n/a
45.3046875	n/a	11598	largeHSmallT	correct	incongruent	0.58984	no	H	T
45.89453125	n/a	11749	responseLargeH	correct	n/a	0.58984	no	n/a	n/a
46.96875	n/a	12024	largeTSmallH	correct	incongruent	0.46094	no	T	H
47.4296875	n/a	12142	responseLargeT	correct	n/a	0.46094	no	n/a	n/a
48.50390625	n/a	12417	largeHSmallT	error	incongruent	0.39453	no	H	T
48.8984375	n/a	12518	responseLargeT	error	n/a	0.39453	no	n/a	n/a
49.984375	n/a	12796	largeTSmallH	correct	incongruent	0.39844	no	T	H
50.3828125	n/a	12898	responseLargeT	correct	n/a	0.39844	no	n/a	n/a
51.46484375	n/a	13175	largeTSmallT	correct	congruent	0.42188	no	T	T
51.88671875	n/a	13283	responseLargeT	correct	n/a	0.42188	no	n/a	n/a
52.95703125	n/a	13557	largeHSmallH	correct	congruent	0.39844	no	H	H
53.35546875	n/a	13659	responseLargeH	correct	n/a	0.39844	no	n/a	n/a
54.421875	n/a	13932	largeHSmallT	error	incongruent	0.38672	no	H	T
54.80859375	n/a	14031	responseLargeT	error	n/a	0.38672	no	n/a	n/a
55.875	n/a	14304	largeHSmallT	correct	incongruent	0.46094	no	H	T
56.3359375	n/a	14422	responseLargeH	correct	n/a	0.46094	no	n/a	n/a
57.3984375	n/a	14694	largeHSmallT	error	incongruent	0.44531	no	H	T
57.84375	n/a	14808	responseLargeT	error	n/a	0.44531	no	n/a	n/a
58.91796875	n/a	15083	largeTSmallH	correct	incongruent	0.45703	no	T	H
59.375	n/a	15200	responseLargeT	correct	n/a	0.45703	no	n/a	n/a
60.44921875	n/a	15475	largeTSmallT	correct	congruent	0.41797	no	T	T
60.8671875	n/a	15582	responseLargeT	correct	n/a	0.41797	no	n/a	n/a
61.94140625	n/a	15857	largeHSmallT	correct	incongruent	0.46094	no	H	T
62.40234375	n/a	15975	responseLargeH	correct	n/a	0.46094	no	n/a	n/a
63.4765625	n/a	16250	largeHSmallT	correct	incongruent	0.48438	no	H	T
63.9609375	n/a	16374	responseLargeH	correct	n/a	0.48438	no	n/a	n/a
65.03515625	n/a	16649	largeHSmallH	correct	congruent	0.47656	no	H	H
65.51171875	n/a	16771	responseLargeH	correct	n/a	0.47656	no	n/a	n/a
66.58203125	n/a	17045	largeHSmallH	error	congruent	0.42578	no	H	H
67.0078125	n/a	17154	responseLargeT	error	n/a	0.42578	no	n/a	n/a
68.07421875	n/a	17427	largeTSmallT	correct	congruent	0.44531	no	T	T
68.51953125	n/a	17541	responseLargeT	correct	n/a	0.44531	no	n/a	n/a
69.58203125	n/a	17813	largeTSmallH	correct	incongruent	0.54297	no	T	H
70.125	n/a	17952	responseLargeT	correct	n/a	0.54297	no	n/a	n/a
71.1953125	n/a	18226	largeTSmallT	correct	congruent	0.43359	no	T	T
71.62890625	n/a	18337	responseLargeT	correct	n/a	0.43359	no	n/a	n/a
72.703125	n/a	18612	largeTSmallH	correct	incongruent	0.36328	no	T	H
73.06640625	n/a	18705	responseLargeT	correct	n/a	0.36328	no	n/a	n/a
74.14453125	n/a	18981	largeTSmallT	correct	congruent	0.48438	no	T	T
74.62890625	n/a	19105	responseLargeT	correct	n/a	0.48438	no	n/a	n/a
75.703125	n/a	19380	largeTSmallT	correct	congruent	0.42188	no	T	T
76.125	n/a	19488	responseLargeT	correct	n/a	0.42188	no	n/a	n/a
77.1953125	n/a	19762	largeHSmallT	correct	incongruent	0.38281	no	H	T
77.578125	n/a	19860	responseLargeH	correct	n/a	0.38281	no	n/a	n/a
78.6484375	n/a	20134	largeHSmallH	correct	congruent	0.37109	no	H	H
79.01953125	n/a	20229	responseLargeH	correct	n/a	0.37109	no	n/a	n/a
80.08984375	n/a	20503	largeHSmallH	correct	congruent	0.36328	no	H	H
80.453125	n/a	20596	responseLargeH	correct	n/a	0.36328	no	n/a	n/a
81.515625	n/a	20868	largeTSmallT	correct	congruent	0.54688	no	T	T
82.0625	n/a	21008	responseLargeT	correct	n/a	0.54688	no	n/a	n/a
83.12890625	n/a	21281	largeTSmallH	error	incongruent	0.32812	no	T	H
83.45703125	n/a	21365	responseLargeH	error	n/a	0.32812	no	n/a	n/a
84.52734375	n/a	21639	largeTSmallH	correct	incongruent	0.4375	no	T	H
84.96484375	n/a	21751	responseLargeT	correct	n/a	0.4375	no	n/a	n/a
86.03515625	n/a	22025	largeTSmallT	correct	congruent	0.36719	no	T	T
86.40234375	n/a	22119	responseLargeT	correct	n/a	0.36719	no	n/a	n/a
87.4609375	n/a	22390	largeHSmallH	correct	congruent	0.41797	no	H	H
87.87890625	n/a	22497	responseLargeH	correct	n/a	0.41797	no	n/a	n/a
88.94140625	n/a	22769	largeHSmallH	correct	congruent	0.38672	no	H	H
89.328125	n/a	22868	responseLargeH	correct	n/a	0.38672	no	n/a	n/a
90.39453125	n/a	23141	largeHSmallH	correct	congruent	0.42969	no	H	H
90.82421875	n/a	23251	responseLargeH	correct	n/a	0.42969	no	n/a	n/a
91.890625	n/a	23524	largeTSmallH	correct	incongruent	0.42188	no	T	H
92.3125	n/a	23632	responseLargeT	correct	n/a	0.42188	no	n/a	n/a
93.3828125	n/a	23906	largeTSmallT	correct	congruent	0.44922	no	T	T
93.83203125	n/a	24021	responseLargeT	correct	n/a	0.44922	no	n/a	n/a
94.90234375	n/a	24295	largeHSmallH	correct	congruent	0.41406	no	H	H
95.31640625	n/a	24401	responseLargeH	correct	n/a	0.41406	no	n/a	n/a
96.3828125	n/a	24674	largeHSmallT	correct	incongruent	0.50781	no	H	T
96.890625	n/a	24804	responseLargeH	correct	n/a	0.50781	no	n/a	n/a
97.96875	n/a	25080	largeHSmallT	correct	incongruent	0.41406	no	H	T
98.3828125	n/a	25186	responseLargeH	correct	n/a	0.41406	no	n/a	n/a
99.44921875	n/a	25459	largeTSmallH	correct	incongruent	0.40625	no	T	H
99.85546875	n/a	25563	responseLargeT	correct	n/a	0.40625	no	n/a	n/a
100.9296875	n/a	25838	largeHSmallH	correct	congruent	0.33203	no	H	H
101.2617188	n/a	25923	responseLargeH	correct	n/a	0.33203	no	n/a	n/a
102.328125	n/a	26196	largeHSmallT	correct	incongruent	0.55859	no	H	T
102.8867188	n/a	26339	responseLargeH	correct	n/a	0.55859	no	n/a	n/a
103.9570312	n/a	26613	largeTSmallH	correct	incongruent	0.45312	no	T	H
104.4101562	n/a	26729	responseLargeT	correct	n/a	0.45312	no	n/a	n/a
105.4882812	n/a	27005	largeTSmallH	correct	incongruent	0.51172	no	T	H
106	n/a	27136	responseLargeT	correct	n/a	0.51172	no	n/a	n/a
107.0742188	n/a	27411	largeTSmallT	correct	congruent	0.4375	no	T	T
107.5117188	n/a	27523	responseLargeT	correct	n/a	0.4375	no	n/a	n/a
108.5820312	n/a	27797	largeTSmallH	correct	incongruent	0.29297	no	T	H
108.875	n/a	27872	responseLargeT	correct	n/a	0.29297	no	n/a	n/a
109.9414062	n/a	28145	largeHSmallT	correct	incongruent	0.375	no	H	T
110.3164062	n/a	28241	responseLargeH	correct	n/a	0.375	no	n/a	n/a
111.3945312	n/a	28517	largeTSmallT	correct	congruent	0.65234	no	T	T
112.046875	n/a	28684	responseLargeT	correct	n/a	0.65234	no	n/a	n/a
113.1132812	n/a	28957	largeTSmallH	correct	incongruent	0.41016	no	T	H
113.5234375	n/a	29062	responseLargeT	correct	n/a	0.41016	no	n/a	n/a
114.59375	n/a	29336	largeHSmallH	correct	congruent	0.40625	no	H	H
115	n/a	29440	responseLargeH	correct	n/a	0.40625	no	n/a	n/a
116.0742188	n/a	29715	largeHSmallT	error	incongruent	0.30469	no	H	T
116.3789062	n/a	29793	responseLargeT	error	n/a	0.30469	no	n/a	n/a
117.4492188	n/a	30067	largeHSmallH	correct	congruent	0.40625	no	H	H
117.8554688	n/a	30171	responseLargeH	correct	n/a	0.40625	no	n/a	n/a
118.9296875	n/a	30446	largeHSmallT	correct	incongruent	0.49609	no	H	T
119.4257812	n/a	30573	responseLargeH	correct	n/a	0.49609	no	n/a	n/a
120.5	n/a	30848	largeHSmallT	correct	incongruent	0.38281	no	H	T
120.8828125	n/a	30946	responseLargeH	correct	n/a	0.38281	no	n/a	n/a
121.953125	n/a	31220	largeTSmallT	correct	congruent	0.46484	no	T	T
122.4179688	n/a	31339	responseLargeT	correct	n/a	0.46484	no	n/a	n/a
123.4882812	n/a	31613	largeHSmallT	correct	incongruent	0.60547	no	H	T
124.09375	n/a	31768	responseLargeH	correct	n/a	0.60547	no	n/a	n/a
125.1679688	n/a	32043	largeTSmallH	correct	incongruent	0.48047	no	T	H
125.6484375	n/a	32166	responseLargeT	correct	n/a	0.48047	no	n/a	n/a
126.7148438	n/a	32439	largeTSmallH	error	incongruent	0.37109	no	T	H
127.0859375	n/a	32534	responseLargeH	error	n/a	0.37109	no	n/a	n/a
128.15625	n/a	32808	largeTSmallT	correct	congruent	0.41406	no	T	T
128.5703125	n/a	32914	responseLargeT	correct	n/a	0.41406	no	n/a	n/a
129.6484375	n/a	33190	largeTSmallH	correct	incongruent	0.58594	no	T	H
130.234375	n/a	33340	responseLargeT	correct	n/a	0.58594	no	n/a	n/a
131.3007812	n/a	33613	largeTSmallT	correct	congruent	0.63672	no	T	T
131.9375	n/a	33776	responseLargeT	correct	n/a	0.63672	no	n/a	n/a
133.0195312	n/a	34053	largeHSmallH	correct	congruent	0.4375	no	H	H
133.4570312	n/a	34165	responseLargeH	correct	n/a	0.4375	no	n/a	n/a
134.5273438	n/a	34439	largeTSmallT	correct	congruent	0.58203	no	T	T
135.109375	n/a	34588	responseLargeT	correct	n/a	0.58203	no	n/a	n/a
136.1796875	n/a	34862	largeHSmallH	correct	congruent	0.49609	no	H	H
136.6757812	n/a	34989	responseLargeH	correct	n/a	0.49609	no	n/a	n/a
137.7539062	n/a	35265	largeHSmallT	correct	incongruent	0.66406	no	H	T
138.4179688	n/a	35435	responseLargeH	correct	n/a	0.66406	no	n/a	n/a
139.4882812	n/a	35709	largeHSmallT	correct	incongruent	0.58594	no	H	T
140.0742188	n/a	35859	responseLargeH	correct	n/a	0.58594	no	n/a	n/a
141.140625	n/a	36132	largeTSmallT	correct	congruent	0.42969	no	T	T
141.5703125	n/a	36242	responseLargeT	correct	n/a	0.42969	no	n/a	n/a
142.6484375	n/a	36518	largeHSmallT	correct	incongruent	0.45703	no	H	T
143.1054688	n/a	36635	responseLargeH	correct	n/a	0.45703	no	n/a	n/a
144.1679688	n/a	36907	largeHSmallH	correct	congruent	0.41016	no	H	H
144.578125	n/a	37012	responseLargeH	correct	n/a	0.41016	no	n/a	n/a
145.6601562	n/a	37289	largeHSmallH	correct	congruent	0.39062	no	H	H
146.0507812	n/a	37389	responseLargeH	correct	n/a	0.39062	no	n/a	n/a
147.1132812	n/a	37661	largeHSmallH	correct	congruent	0.39844	no	H	H
147.5117188	n/a	37763	responseLargeH	correct	n/a	0.39844	no	n/a	n/a
148.5820312	n/a	38037	largeHSmallH	correct	congruent	0.3125	no	H	H
148.8945312	n/a	38117	responseLargeH	correct	n/a	0.3125	no	n/a	n/a
149.953125	n/a	38388	largeHSmallT	correct	incongruent	0.42188	no	H	T
150.375	n/a	38496	responseLargeH	correct	n/a	0.42188	no	n/a	n/a
151.4492188	n/a	38771	largeTSmallT	correct	congruent	0.46875	no	T	T
151.9179688	n/a	38891	responseLargeT	correct	n/a	0.46875	no	n/a	n/a
152.9804688	n/a	39163	largeTSmallH	error	incongruent	0.32422	no	T	H
153.3046875	n/a	39246	responseLargeH	error	n/a	0.32422	no	n/a	n/a
154.3789062	n/a	39521	largeTSmallT	correct	congruent	0.45703	no	T	T
154.8359375	n/a	39638	responseLargeT	correct	n/a	0.45703	no	n/a	n/a
155.9023438	n/a	39911	largeTSmallT	correct	congruent	0.42969	no	T	T
156.3320312	n/a	40021	responseLargeT	correct	n/a	0.42969	no	n/a	n/a
157.3945312	n/a	40293	largeHSmallH	correct	congruent	0.41406	no	H	H
157.8085938	n/a	40399	responseLargeH	correct	n/a	0.41406	no	n/a	n/a
158.8867188	n/a	40675	largeHSmallH	correct	congruent	0.41406	no	H	H
159.3007812	n/a	40781	responseLargeH	correct	n/a	0.41406	no	n/a	n/a
160.3671875	n/a	41054	largeHSmallH	correct	congruent	0.40625	no	H	H
160.7734375	n/a	41158	responseLargeH	correct	n/a	0.40625	no	n/a	n/a
161.8476562	n/a	41433	largeTSmallT	correct	congruent	0.47656	no	T	T
162.3242188	n/a	41555	responseLargeT	correct	n/a	0.47656	no	n/a	n/a
163.3945312	n/a	41829	largeTSmallT	correct	congruent	0.39062	no	T	T
163.7851562	n/a	41929	responseLargeT	correct	n/a	0.39062	no	n/a	n/a
164.859375	n/a	42204	largeHSmallH	correct	congruent	0.37109	no	H	H
165.2304688	n/a	42299	responseLargeH	correct	n/a	0.37109	no	n/a	n/a
166.2890625	n/a	42570	largeHSmallT	correct	incongruent	0.41016	no	H	T
166.6992188	n/a	42675	responseLargeH	correct	n/a	0.41016	no	n/a	n/a
167.78125	n/a	42952	largeTSmallH	correct	incongruent	0.41797	no	T	H
168.1992188	n/a	43059	responseLargeT	correct	n/a	0.41797	no	n/a	n/a
169.2734375	n/a	43334	largeTSmallT	correct	congruent	0.37891	no	T	T
169.6523438	n/a	43431	responseLargeT	correct	n/a	0.37891	no	n/a	n/a
170.7265625	n/a	43706	largeTSmallH	correct	incongruent	0.39062	no	T	H
171.1171875	n/a	43806	responseLargeT	correct	n/a	0.39062	no	n/a	n/a
172.1953125	n/a	44082	largeHSmallH	correct	congruent	0.39844	no	H	H
172.59375	n/a	44184	responseLargeH	correct	n/a	0.39844	no	n/a	n/a
173.671875	n/a	44460	largeTSmallH	correct	incongruent	0.48828	no	T	H
174.1601562	n/a	44585	responseLargeT	correct	n/a	0.48828	no	n/a	n/a
175.234375	n/a	44860	largeHSmallH	correct	congruent	0.33984	no	H	H
175.5742188	n/a	44947	responseLargeH	correct	n/a	0.33984	no	n/a	n/a
176.6484375	n/a	45222	largeTSmallH	correct	incongruent	0.29688	no	T	H
176.9453125	n/a	45298	responseLargeT	correct	n/a	0.29688	no	n/a	n/a
178.0195312	n/a	45573	largeHSmallT	correct	incongruent	0.82031	no	H	T
178.8398438	n/a	45783	responseLargeH	correct	n/a	0.82031	no	n/a	n/a
179.9140625	n/a	46058	largeHSmallH	correct	congruent	0.50781	no	H	H
180.421875	n/a	46188	responseLargeH	correct	n/a	0.50781	no	n/a	n/a
181.4882812	n/a	46461	largeTSmallT	correct	congruent	0.39453	no	T	T
181.8828125	n/a	46562	responseLargeT	correct	n/a	0.39453	no	n/a	n/a
182.953125	n/a	46836	largeHSmallH	correct	congruent	0.57812	no	H	H
183.53125	n/a	46984	responseLargeH	correct	n/a	0.57812	no	n/a	n/a
184.6054688	n/a	47259	largeTSmallH	correct	incongruent	0.38281	no	T	H
184.9882812	n/a	47357	responseLargeT	correct	n/a	0.38281	no	n/a	n/a
186.0585938	n/a	47631	largeTSmallT	correct	congruent	0.39453	no	T	T
186.453125	n/a	47732	responseLargeT	correct	n/a	0.39453	no	n/a	n/a
187.5273438	n/a	48007	largeTSmallH	correct	incongruent	0.38672	no	T	H
187.9140625	n/a	48106	responseLargeT	correct	n/a	0.38672	no	n/a	n/a
188.9921875	n/a	48382	largeTSmallH	correct	incongruent	0.39844	no	T	H
189.390625	n/a	48484	responseLargeT	correct	n/a	0.39844	no	n/a	n/a
190.4609375	n/a	48758	largeTSmallT	correct	congruent	0.75391	no	T	T
191.2148438	n/a	48951	responseLargeT	correct	n/a	0.75391	no	n/a	n/a
192.2851562	n/a	49225	largeTSmallH	correct	incongruent	0.45703	no	T	H
192.7421875	n/a	49342	responseLargeT	correct	n/a	0.45703	no	n/a	n/a
193.8046875	n/a	49614	largeTSmallT	correct	congruent	0.36719	no	T	T
194.171875	n/a	49708	responseLargeT	correct	n/a	0.36719	no	n/a	n/a
195.2460938	n/a	49983	largeHSmallH	correct	congruent	0.42578	no	H	H
195.671875	n/a	50092	responseLargeH	correct	n/a	0.42578	no	n/a	n/a
196.7382812	n/a	50365	largeTSmallT	correct	congruent	0.34375	no	T	T
197.0820312	n/a	50453	responseLargeT	correct	n/a	0.34375	no	n/a	n/a
198.1523438	n/a	50727	largeTSmallT	correct	congruent	0.39062	no	T	T
198.5429688	n/a	50827	responseLargeT	correct	n/a	0.39062	no	n/a	n/a
199.6054688	n/a	51099	largeTSmallH	correct	incongruent	0.46094	no	T	H
200.0664062	n/a	51217	responseLargeT	correct	n/a	0.46094	no	n/a	n/a
201.140625	n/a	51492	largeTSmallT	correct	congruent	0.33203	no	T	T
201.4726562	n/a	51577	responseLargeT	correct	n/a	0.33203	no	n/a	n/a
202.5546875	n/a	51854	largeTSmallH	correct	incongruent	0.30078	no	T	H
202.8554688	n/a	51931	responseLargeT	correct	n/a	0.30078	no	n/a	n/a
203.9414062	n/a	52209	largeHSmallH	correct	congruent	0.50781	no	H	H
204.4492188	n/a	52339	responseLargeH	correct	n/a	0.50781	no	n/a	n/a
205.5390625	n/a	52618	largeTSmallT	correct	congruent	0.44531	no	T	T
205.984375	n/a	52732	responseLargeT	correct	n/a	0.44531	no	n/a	n/a
207.0585938	n/a	53007	largeTSmallT	correct	congruent	0.39062	no	T	T
207.4492188	n/a	53107	responseLargeT	correct	n/a	0.39062	no	n/a	n/a
208.5273438	n/a	53383	largeTSmallH	correct	incongruent	0.51172	no	T	H
209.0390625	n/a	53514	responseLargeT	correct	n/a	0.51172	no	n/a	n/a
210.1132812	n/a	53789	largeHSmallH	correct	congruent	0.48438	no	H	H
210.5976562	n/a	53913	responseLargeH	correct	n/a	0.48438	no	n/a	n/a
211.671875	n/a	54188	largeTSmallH	correct	incongruent	0.33203	no	T	H
212.0039062	n/a	54273	responseLargeT	correct	n/a	0.33203	no	n/a	n/a
213.0742188	n/a	54547	largeHSmallH	correct	congruent	0.31641	no	H	H
213.390625	n/a	54628	responseLargeH	correct	n/a	0.31641	no	n/a	n/a
214.4609375	n/a	54902	largeHSmallT	error	incongruent	0.30469	no	H	T
214.765625	n/a	54980	responseLargeT	error	n/a	0.30469	no	n/a	n/a
215.8476562	n/a	55257	largeTSmallT	correct	congruent	0.46484	no	T	T
216.3125	n/a	55376	responseLargeT	correct	n/a	0.46484	no	n/a	n/a
217.3789062	n/a	55649	largeHSmallH	correct	congruent	0.36328	no	H	H
217.7421875	n/a	55742	responseLargeH	correct	n/a	0.36328	no	n/a	n/a
218.8203125	n/a	56018	largeTSmallH	correct	incongruent	0.33594	no	T	H
219.15625	n/a	56104	responseLargeT	correct	n/a	0.33594	no	n/a	n/a
220.21875	n/a	56376	largeHSmallH	correct	congruent	0.375	no	H	H
220.59375	n/a	56472	responseLargeH	correct	n/a	0.375	no	n/a	n/a
221.671875	n/a	56748	largeTSmallH	correct	incongruent	0.48047	no	T	H
222.1523438	n/a	56871	responseLargeT	correct	n/a	0.48047	no	n/a	n/a
223.2304688	n/a	57147	largeHSmallT	correct	incongruent	0.75	no	H	T
223.9804688	n/a	57339	responseLargeH	correct	n/a	0.75	no	n/a	n/a
225.0585938	n/a	57615	largeHSmallT	correct	incongruent	0.44531	no	H	T
225.5039062	n/a	57729	responseLargeH	correct	n/a	0.44531	no	n/a	n/a
226.5664062	n/a	58001	largeHSmallT	correct	incongruent	0.54297	no	H	T
227.109375	n/a	58140	responseLargeH	correct	n/a	0.54297	no	n/a	n/a
228.1796875	n/a	58414	largeHSmallH	correct	congruent	0.45312	no	H	H
228.6328125	n/a	58530	responseLargeH	correct	n/a	0.45312	no	n/a	n/a
229.7109375	n/a	58806	largeHSmallH	correct	congruent	0.41797	no	H	H
230.1289062	n/a	58913	responseLargeH	correct	n/a	0.41797	no	n/a	n/a
231.2070312	n/a	59189	largeTSmallT	correct	congruent	0.46484	no	T	T
231.671875	n/a	59308	responseLargeT	correct	n/a	0.46484	no	n/a	n/a
232.7539062	n/a	59585	largeHSmallT	correct	incongruent	0.4375	no	H	T
233.1914062	n/a	59697	responseLargeH	correct	n/a	0.4375	no	n/a	n/a
234.2578125	n/a	59970	largeHSmallH	correct	congruent	0.46484	no	H	H
234.7226562	n/a	60089	responseLargeH	correct	n/a	0.46484	no	n/a	n/a
235.7929688	n/a	60363	largeTSmallT	correct	congruent	0.50781	no	T	T
236.3007812	n/a	60493	responseLargeT	correct	n/a	0.50781	no	n/a	n/a
237.3671875	n/a	60766	largeHSmallT	correct	incongruent	0.46875	no	H	T
237.8359375	n/a	60886	responseLargeH	correct	n/a	0.46875	no	n/a	n/a
238.9101562	n/a	61161	largeTSmallH	correct	incongruent	0.44531	no	T	H
239.3554688	n/a	61275	responseLargeT	correct	n/a	0.44531	no	n/a	n/a
240.4179688	n/a	61547	largeTSmallT	correct	congruent	0.49219	no	T	T
240.9101562	n/a	61673	responseLargeT	correct	n/a	0.49219	no	n/a	n/a
241.9804688	n/a	61947	largeTSmallT	correct	congruent	0.50781	no	T	T
242.4882812	n/a	62077	responseLargeT	correct	n/a	0.50781	no	n/a	n/a
243.5664062	n/a	62353	largeTSmallT	correct	congruent	0.38281	no	T	T
243.9492188	n/a	62451	responseLargeT	correct	n/a	0.38281	no	n/a	n/a
245.0195312	n/a	62725	largeTSmallT	correct	congruent	0.42578	no	T	T
245.4453125	n/a	62834	responseLargeT	correct	n/a	0.42578	no	n/a	n/a
246.5234375	n/a	63110	largeHSmallT	correct	incongruent	0.42578	no	H	T
246.9492188	n/a	63219	responseLargeH	correct	n/a	0.42578	no	n/a	n/a
248.0195312	n/a	63493	largeHSmallT	correct	incongruent	0.52734	no	H	T
248.546875	n/a	63628	responseLargeH	correct	n/a	0.52734	no	n/a	n/a
249.6054688	n/a	63899	largeHSmallH	error	congruent	0.34766	no	H	H
249.953125	n/a	63988	responseLargeT	error	n/a	0.34766	no	n/a	n/a
251.03125	n/a	64264	largeTSmallH	correct	incongruent	0.66016	no	T	H
251.6914062	n/a	64433	responseLargeT	correct	n/a	0.66016	no	n/a	n/a
252.765625	n/a	64708	largeHSmallT	correct	incongruent	0.36719	no	H	T
253.1328125	n/a	64802	responseLargeH	correct	n/a	0.36719	no	n/a	n/a
254.203125	n/a	65076	largeHSmallT	correct	incongruent	0.42578	no	H	T
254.6289062	n/a	65185	responseLargeH	correct	n/a	0.42578	no	n/a	n/a
255.6992188	n/a	65459	largeHSmallT	correct	incongruent	0.46875	no	H	T
256.1679688	n/a	65579	responseLargeH	correct	n/a	0.46875	no	n/a	n/a
257.2460938	n/a	65855	largeTSmallH	correct	incongruent	0.46484	no	T	H
257.7109375	n/a	65974	responseLargeT	correct	n/a	0.46484	no	n/a	n/a
258.7929688	n/a	66251	largeHSmallT	correct	incongruent	0.45312	no	H	T
259.2460938	n/a	66367	responseLargeH	correct	n/a	0.45312	no	n/a	n/a
260.3125	n/a	66640	largeTSmallH	correct	incongruent	0.54297	no	T	H
260.8554688	n/a	66779	responseLargeT	correct	n/a	0.54297	no	n/a	n/a
261.9257812	n/a	67053	largeTSmallH	correct	incongruent	0.41016	no	T	H
262.3359375	n/a	67158	responseLargeT	correct	n/a	0.41016	no	n/a	n/a
263.40625	n/a	67432	largeHSmallT	correct	incongruent	0.42188	no	H	T
263.828125	n/a	67540	responseLargeH	correct	n/a	0.42188	no	n/a	n/a
264.8984375	n/a	67814	largeHSmallT	correct	incongruent	0.49219	no	H	T
265.390625	n/a	67940	responseLargeH	correct	n/a	0.49219	no	n/a	n/a
266.4570312	n/a	68213	largeHSmallH	correct	congruent	0.85156	no	H	H
267.3085938	n/a	68431	responseLargeH	correct	n/a	0.85156	no	n/a	n/a
268.3789062	n/a	68705	largeTSmallH	correct	incongruent	0.44531	no	T	H
268.8242188	n/a	68819	responseLargeT	correct	n/a	0.44531	no	n/a	n/a
269.8984375	n/a	69094	largeTSmallH	correct	incongruent	0.46484	no	T	H
270.3632812	n/a	69213	responseLargeT	correct	n/a	0.46484	no	n/a	n/a
271.4296875	n/a	69486	largeHSmallH	correct	congruent	0.34766	no	H	H
271.7773438	n/a	69575	responseLargeH	correct	n/a	0.34766	no	n/a	n/a
272.84375	n/a	69848	largeTSmallH	correct	incongruent	0.50781	no	T	H
273.3515625	n/a	69978	responseLargeT	correct	n/a	0.50781	no	n/a	n/a
274.4179688	n/a	70251	largeHSmallT	correct	incongruent	0.34766	no	H	T
274.765625	n/a	70340	responseLargeH	correct	n/a	0.34766	no	n/a	n/a
275.8320312	n/a	70613	largeHSmallH	error	congruent	0.33594	no	H	H
276.1679688	n/a	70699	responseLargeT	error	n/a	0.33594	no	n/a	n/a
277.2460938	n/a	70975	largeTSmallH	correct	incongruent	0.32031	no	T	H
277.5664062	n/a	71057	responseLargeT	correct	n/a	0.32031	no	n/a	n/a
278.6445312	n/a	71333	largeTSmallH	correct	incongruent	0.44922	no	T	H
279.09375	n/a	71448	responseLargeT	correct	n/a	0.44922	no	n/a	n/a
280.1757812	n/a	71725	largeHSmallH	correct	congruent	0.42578	no	H	H
280.6015625	n/a	71834	responseLargeH	correct	n/a	0.42578	no	n/a	n/a
281.671875	n/a	72108	largeTSmallH	correct	incongruent	0.39062	no	T	H
282.0625	n/a	72208	responseLargeT	correct	n/a	0.39062	no	n/a	n/a
283.1367188	n/a	72483	largeHSmallH	correct	congruent	0.28516	no	H	H
283.421875	n/a	72556	responseLargeH	correct	n/a	0.28516	no	n/a	n/a
284.4960938	n/a	72831	largeTSmallT	correct	congruent	0.4375	no	T	T
284.9335938	n/a	72943	responseLargeT	correct	n/a	0.4375	no	n/a	n/a
286.0039062	n/a	73217	largeHSmallT	correct	incongruent	0.29297	no	H	T
286.296875	n/a	73292	responseLargeH	correct	n/a	0.29297	no	n/a	n/a
287.3632812	n/a	73565	largeHSmallH	correct	congruent	0.44141	no	H	H
287.8046875	n/a	73678	responseLargeH	correct	n/a	0.44141	no	n/a	n/a
288.8828125	n/a	73954	largeHSmallH	correct	congruent	0.45312	no	H	H
289.3359375	n/a	74070	responseLargeH	correct	n/a	0.45312	no	n/a	n/a
290.4023438	n/a	74343	largeHSmallH	error	congruent	0.34766	no	H	H
290.75	n/a	74432	responseLargeT	error	n/a	0.34766	no	n/a	n/a
291.8320312	n/a	74709	largeTSmallT	correct	congruent	0.44141	no	T	T
292.2734375	n/a	74822	responseLargeT	correct	n/a	0.44141	no	n/a	n/a
293.3359375	n/a	75094	largeHSmallT	correct	incongruent	0.41406	no	H	T
293.75	n/a	75200	responseLargeH	correct	n/a	0.41406	no	n/a	n/a
294.8164062	n/a	75473	largeHSmallT	correct	incongruent	0.41797	no	H	T
295.234375	n/a	75580	responseLargeH	correct	n/a	0.41797	no	n/a	n/a
296.296875	n/a	75852	largeHSmallT	correct	incongruent	0.45312	no	H	T
296.75	n/a	75968	responseLargeH	correct	n/a	0.45312	no	n/a	n/a
297.8164062	n/a	76241	largeHSmallT	correct	incongruent	0.33594	no	H	T
298.1523438	n/a	76327	responseLargeH	correct	n/a	0.33594	no	n/a	n/a
299.21875	n/a	76600	largeHSmallT	correct	incongruent	0.44141	no	H	T
299.6601562	n/a	76713	responseLargeH	correct	n/a	0.44141	no	n/a	n/a
300.7382812	n/a	76989	largeTSmallH	correct	incongruent	0.375	no	T	H
301.1132812	n/a	77085	responseLargeT	correct	n/a	0.375	no	n/a	n/a
302.1757812	n/a	77357	largeTSmallT	correct	congruent	0.35156	no	T	T
302.5273438	n/a	77447	responseLargeT	correct	n/a	0.35156	no	n/a	n/a
303.6054688	n/a	77723	largeHSmallT	error	incongruent	0.43359	no	H	T
304.0390625	n/a	77834	responseLargeT	error	n/a	0.43359	no	n/a	n/a
305.125	n/a	78112	largeTSmallT	correct	congruent	0.42188	no	T	T
305.546875	n/a	78220	responseLargeT	correct	n/a	0.42188	no	n/a	n/a
306.6171875	n/a	78494	largeHSmallT	correct	incongruent	0.31641	no	H	T
306.9335938	n/a	78575	responseLargeH	correct	n/a	0.31641	no	n/a	n/a
308.0039062	n/a	78849	largeHSmallH	correct	congruent	0.36328	no	H	H
308.3671875	n/a	78942	responseLargeH	correct	n/a	0.36328	no	n/a	n/a
309.4453125	n/a	79218	largeHSmallT	correct	incongruent	0.41406	no	H	T
309.859375	n/a	79324	responseLargeH	correct	n/a	0.41406	no	n/a	n/a
310.9375	n/a	79600	largeTSmallH	correct	incongruent	0.36719	no	T	H
311.3046875	n/a	79694	responseLargeT	correct	n/a	0.36719	no	n/a	n/a
312.375	n/a	79968	largeTSmallT	correct	congruent	0.35938	no	T	T
312.734375	n/a	80060	responseLargeT	correct	n/a	0.35938	no	n/a	n/a
313.8046875	n/a	80334	largeTSmallT	correct	congruent	0.44531	no	T	T
314.25	n/a	80448	responseLargeT	correct	n/a	0.44531	no	n/a	n/a
315.3242188	n/a	80723	largeHSmallT	correct	incongruent	0.41797	no	H	T
315.7421875	n/a	80830	responseLargeH	correct	n/a	0.41797	no	n/a	n/a
316.8164062	n/a	81105	largeHSmallH	correct	congruent	0.41406	no	H	H
317.2304688	n/a	81211	responseLargeH	correct	n/a	0.41406	no	n/a	n/a
318.296875	n/a	81484	largeTSmallT	correct	congruent	0.55078	no	T	T
318.8476562	n/a	81625	responseLargeT	correct	n/a	0.55078	no	n/a	n/a
319.921875	n/a	81900	largeHSmallH	correct	congruent	0.46484	no	H	H
320.3867188	n/a	82019	responseLargeH	correct	n/a	0.46484	no	n/a	n/a
321.46875	n/a	82296	largeTSmallT	correct	congruent	0.35156	no	T	T
321.8203125	n/a	82386	responseLargeT	correct	n/a	0.35156	no	n/a	n/a
322.8828125	n/a	82658	largeTSmallH	correct	incongruent	0.9375	no	T	H
323.8203125	n/a	82898	responseLargeT	correct	n/a	0.9375	no	n/a	n/a
326.3359375	n/a	83542	largeHSmallH	correct	congruent	0.48047	no	H	H
326.8164062	n/a	83665	responseSmallH	correct	n/a	0.48047	no	n/a	n/a
327.8945312	n/a	83941	largeTSmallT	correct	congruent	0.49219	no	T	T
328.3867188	n/a	84067	responseSmallT	correct	n/a	0.49219	no	n/a	n/a
329.4570312	n/a	84341	largeTSmallH	correct	incongruent	0.34766	no	T	H
329.8046875	n/a	84430	responseSmallH	correct	n/a	0.34766	no	n/a	n/a
330.8710938	n/a	84703	largeTSmallT	correct	congruent	0.42969	no	T	T
331.3007812	n/a	84813	responseSmallT	correct	n/a	0.42969	no	n/a	n/a
332.3632812	n/a	85085	largeHSmallH	error	congruent	0.4375	no	H	H
332.8007812	n/a	85197	responseSmallT	error	n/a	0.4375	no	n/a	n/a
333.8710938	n/a	85471	largeHSmallT	correct	incongruent	0.59375	no	H	T
334.4648438	n/a	85623	responseSmallT	correct	n/a	0.59375	no	n/a	n/a
335.5351562	n/a	85897	largeHSmallT	correct	incongruent	0.70703	no	H	T
336.2421875	n/a	86078	responseSmallT	correct	n/a	0.70703	no	n/a	n/a
337.3085938	n/a	86351	largeHSmallT	correct	incongruent	0.46484	no	H	T
337.7734375	n/a	86470	responseSmallT	correct	n/a	0.46484	no	n/a	n/a
338.84375	n/a	86744	largeHSmallH	correct	congruent	0.52734	no	H	H
339.3710938	n/a	86879	responseSmallH	correct	n/a	0.52734	no	n/a	n/a
340.4414062	n/a	87153	largeHSmallT	correct	incongruent	0.41016	no	H	T
340.8515625	n/a	87258	responseSmallT	correct	n/a	0.41016	no	n/a	n/a
341.921875	n/a	87532	largeTSmallH	correct	incongruent	0.4375	no	T	H
342.359375	n/a	87644	responseSmallH	correct	n/a	0.4375	no	n/a	n/a
343.4296875	n/a	87918	largeTSmallT	correct	congruent	0.45312	no	T	T
343.8828125	n/a	88034	responseSmallT	correct	n/a	0.45312	no	n/a	n/a
344.9609375	n/a	88310	largeHSmallT	correct	incongruent	0.47656	no	H	T
345.4375	n/a	88432	responseSmallT	correct	n/a	0.47656	no	n/a	n/a
346.5078125	n/a	88706	largeTSmallH	error	incongruent	0.39453	no	T	H
346.9023438	n/a	88807	responseSmallT	error	n/a	0.39453	no	n/a	n/a
347.9765625	n/a	89082	largeHSmallT	error	incongruent	0.44531	no	H	T
348.421875	n/a	89196	responseSmallH	error	n/a	0.44531	no	n/a	n/a
349.5078125	n/a	89474	largeTSmallT	correct	congruent	0.46484	no	T	T
349.9726562	n/a	89593	responseSmallT	correct	n/a	0.46484	no	n/a	n/a
351.0429688	n/a	89867	largeHSmallH	correct	congruent	0.33203	no	H	H
351.375	n/a	89952	responseSmallH	correct	n/a	0.33203	no	n/a	n/a
352.4414062	n/a	90225	largeHSmallH	correct	congruent	0.54297	no	H	H
352.984375	n/a	90364	responseSmallH	correct	n/a	0.54297	no	n/a	n/a
354.0546875	n/a	90638	largeHSmallH	correct	congruent	0.42969	no	H	H
354.484375	n/a	90748	responseSmallH	correct	n/a	0.42969	no	n/a	n/a
355.5507812	n/a	91021	largeTSmallT	correct	congruent	0.40234	no	T	T
355.953125	n/a	91124	responseSmallT	correct	n/a	0.40234	no	n/a	n/a
357.015625	n/a	91396	largeHSmallT	error	incongruent	0.41797	no	H	T
357.4335938	n/a	91503	responseSmallH	error	n/a	0.41797	no	n/a	n/a
358.4960938	n/a	91775	largeHSmallH	correct	congruent	0.46094	no	H	H
358.9570312	n/a	91893	responseSmallH	correct	n/a	0.46094	no	n/a	n/a
360.0273438	n/a	92167	largeTSmallH	error	incongruent	0.48047	no	T	H
360.5078125	n/a	92290	responseSmallT	error	n/a	0.48047	no	n/a	n/a
361.5742188	n/a	92563	largeTSmallH	correct	incongruent	0.59375	no	T	H
362.1679688	n/a	92715	responseSmallH	correct	n/a	0.59375	no	n/a	n/a
363.2421875	n/a	92990	largeHSmallH	correct	congruent	0.5	no	H	H
363.7421875	n/a	93118	responseSmallH	correct	n/a	0.5	no	n/a	n/a
364.8164062	n/a	93393	largeHSmallH	correct	congruent	0.42969	no	H	H
365.2460938	n/a	93503	responseSmallH	correct	n/a	0.42969	no	n/a	n/a
366.3203125	n/a	93778	largeTSmallT	correct	congruent	0.53125	no	T	T
366.8515625	n/a	93914	responseSmallT	correct	n/a	0.53125	no	n/a	n/a
367.921875	n/a	94188	largeHSmallH	correct	congruent	0.40625	no	H	H
368.328125	n/a	94292	responseSmallH	correct	n/a	0.40625	no	n/a	n/a
369.4023438	n/a	94567	largeTSmallH	correct	incongruent	0.33984	no	T	H
369.7421875	n/a	94654	responseSmallH	correct	n/a	0.33984	no	n/a	n/a
370.8164062	n/a	94929	largeTSmallH	correct	incongruent	0.44531	no	T	H
371.2617188	n/a	95043	responseSmallH	correct	n/a	0.44531	no	n/a	n/a
372.3359375	n/a	95318	largeTSmallH	correct	incongruent	0.44141	no	T	H
372.7773438	n/a	95431	responseSmallH	correct	n/a	0.44141	no	n/a	n/a
373.8554688	n/a	95707	largeTSmallH	correct	incongruent	0.85156	no	T	H
374.7070312	n/a	95925	responseSmallH	correct	n/a	0.85156	no	n/a	n/a
375.7734375	n/a	96198	largeHSmallH	correct	congruent	0.46875	no	H	H
376.2421875	n/a	96318	responseSmallH	correct	n/a	0.46875	no	n/a	n/a
377.3203125	n/a	96594	largeTSmallT	error	congruent	0.30078	no	T	T
377.6210938	n/a	96671	responseSmallH	error	n/a	0.30078	no	n/a	n/a
378.6835938	n/a	96943	largeTSmallT	correct	congruent	0.47656	no	T	T
379.1601562	n/a	97065	responseSmallT	correct	n/a	0.47656	no	n/a	n/a
380.2304688	n/a	97339	largeHSmallH	correct	congruent	0.40625	no	H	H
380.6367188	n/a	97443	responseSmallH	correct	n/a	0.40625	no	n/a	n/a
381.6953125	n/a	97714	largeTSmallH	correct	incongruent	0.40625	no	T	H
382.1015625	n/a	97818	responseSmallH	correct	n/a	0.40625	no	n/a	n/a
383.1601562	n/a	98089	largeTSmallH	correct	incongruent	0.39844	no	T	H
383.5585938	n/a	98191	responseSmallH	correct	n/a	0.39844	no	n/a	n/a
384.6289062	n/a	98465	largeHSmallT	correct	incongruent	0.43359	no	H	T
385.0625	n/a	98576	responseSmallT	correct	n/a	0.43359	no	n/a	n/a
386.1367188	n/a	98851	largeHSmallT	correct	incongruent	0.44141	no	H	T
386.578125	n/a	98964	responseSmallT	correct	n/a	0.44141	no	n/a	n/a
387.640625	n/a	99236	largeHSmallT	correct	incongruent	0.44141	no	H	T
388.0820312	n/a	99349	responseSmallT	correct	n/a	0.44141	no	n/a	n/a
389.1484375	n/a	99622	largeTSmallH	error	incongruent	0.40234	no	T	H
389.5507812	n/a	99725	responseSmallT	error	n/a	0.40234	no	n/a	n/a
390.6289062	n/a	100001	largeHSmallH	correct	congruent	0.39062	no	H	H
391.0195312	n/a	100101	responseSmallH	correct	n/a	0.39062	no	n/a	n/a
392.09375	n/a	100376	largeHSmallT	correct	incongruent	0.39844	no	H	T
392.4921875	n/a	100478	responseSmallT	correct	n/a	0.39844	no	n/a	n/a
393.5625	n/a	100752	largeTSmallH	correct	incongruent	0.35156	no	T	H
393.9140625	n/a	100842	responseSmallH	correct	n/a	0.35156	no	n/a	n/a
394.9882812	n/a	101117	largeHSmallH	correct	congruent	0.39844	no	H	H
395.3867188	n/a	101219	responseSmallH	correct	n/a	0.39844	no	n/a	n/a
396.453125	n/a	101492	largeTSmallT	correct	congruent	0.45312	no	T	T
396.90625	n/a	101608	responseSmallT	correct	n/a	0.45312	no	n/a	n/a
397.9765625	n/a	101882	largeHSmallH	correct	congruent	0.40625	no	H	H
398.3828125	n/a	101986	responseSmallH	correct	n/a	0.40625	no	n/a	n/a
399.453125	n/a	102260	largeTSmallT	correct	congruent	0.55469	no	T	T
400.0078125	n/a	102402	responseSmallT	correct	n/a	0.55469	no	n/a	n/a
401.0664062	n/a	102673	largeTSmallT	correct	congruent	0.91016	no	T	T
401.9765625	n/a	102906	responseSmallT	correct	n/a	0.91016	no	n/a	n/a
403.0546875	n/a	103182	largeTSmallH	correct	incongruent	0.48047	no	T	H
403.5351562	n/a	103305	responseSmallH	correct	n/a	0.48047	no	n/a	n/a
404.6132812	n/a	103581	largeHSmallT	correct	incongruent	0.41406	no	H	T
405.0273438	n/a	103687	responseSmallT	correct	n/a	0.41406	no	n/a	n/a
406.09375	n/a	103960	largeHSmallH	correct	congruent	0.48828	no	H	H
406.5820312	n/a	104085	responseSmallH	correct	n/a	0.48828	no	n/a	n/a
407.65625	n/a	104360	largeHSmallT	error	incongruent	0.49219	no	H	T
408.1484375	n/a	104486	responseSmallH	error	n/a	0.49219	no	n/a	n/a
409.2148438	n/a	104759	largeTSmallT	correct	congruent	0.47656	no	T	T
409.6914062	n/a	104881	responseSmallT	correct	n/a	0.47656	no	n/a	n/a
410.7617188	n/a	105155	largeHSmallH	correct	congruent	0.39062	no	H	H
411.1523438	n/a	105255	responseSmallH	correct	n/a	0.39062	no	n/a	n/a
412.2265625	n/a	105530	largeHSmallT	correct	incongruent	0.39062	no	H	T
412.6171875	n/a	105630	responseSmallT	correct	n/a	0.39062	no	n/a	n/a
413.6953125	n/a	105906	largeTSmallH	error	incongruent	0.44531	no	T	H
414.140625	n/a	106020	responseSmallT	error	n/a	0.44531	no	n/a	n/a
415.1992188	n/a	106291	largeTSmallT	correct	congruent	0.42578	no	T	T
415.625	n/a	106400	responseSmallT	correct	n/a	0.42578	no	n/a	n/a
416.7070312	n/a	106677	largeTSmallH	correct	incongruent	0.39844	no	T	H
417.1054688	n/a	106779	responseSmallH	correct	n/a	0.39844	no	n/a	n/a
418.1757812	n/a	107053	largeHSmallH	correct	congruent	0.44922	no	H	H
418.625	n/a	107168	responseSmallH	correct	n/a	0.44922	no	n/a	n/a
419.6953125	n/a	107442	largeHSmallT	correct	incongruent	0.48438	no	H	T
420.1796875	n/a	107566	responseSmallT	correct	n/a	0.48438	no	n/a	n/a
421.2421875	n/a	107838	largeHSmallT	correct	incongruent	0.48047	no	H	T
421.7226562	n/a	107961	responseSmallT	correct	n/a	0.48047	no	n/a	n/a
422.7890625	n/a	108234	largeTSmallH	correct	incongruent	0.39453	no	T	H
423.1835938	n/a	108335	responseSmallH	correct	n/a	0.39453	no	n/a	n/a
424.2539062	n/a	108609	largeTSmallT	correct	congruent	0.5	no	T	T
424.7539062	n/a	108737	responseSmallT	correct	n/a	0.5	no	n/a	n/a
425.828125	n/a	109012	largeTSmallT	correct	congruent	0.49219	no	T	T
426.3203125	n/a	109138	responseSmallT	correct	n/a	0.49219	no	n/a	n/a
427.3867188	n/a	109411	largeHSmallT	correct	incongruent	0.67578	no	H	T
428.0625	n/a	109584	responseSmallT	correct	n/a	0.67578	no	n/a	n/a
429.1328125	n/a	109858	largeHSmallT	correct	incongruent	0.46875	no	H	T
429.6015625	n/a	109978	responseSmallT	correct	n/a	0.46875	no	n/a	n/a
430.6679688	n/a	110251	largeTSmallT	correct	congruent	0.43359	no	T	T
431.1015625	n/a	110362	responseSmallT	correct	n/a	0.43359	no	n/a	n/a
432.171875	n/a	110636	largeHSmallH	correct	congruent	0.46875	no	H	H
432.640625	n/a	110756	responseSmallH	correct	n/a	0.46875	no	n/a	n/a
433.7070312	n/a	111029	largeHSmallH	correct	congruent	0.47656	no	H	H
434.1835938	n/a	111151	responseSmallH	correct	n/a	0.47656	no	n/a	n/a
435.2539062	n/a	111425	largeTSmallT	correct	congruent	0.47266	no	T	T
435.7265625	n/a	111546	responseSmallT	correct	n/a	0.47266	no	n/a	n/a
436.8007812	n/a	111821	largeHSmallH	correct	congruent	0.42578	no	H	H
437.2265625	n/a	111930	responseSmallH	correct	n/a	0.42578	no	n/a	n/a
438.2929688	n/a	112203	largeHSmallT	correct	incongruent	0.48438	no	H	T
438.7773438	n/a	112327	responseSmallT	correct	n/a	0.48438	no	n/a	n/a
439.8554688	n/a	112603	largeHSmallT	correct	incongruent	0.46875	no	H	T
440.3242188	n/a	112723	responseSmallT	correct	n/a	0.46875	no	n/a	n/a
441.3984375	n/a	112998	largeHSmallT	correct	incongruent	0.45312	no	H	T
441.8515625	n/a	113114	responseSmallT	correct	n/a	0.45312	no	n/a	n/a
442.9335938	n/a	113391	largeHSmallT	correct	incongruent	0.48438	no	H	T
443.4179688	n/a	113515	responseSmallT	correct	n/a	0.48438	no	n/a	n/a
444.4921875	n/a	113790	largeHSmallH	error	congruent	0.42969	no	H	H
444.921875	n/a	113900	responseSmallT	error	n/a	0.42969	no	n/a	n/a
445.9882812	n/a	114173	largeTSmallT	correct	congruent	0.44922	no	T	T
446.4375	n/a	114288	responseSmallT	correct	n/a	0.44922	no	n/a	n/a
447.5195312	n/a	114565	largeTSmallH	correct	incongruent	0.47266	no	T	H
447.9921875	n/a	114686	responseSmallH	correct	n/a	0.47266	no	n/a	n/a
449.0546875	n/a	114958	largeTSmallT	correct	congruent	0.41797	no	T	T
449.4726562	n/a	115065	responseSmallT	correct	n/a	0.41797	no	n/a	n/a
450.5351562	n/a	115337	largeHSmallT	correct	incongruent	0.44922	no	H	T
450.984375	n/a	115452	responseSmallT	correct	n/a	0.44922	no	n/a	n/a
452.0546875	n/a	115726	largeTSmallH	correct	incongruent	0.39453	no	T	H
452.4492188	n/a	115827	responseSmallH	correct	n/a	0.39453	no	n/a	n/a
453.5195312	n/a	116101	largeHSmallT	correct	incongruent	0.42188	no	H	T
453.9414062	n/a	116209	responseSmallT	correct	n/a	0.42188	no	n/a	n/a
455.0117188	n/a	116483	largeTSmallH	correct	incongruent	0.39844	no	T	H
455.4101562	n/a	116585	responseSmallH	correct	n/a	0.39844	no	n/a	n/a
456.4804688	n/a	116859	largeHSmallT	correct	incongruent	0.53516	no	H	T
457.015625	n/a	116996	responseSmallT	correct	n/a	0.53516	no	n/a	n/a
458.09375	n/a	117272	largeHSmallT	correct	incongruent	0.49609	no	H	T
458.5898438	n/a	117399	responseSmallT	correct	n/a	0.49609	no	n/a	n/a
459.6679688	n/a	117675	largeTSmallH	correct	incongruent	0.66016	no	T	H
460.328125	n/a	117844	responseSmallH	correct	n/a	0.66016	no	n/a	n/a
461.3984375	n/a	118118	largeTSmallT	correct	congruent	0.62109	no	T	T
462.0195312	n/a	118277	responseSmallT	correct	n/a	0.62109	no	n/a	n/a
463.078125	n/a	118548	largeHSmallH	correct	congruent	0.42188	no	H	H
463.5	n/a	118656	responseSmallH	correct	n/a	0.42188	no	n/a	n/a
464.5585938	n/a	118927	largeHSmallT	correct	incongruent	0.41016	no	H	T
464.96875	n/a	119032	responseSmallT	correct	n/a	0.41016	no	n/a	n/a
466.0273438	n/a	119303	largeTSmallT	correct	congruent	0.41797	no	T	T
466.4453125	n/a	119410	responseSmallT	correct	n/a	0.41797	no	n/a	n/a
467.5195312	n/a	119685	largeHSmallT	correct	incongruent	0.375	no	H	T
467.8945312	n/a	119781	responseSmallT	correct	n/a	0.375	no	n/a	n/a
468.9609375	n/a	120054	largeTSmallT	correct	congruent	0.39453	no	T	T
469.3554688	n/a	120155	responseSmallT	correct	n/a	0.39453	no	n/a	n/a
470.4257812	n/a	120429	largeHSmallH	correct	congruent	0.45312	no	H	H
470.8789062	n/a	120545	responseSmallH	correct	n/a	0.45312	no	n/a	n/a
471.9453125	n/a	120818	largeTSmallH	correct	incongruent	0.52734	no	T	H
472.4726562	n/a	120953	responseSmallH	correct	n/a	0.52734	no	n/a	n/a
473.546875	n/a	121228	largeHSmallH	correct	congruent	0.92188	no	H	H
474.46875	n/a	121464	responseSmallH	correct	n/a	0.92188	no	n/a	n/a
475.546875	n/a	121740	largeTSmallT	correct	congruent	0.48438	no	T	T
476.03125	n/a	121864	responseSmallT	correct	n/a	0.48438	no	n/a	n/a
477.1054688	n/a	122139	largeTSmallT	correct	congruent	0.36719	no	T	T
477.4726562	n/a	122233	responseSmallT	correct	n/a	0.36719	no	n/a	n/a
478.546875	n/a	122508	largeTSmallT	correct	congruent	0.41797	no	T	T
478.9648438	n/a	122615	responseSmallT	correct	n/a	0.41797	no	n/a	n/a
480.0390625	n/a	122890	largeHSmallH	correct	congruent	0.43359	no	H	H
480.4726562	n/a	123001	responseSmallH	correct	n/a	0.43359	no	n/a	n/a
481.53125	n/a	123272	largeHSmallH	correct	congruent	0.43359	no	H	H
481.9648438	n/a	123383	responseSmallH	correct	n/a	0.43359	no	n/a	n/a
483.0390625	n/a	123658	largeHSmallH	error	congruent	0.41016	no	H	H
483.4492188	n/a	123763	responseSmallT	error	n/a	0.41016	no	n/a	n/a
484.5195312	n/a	124037	largeHSmallH	correct	congruent	0.50391	no	H	H
485.0234375	n/a	124166	responseSmallH	correct	n/a	0.50391	no	n/a	n/a
486.09375	n/a	124440	largeTSmallH	correct	incongruent	0.41016	no	T	H
486.5039062	n/a	124545	responseSmallH	correct	n/a	0.41016	no	n/a	n/a
487.5742188	n/a	124819	largeHSmallT	correct	incongruent	0.46875	no	H	T
488.0429688	n/a	124939	responseSmallT	correct	n/a	0.46875	no	n/a	n/a
489.1171875	n/a	125214	largeHSmallT	correct	incongruent	0.53906	no	H	T
489.65625	n/a	125352	responseSmallT	correct	n/a	0.53906	no	n/a	n/a
490.71875	n/a	125624	largeTSmallT	correct	congruent	0.58594	no	T	T
491.3046875	n/a	125774	responseSmallT	correct	n/a	0.58594	no	n/a	n/a
492.3867188	n/a	126051	largeHSmallH	correct	congruent	0.41406	no	H	H
492.8007812	n/a	126157	responseSmallH	correct	n/a	0.41406	no	n/a	n/a
493.8789062	n/a	126433	largeTSmallH	correct	incongruent	0.48828	no	T	H
494.3671875	n/a	126558	responseSmallH	correct	n/a	0.48828	no	n/a	n/a
495.4375	n/a	126832	largeHSmallT	correct	incongruent	0.37891	no	H	T
495.8164062	n/a	126929	responseSmallT	correct	n/a	0.37891	no	n/a	n/a
496.890625	n/a	127204	largeTSmallH	correct	incongruent	0.80469	no	T	H
497.6953125	n/a	127410	responseSmallH	correct	n/a	0.80469	no	n/a	n/a
498.7578125	n/a	127682	largeHSmallH	correct	congruent	0.40234	no	H	H
499.1601562	n/a	127785	responseSmallH	correct	n/a	0.40234	no	n/a	n/a
500.2265625	n/a	128058	largeHSmallT	correct	incongruent	0.41797	no	H	T
500.6445312	n/a	128165	responseSmallT	correct	n/a	0.41797	no	n/a	n/a
501.7070312	n/a	128437	largeHSmallT	correct	incongruent	0.48047	no	H	T
502.1875	n/a	128560	responseSmallT	correct	n/a	0.48047	no	n/a	n/a
503.2539062	n/a	128833	largeTSmallT	correct	congruent	0.54297	no	T	T
503.796875	n/a	128972	responseSmallT	correct	n/a	0.54297	no	n/a	n/a
504.8671875	n/a	129246	largeHSmallT	correct	incongruent	0.49609	no	H	T
505.3632812	n/a	129373	responseSmallT	correct	n/a	0.49609	no	n/a	n/a
506.4375	n/a	129648	largeTSmallT	error	congruent	0.36328	no	T	T
506.8007812	n/a	129741	responseSmallH	error	n/a	0.36328	no	n/a	n/a
507.8789062	n/a	130017	largeHSmallT	correct	incongruent	0.5	no	H	T
508.3789062	n/a	130145	responseSmallT	correct	n/a	0.5	no	n/a	n/a
509.453125	n/a	130420	largeTSmallH	correct	incongruent	0.46094	no	T	H
509.9140625	n/a	130538	responseSmallH	correct	n/a	0.46094	no	n/a	n/a
511	n/a	130816	largeHSmallT	correct	incongruent	0.55078	no	H	T
511.5507812	n/a	130957	responseSmallT	correct	n/a	0.55078	no	n/a	n/a
512.625	n/a	131232	largeTSmallH	correct	incongruent	0.40625	no	T	H
513.03125	n/a	131336	responseSmallH	correct	n/a	0.40625	no	n/a	n/a
514.1171875	n/a	131614	largeHSmallH	correct	congruent	0.70312	no	H	H
514.8203125	n/a	131794	responseSmallH	correct	n/a	0.70312	no	n/a	n/a
515.890625	n/a	132068	largeTSmallH	correct	incongruent	0.45312	no	T	H
516.34375	n/a	132184	responseSmallH	correct	n/a	0.45312	no	n/a	n/a
517.4101562	n/a	132457	largeHSmallH	correct	congruent	0.46094	no	H	H
517.8710938	n/a	132575	responseSmallH	correct	n/a	0.46094	no	n/a	n/a
518.9453125	n/a	132850	largeHSmallT	correct	incongruent	0.47266	no	H	T
519.4179688	n/a	132971	responseSmallT	correct	n/a	0.47266	no	n/a	n/a
520.4921875	n/a	133246	largeTSmallT	correct	congruent	0.44531	no	T	T
520.9375	n/a	133360	responseSmallT	correct	n/a	0.44531	no	n/a	n/a
522.0117188	n/a	133635	largeTSmallT	correct	congruent	0.42969	no	T	T
522.4414062	n/a	133745	responseSmallT	correct	n/a	0.42969	no	n/a	n/a
523.5195312	n/a	134021	largeHSmallT	correct	incongruent	0.58594	no	H	T
524.1054688	n/a	134171	responseSmallT	correct	n/a	0.58594	no	n/a	n/a
525.171875	n/a	134444	largeTSmallT	correct	congruent	0.5	no	T	T
525.671875	n/a	134572	responseSmallT	correct	n/a	0.5	no	n/a	n/a
526.7460938	n/a	134847	largeTSmallT	correct	congruent	0.48047	no	T	T
527.2265625	n/a	134970	responseSmallT	correct	n/a	0.48047	no	n/a	n/a
528.2929688	n/a	135243	largeTSmallH	error	incongruent	0.39844	no	T	H
528.6914062	n/a	135345	responseSmallT	error	n/a	0.39844	no	n/a	n/a
529.7578125	n/a	135618	largeHSmallH	correct	congruent	0.44922	no	H	H
530.2070312	n/a	135733	responseSmallH	correct	n/a	0.44922	no	n/a	n/a
531.2773438	n/a	136007	largeTSmallT	correct	congruent	0.38672	no	T	T
531.6640625	n/a	136106	responseSmallT	correct	n/a	0.38672	no	n/a	n/a
532.7460938	n/a	136383	largeTSmallH	correct	incongruent	0.33984	no	T	H
533.0859375	n/a	136470	responseSmallH	correct	n/a	0.33984	no	n/a	n/a
534.15625	n/a	136744	largeTSmallT	correct	congruent	0.33594	no	T	T
534.4921875	n/a	136830	responseSmallT	correct	n/a	0.33594	no	n/a	n/a
535.5585938	n/a	137103	largeTSmallT	correct	congruent	0.48438	no	T	T
536.0429688	n/a	137227	responseSmallT	correct	n/a	0.48438	no	n/a	n/a
537.1171875	n/a	137502	largeHSmallT	error	incongruent	0.40234	no	H	T
537.5195312	n/a	137605	responseSmallH	error	n/a	0.40234	no	n/a	n/a
538.5859375	n/a	137878	largeTSmallT	correct	congruent	0.4375	no	T	T
539.0234375	n/a	137990	responseSmallT	correct	n/a	0.4375	no	n/a	n/a
540.1054688	n/a	138267	largeTSmallT	correct	congruent	0.40234	no	T	T
540.5078125	n/a	138370	responseSmallT	correct	n/a	0.40234	no	n/a	n/a
541.5859375	n/a	138646	largeHSmallT	error	incongruent	0.48828	no	H	T
542.0742188	n/a	138771	responseSmallH	error	n/a	0.48828	no	n/a	n/a
543.1445312	n/a	139045	largeTSmallH	correct	incongruent	0.95312	no	T	H
544.0976562	n/a	139289	responseSmallH	correct	n/a	0.95312	no	n/a	n/a
545.171875	n/a	139564	largeHSmallH	correct	congruent	0.44531	no	H	H
545.6171875	n/a	139678	responseSmallH	correct	n/a	0.44531	no	n/a	n/a
546.6796875	n/a	139950	largeTSmallT	correct	congruent	0.46094	no	T	T
547.140625	n/a	140068	responseSmallT	correct	n/a	0.46094	no	n/a	n/a
548.2109375	n/a	140342	largeTSmallT	correct	congruent	0.48047	no	T	T
548.6914062	n/a	140465	responseSmallT	correct	n/a	0.48047	no	n/a	n/a
549.7578125	n/a	140738	largeTSmallH	correct	incongruent	1.3164	no	T	H
551.0742188	n/a	141075	responseSmallH	correct	n/a	1.3164	no	n/a	n/a
552.1445312	n/a	141349	largeTSmallT	correct	congruent	0.51172	no	T	T
552.65625	n/a	141480	responseSmallT	correct	n/a	0.51172	no	n/a	n/a
553.71875	n/a	141752	largeHSmallT	correct	incongruent	0.44531	no	H	T
554.1640625	n/a	141866	responseSmallT	correct	n/a	0.44531	no	n/a	n/a
555.2382812	n/a	142141	largeHSmallT	error	incongruent	0.48047	no	H	T
555.71875	n/a	142264	responseSmallH	error	n/a	0.48047	no	n/a	n/a
556.796875	n/a	142540	largeTSmallT	correct	congruent	0.42188	no	T	T
557.21875	n/a	142648	responseSmallT	correct	n/a	0.42188	no	n/a	n/a
558.2890625	n/a	142922	largeHSmallH	correct	congruent	0.41406	no	H	H
558.703125	n/a	143028	responseSmallH	correct	n/a	0.41406	no	n/a	n/a
559.7695312	n/a	143301	largeTSmallT	correct	congruent	0.55469	no	T	T
560.3242188	n/a	143443	responseSmallT	correct	n/a	0.55469	no	n/a	n/a
561.3984375	n/a	143718	largeHSmallH	correct	congruent	0.45312	no	H	H
561.8515625	n/a	143834	responseSmallH	correct	n/a	0.45312	no	n/a	n/a
562.9179688	n/a	144107	largeTSmallH	error	incongruent	0.38281	no	T	H
563.3007812	n/a	144205	responseSmallT	error	n/a	0.38281	no	n/a	n/a
564.3710938	n/a	144479	largeHSmallT	correct	incongruent	0.35547	no	H	T
564.7265625	n/a	144570	responseSmallT	correct	n/a	0.35547	no	n/a	n/a
565.796875	n/a	144844	largeTSmallT	correct	congruent	0.44531	no	T	T
566.2421875	n/a	144958	responseSmallT	correct	n/a	0.44531	no	n/a	n/a
567.3046875	n/a	145230	largeTSmallT	correct	congruent	0.42578	no	T	T
567.7304688	n/a	145339	responseSmallT	correct	n/a	0.42578	no	n/a	n/a
568.8085938	n/a	145615	largeTSmallT	correct	congruent	0.35547	no	T	T
569.1640625	n/a	145706	responseSmallT	correct	n/a	0.35547	no	n/a	n/a
570.2382812	n/a	145981	largeHSmallT	correct	incongruent	0.51953	no	H	T
570.7578125	n/a	146114	responseSmallT	correct	n/a	0.51953	no	n/a	n/a
571.8359375	n/a	146390	largeHSmallH	correct	congruent	0.45312	no	H	H
572.2890625	n/a	146506	responseSmallH	correct	n/a	0.45312	no	n/a	n/a
573.3554688	n/a	146779	largeHSmallT	correct	incongruent	0.37891	no	H	T
573.734375	n/a	146876	responseSmallT	correct	n/a	0.37891	no	n/a	n/a
574.8085938	n/a	147151	largeTSmallH	correct	incongruent	0.38672	no	T	H
575.1953125	n/a	147250	responseSmallH	correct	n/a	0.38672	no	n/a	n/a
576.2617188	n/a	147523	largeHSmallH	correct	congruent	0.38672	no	H	H
576.6484375	n/a	147622	responseSmallH	correct	n/a	0.38672	no	n/a	n/a
577.7148438	n/a	147895	largeTSmallH	correct	incongruent	0.46875	no	T	H
578.1835938	n/a	148015	responseSmallH	correct	n/a	0.46875	no	n/a	n/a
579.265625	n/a	148292	largeTSmallT	correct	congruent	0.46094	no	T	T
579.7265625	n/a	148410	responseSmallT	correct	n/a	0.46094	no	n/a	n/a
580.796875	n/a	148684	largeHSmallH	correct	congruent	0.42578	no	H	H
581.2226562	n/a	148793	responseSmallH	correct	n/a	0.42578	no	n/a	n/a
582.3046875	n/a	149070	largeTSmallT	correct	congruent	0.47266	no	T	T
582.7773438	n/a	149191	responseSmallT	correct	n/a	0.47266	no	n/a	n/a
583.8359375	n/a	149462	largeTSmallH	correct	incongruent	0.38281	no	T	H
584.21875	n/a	149560	responseSmallH	correct	n/a	0.38281	no	n/a	n/a
585.2890625	n/a	149834	largeHSmallT	correct	incongruent	0.47656	no	H	T
585.765625	n/a	149956	responseSmallT	correct	n/a	0.47656	no	n/a	n/a
586.8359375	n/a	150230	largeTSmallH	correct	incongruent	0.43359	no	T	H
587.2695312	n/a	150341	responseSmallH	correct	n/a	0.43359	no	n/a	n/a
588.34375	n/a	150616	largeHSmallT	correct	incongruent	0.36719	no	H	T
588.7109375	n/a	150710	responseSmallT	correct	n/a	0.36719	no	n/a	n/a
589.78125	n/a	150984	largeTSmallT	correct	congruent	0.35156	no	T	T
590.1328125	n/a	151074	responseSmallT	correct	n/a	0.35156	no	n/a	n/a
591.2109375	n/a	151350	largeHSmallH	error	congruent	0.375	no	H	H
591.5859375	n/a	151446	responseSmallT	error	n/a	0.375	no	n/a	n/a
592.6640625	n/a	151722	largeHSmallH	correct	congruent	0.41797	no	H	H
593.0820312	n/a	151829	responseSmallH	correct	n/a	0.41797	no	n/a	n/a
594.15625	n/a	152104	largeTSmallH	correct	incongruent	0.51562	no	T	H
594.671875	n/a	152236	responseSmallH	correct	n/a	0.51562	no	n/a	n/a
595.7421875	n/a	152510	largeHSmallT	correct	incongruent	1.3672	no	H	T
597.109375	n/a	152860	responseSmallT	correct	n/a	1.3672	no	n/a	n/a
598.1835938	n/a	153135	largeTSmallH	correct	incongruent	0.45703	no	T	H
598.640625	n/a	153252	responseSmallH	correct	n/a	0.45703	no	n/a	n/a
599.7148438	n/a	153527	largeHSmallH	correct	congruent	0.42578	no	H	H
600.140625	n/a	153636	responseSmallH	correct	n/a	0.42578	no	n/a	n/a
601.2109375	n/a	153910	largeTSmallH	correct	incongruent	0.58594	no	T	H
601.796875	n/a	154060	responseSmallH	correct	n/a	0.58594	no	n/a	n/a
602.8632812	n/a	154333	largeTSmallH	correct	incongruent	0.42969	no	T	H
603.2929688	n/a	154443	responseSmallH	correct	n/a	0.42969	no	n/a	n/a
604.3554688	n/a	154715	largeHSmallH	correct	congruent	0.62891	no	H	H
604.984375	n/a	154876	responseSmallH	correct	n/a	0.62891	no	n/a	n/a
606.0625	n/a	155152	largeTSmallT	correct	congruent	0.52734	no	T	T
606.5898438	n/a	155287	responseSmallT	correct	n/a	0.52734	no	n/a	n/a
607.6640625	n/a	155562	largeTSmallH	correct	incongruent	0.37109	no	T	H
608.0351562	n/a	155657	responseSmallH	correct	n/a	0.37109	no	n/a	n/a
609.1015625	n/a	155930	largeTSmallH	correct	incongruent	0.42969	no	T	H
609.53125	n/a	156040	responseSmallH	correct	n/a	0.42969	no	n/a	n/a
610.5976562	n/a	156313	largeHSmallT	correct	incongruent	0.51172	no	H	T
611.109375	n/a	156444	responseSmallT	correct	n/a	0.51172	no	n/a	n/a
612.1679688	n/a	156715	largeTSmallT	correct	congruent	0.39844	no	T	T
612.5664062	n/a	156817	responseSmallT	correct	n/a	0.39844	no	n/a	n/a
613.6367188	n/a	157091	largeTSmallH	correct	incongruent	0.41406	no	T	H
614.0507812	n/a	157197	responseSmallH	correct	n/a	0.41406	no	n/a	n/a
615.1171875	n/a	157470	largeTSmallH	correct	incongruent	0.4375	no	T	H
615.5546875	n/a	157582	responseSmallH	correct	n/a	0.4375	no	n/a	n/a
616.6210938	n/a	157855	largeHSmallH	correct	congruent	0.44531	no	H	H
617.0664062	n/a	157969	responseSmallH	correct	n/a	0.44531	no	n/a	n/a
618.1289062	n/a	158241	largeTSmallH	correct	incongruent	0.33203	no	T	H
618.4609375	n/a	158326	responseSmallH	correct	n/a	0.33203	no	n/a	n/a
619.5273438	n/a	158599	largeHSmallH	correct	congruent	0.43359	no	H	H
619.9609375	n/a	158710	responseSmallH	correct	n/a	0.43359	no	n/a	n/a
621.0351562	n/a	158985	largeTSmallH	correct	incongruent	0.44922	no	T	H
621.484375	n/a	159100	responseSmallH	correct	n/a	0.44922	no	n/a	n/a
622.5703125	n/a	159378	largeTSmallH	correct	incongruent	0.41406	no	T	H
622.984375	n/a	159484	responseSmallH	correct	n/a	0.41406	no	n/a	n/a
624.0625	n/a	159760	largeHSmallH	correct	congruent	0.42188	no	H	H
624.484375	n/a	159868	responseSmallH	correct	n/a	0.42188	no	n/a	n/a
625.5546875	n/a	160142	largeHSmallH	correct	congruent	0.44922	no	H	H
626.0039062	n/a	160257	responseSmallH	correct	n/a	0.44922	no	n/a	n/a
627.0742188	n/a	160531	largeTSmallH	correct	incongruent	0.36328	no	T	H
627.4375	n/a	160624	responseSmallH	correct	n/a	0.36328	no	n/a	n/a
628.5039062	n/a	160897	largeTSmallH	correct	incongruent	0.26172	no	T	H
628.765625	n/a	160964	responseSmallH	correct	n/a	0.26172	no	n/a	n/a
629.8359375	n/a	161238	largeHSmallH	correct	congruent	0.52344	no	H	H
630.359375	n/a	161372	responseSmallH	correct	n/a	0.52344	no	n/a	n/a
631.4335938	n/a	161647	largeHSmallT	error	incongruent	0.37891	no	H	T
631.8125	n/a	161744	responseSmallH	error	n/a	0.37891	no	n/a	n/a
632.890625	n/a	162020	largeHSmallH	correct	congruent	0.47266	no	H	H
633.3632812	n/a	162141	responseSmallH	correct	n/a	0.47266	no	n/a	n/a
635.8085938	n/a	162767	largeTSmallT	correct	congruent	0.40625	no	T	T
636.2148438	n/a	162871	responseLargeT	correct	n/a	0.40625	no	n/a	n/a
637.2890625	n/a	163146	largeTSmallH	correct	incongruent	0.8125	no	T	H
638.1015625	n/a	163354	responseLargeT	correct	n/a	0.8125	no	n/a	n/a
639.1835938	n/a	163631	largeHSmallH	correct	congruent	0.37891	no	H	H
639.5625	n/a	163728	responseLargeH	correct	n/a	0.37891	no	n/a	n/a
640.6210938	n/a	163999	largeHSmallH	correct	congruent	0.35547	no	H	H
640.9765625	n/a	164090	responseLargeH	correct	n/a	0.35547	no	n/a	n/a
642.046875	n/a	164364	largeTSmallH	correct	incongruent	0.36328	no	T	H
642.4101562	n/a	164457	responseLargeT	correct	n/a	0.36328	no	n/a	n/a
643.4882812	n/a	164733	largeTSmallH	correct	incongruent	0.45312	no	T	H
643.9414062	n/a	164849	responseLargeT	correct	n/a	0.45312	no	n/a	n/a
645.0078125	n/a	165122	largeHSmallT	error	incongruent	0.40625	no	H	T
645.4140625	n/a	165226	responseLargeT	error	n/a	0.40625	no	n/a	n/a
646.4882812	n/a	165501	largeHSmallT	correct	incongruent	0.4375	no	H	T
646.9257812	n/a	165613	responseLargeH	correct	n/a	0.4375	no	n/a	n/a
647.9960938	n/a	165887	largeHSmallH	correct	congruent	0.36719	no	H	H
648.3632812	n/a	165981	responseLargeH	correct	n/a	0.36719	no	n/a	n/a
649.4335938	n/a	166255	largeHSmallH	correct	congruent	0.38672	no	H	H
649.8203125	n/a	166354	responseLargeH	correct	n/a	0.38672	no	n/a	n/a
650.8867188	n/a	166627	largeHSmallH	correct	congruent	0.4375	no	H	H
651.3242188	n/a	166739	responseLargeH	correct	n/a	0.4375	no	n/a	n/a
652.3945312	n/a	167013	largeTSmallT	correct	congruent	0.33203	no	T	T
652.7265625	n/a	167098	responseLargeT	correct	n/a	0.33203	no	n/a	n/a
653.7929688	n/a	167371	largeTSmallH	correct	incongruent	0.34766	no	T	H
654.140625	n/a	167460	responseLargeT	correct	n/a	0.34766	no	n/a	n/a
655.2070312	n/a	167733	largeHSmallH	correct	congruent	0.75391	no	H	H
655.9609375	n/a	167926	responseLargeH	correct	n/a	0.75391	no	n/a	n/a
657.0195312	n/a	168197	largeHSmallH	correct	congruent	0.54688	no	H	H
657.5664062	n/a	168337	responseLargeH	correct	n/a	0.54688	no	n/a	n/a
658.6328125	n/a	168610	largeHSmallT	correct	incongruent	0.42188	no	H	T
659.0546875	n/a	168718	responseLargeH	correct	n/a	0.42188	no	n/a	n/a
660.1289062	n/a	168993	largeHSmallH	correct	congruent	0.49609	no	H	H
660.625	n/a	169120	responseLargeH	correct	n/a	0.49609	no	n/a	n/a
661.6875	n/a	169392	largeHSmallT	correct	incongruent	0.38672	no	H	T
662.0742188	n/a	169491	responseLargeH	correct	n/a	0.38672	no	n/a	n/a
663.15625	n/a	169768	largeTSmallH	correct	incongruent	0.62109	no	T	H
663.7773438	n/a	169927	responseLargeT	correct	n/a	0.62109	no	n/a	n/a
664.8476562	n/a	170201	largeHSmallT	correct	incongruent	0.47266	no	H	T
665.3203125	n/a	170322	responseLargeH	correct	n/a	0.47266	no	n/a	n/a
666.3945312	n/a	170597	largeTSmallT	correct	congruent	0.48438	no	T	T
666.8789062	n/a	170721	responseLargeT	correct	n/a	0.48438	no	n/a	n/a
667.9414062	n/a	170993	largeHSmallH	correct	congruent	0.4375	no	H	H
668.3789062	n/a	171105	responseLargeH	correct	n/a	0.4375	no	n/a	n/a
669.4609375	n/a	171382	largeHSmallH	correct	congruent	0.38281	no	H	H
669.84375	n/a	171480	responseLargeH	correct	n/a	0.38281	no	n/a	n/a
670.9257812	n/a	171757	largeHSmallH	error	congruent	0.41016	no	H	H
671.3359375	n/a	171862	responseLargeT	error	n/a	0.41016	no	n/a	n/a
672.40625	n/a	172136	largeTSmallT	correct	congruent	0.41016	no	T	T
672.8164062	n/a	172241	responseLargeT	correct	n/a	0.41016	no	n/a	n/a
673.8867188	n/a	172515	largeTSmallT	correct	congruent	0.48047	no	T	T
674.3671875	n/a	172638	responseLargeT	correct	n/a	0.48047	no	n/a	n/a
675.4335938	n/a	172911	largeTSmallT	correct	congruent	0.39453	no	T	T
675.828125	n/a	173012	responseLargeT	correct	n/a	0.39453	no	n/a	n/a
676.9023438	n/a	173287	largeHSmallH	correct	congruent	0.41406	no	H	H
677.3164062	n/a	173393	responseLargeH	correct	n/a	0.41406	no	n/a	n/a
678.3945312	n/a	173669	largeHSmallT	correct	incongruent	0.56641	no	H	T
678.9609375	n/a	173814	responseLargeH	correct	n/a	0.56641	no	n/a	n/a
680.0351562	n/a	174089	largeHSmallH	correct	congruent	0.37109	no	H	H
680.40625	n/a	174184	responseLargeH	correct	n/a	0.37109	no	n/a	n/a
681.4882812	n/a	174461	largeTSmallT	correct	congruent	0.49219	no	T	T
681.9804688	n/a	174587	responseLargeT	correct	n/a	0.49219	no	n/a	n/a
683.0625	n/a	174864	largeTSmallT	correct	congruent	0.42188	no	T	T
683.484375	n/a	174972	responseLargeT	correct	n/a	0.42188	no	n/a	n/a
684.5546875	n/a	175246	largeTSmallH	correct	incongruent	0.41016	no	T	H
684.9648438	n/a	175351	responseLargeT	correct	n/a	0.41016	no	n/a	n/a
686.0351562	n/a	175625	largeTSmallH	correct	incongruent	0.38672	no	T	H
686.421875	n/a	175724	responseLargeT	correct	n/a	0.38672	no	n/a	n/a
687.4882812	n/a	175997	largeTSmallT	correct	congruent	0.375	no	T	T
687.8632812	n/a	176093	responseLargeT	correct	n/a	0.375	no	n/a	n/a
688.9257812	n/a	176365	largeHSmallT	correct	incongruent	0.76562	no	H	T
689.6914062	n/a	176561	responseLargeH	correct	n/a	0.76562	no	n/a	n/a
690.765625	n/a	176836	largeTSmallH	correct	incongruent	0.63672	no	T	H
691.4023438	n/a	176999	responseLargeT	correct	n/a	0.63672	no	n/a	n/a
692.4609375	n/a	177270	largeHSmallT	correct	incongruent	0.43359	no	H	T
692.8945312	n/a	177381	responseLargeH	correct	n/a	0.43359	no	n/a	n/a
693.96875	n/a	177656	largeHSmallH	correct	congruent	0.41016	no	H	H
694.3789062	n/a	177761	responseLargeH	correct	n/a	0.41016	no	n/a	n/a
695.4453125	n/a	178034	largeHSmallH	correct	congruent	0.78516	no	H	H
696.2304688	n/a	178235	responseLargeH	correct	n/a	0.78516	no	n/a	n/a
697.3007812	n/a	178509	largeHSmallT	correct	incongruent	0.41016	no	H	T
697.7109375	n/a	178614	responseLargeH	correct	n/a	0.41016	no	n/a	n/a
698.78125	n/a	178888	largeTSmallT	error	congruent	0.39062	no	T	T
699.171875	n/a	178988	responseLargeH	error	n/a	0.39062	no	n/a	n/a
700.234375	n/a	179260	largeTSmallH	correct	incongruent	0.69141	no	T	H
700.9257812	n/a	179437	responseLargeT	correct	n/a	0.69141	no	n/a	n/a
701.9921875	n/a	179710	largeHSmallH	correct	congruent	0.44141	no	H	H
702.4335938	n/a	179823	responseLargeH	correct	n/a	0.44141	no	n/a	n/a
703.5117188	n/a	180099	largeTSmallH	correct	incongruent	0.42969	no	T	H
703.9414062	n/a	180209	responseLargeT	correct	n/a	0.42969	no	n/a	n/a
705.0078125	n/a	180482	largeTSmallT	correct	congruent	0.40625	no	T	T
705.4140625	n/a	180586	responseLargeT	correct	n/a	0.40625	no	n/a	n/a
706.4882812	n/a	180861	largeTSmallT	correct	congruent	0.47266	no	T	T
706.9609375	n/a	180982	responseLargeT	correct	n/a	0.47266	no	n/a	n/a
708.0351562	n/a	181257	largeTSmallH	correct	incongruent	0.39062	no	T	H
708.4257812	n/a	181357	responseLargeT	correct	n/a	0.39062	no	n/a	n/a
709.5	n/a	181632	largeHSmallH	correct	congruent	0.76562	no	H	H
710.265625	n/a	181828	responseLargeH	correct	n/a	0.76562	no	n/a	n/a
711.328125	n/a	182100	largeHSmallT	correct	incongruent	0.79297	no	H	T
712.1210938	n/a	182303	responseLargeH	correct	n/a	0.79297	no	n/a	n/a
713.2070312	n/a	182581	largeTSmallH	correct	incongruent	0.45312	no	T	H
713.6601562	n/a	182697	responseLargeT	correct	n/a	0.45312	no	n/a	n/a
714.7265625	n/a	182970	largeHSmallH	correct	congruent	0.46094	no	H	H
715.1875	n/a	183088	responseLargeH	correct	n/a	0.46094	no	n/a	n/a
716.2617188	n/a	183363	largeTSmallH	correct	incongruent	0.32422	no	T	H
716.5859375	n/a	183446	responseLargeT	correct	n/a	0.32422	no	n/a	n/a
717.6601562	n/a	183721	largeHSmallH	correct	congruent	0.35938	no	H	H
718.0195312	n/a	183813	responseLargeH	correct	n/a	0.35938	no	n/a	n/a
719.1015625	n/a	184090	largeTSmallT	correct	congruent	0.41797	no	T	T
719.5195312	n/a	184197	responseLargeT	correct	n/a	0.41797	no	n/a	n/a
720.59375	n/a	184472	largeTSmallT	correct	congruent	0.46875	no	T	T
721.0625	n/a	184592	responseLargeT	correct	n/a	0.46875	no	n/a	n/a
722.140625	n/a	184868	largeHSmallT	correct	incongruent	0.41797	no	H	T
722.5585938	n/a	184975	responseLargeH	correct	n/a	0.41797	no	n/a	n/a
723.6328125	n/a	185250	largeTSmallH	correct	incongruent	0.30859	no	T	H
723.9414062	n/a	185329	responseLargeT	correct	n/a	0.30859	no	n/a	n/a
725.0078125	n/a	185602	largeHSmallH	correct	congruent	0.31641	no	H	H
725.3242188	n/a	185683	responseLargeH	correct	n/a	0.31641	no	n/a	n/a
726.3945312	n/a	185957	largeTSmallH	correct	incongruent	0.71484	no	T	H
727.109375	n/a	186140	responseLargeT	correct	n/a	0.71484	no	n/a	n/a
728.1796875	n/a	186414	largeTSmallH	error	incongruent	0.59375	no	T	H
728.7734375	n/a	186566	responseLargeH	error	n/a	0.59375	no	n/a	n/a
729.8476562	n/a	186841	largeHSmallT	correct	incongruent	0.41016	no	H	T
730.2578125	n/a	186946	responseLargeH	correct	n/a	0.41016	no	n/a	n/a
731.3242188	n/a	187219	largeTSmallH	correct	incongruent	0.39844	no	T	H
731.7226562	n/a	187321	responseLargeT	correct	n/a	0.39844	no	n/a	n/a
732.7929688	n/a	187595	largeHSmallH	error	congruent	0.33594	no	H	H
733.1289062	n/a	187681	responseLargeT	error	n/a	0.33594	no	n/a	n/a
734.1914062	n/a	187953	largeHSmallT	correct	incongruent	0.39453	no	H	T
734.5859375	n/a	188054	responseLargeH	correct	n/a	0.39453	no	n/a	n/a
735.6601562	n/a	188329	largeTSmallH	correct	incongruent	0.41797	no	T	H
736.078125	n/a	188436	responseLargeT	correct	n/a	0.41797	no	n/a	n/a
737.140625	n/a	188708	largeHSmallT	correct	incongruent	0.35156	no	H	T
737.4921875	n/a	188798	responseLargeH	correct	n/a	0.35156	no	n/a	n/a
738.5664062	n/a	189073	largeHSmallH	correct	congruent	0.41406	no	H	H
738.9804688	n/a	189179	responseLargeH	correct	n/a	0.41406	no	n/a	n/a
740.046875	n/a	189452	largeTSmallH	correct	incongruent	0.46094	no	T	H
740.5078125	n/a	189570	responseLargeT	correct	n/a	0.46094	no	n/a	n/a
741.578125	n/a	189844	largeHSmallT	correct	incongruent	0.32422	no	H	T
741.9023438	n/a	189927	responseLargeH	correct	n/a	0.32422	no	n/a	n/a
742.9804688	n/a	190203	largeTSmallT	correct	congruent	0.32031	no	T	T
743.3007812	n/a	190285	responseLargeT	correct	n/a	0.32031	no	n/a	n/a
744.3671875	n/a	190558	largeTSmallH	error	incongruent	0.29297	no	T	H
744.6601562	n/a	190633	responseLargeH	error	n/a	0.29297	no	n/a	n/a
745.7265625	n/a	190906	largeTSmallT	correct	congruent	0.44531	no	T	T
746.171875	n/a	191020	responseLargeT	correct	n/a	0.44531	no	n/a	n/a
747.2304688	n/a	191291	largeTSmallT	correct	congruent	0.41797	no	T	T
747.6484375	n/a	191398	responseLargeT	correct	n/a	0.41797	no	n/a	n/a
748.7265625	n/a	191674	largeTSmallH	correct	incongruent	0.44922	no	T	H
749.1757812	n/a	191789	responseLargeT	correct	n/a	0.44922	no	n/a	n/a
750.2460938	n/a	192063	largeHSmallH	correct	congruent	0.41797	no	H	H
750.6640625	n/a	192170	responseLargeH	correct	n/a	0.41797	no	n/a	n/a
751.7382812	n/a	192445	largeTSmallH	correct	incongruent	0.35938	no	T	H
752.0976562	n/a	192537	responseLargeT	correct	n/a	0.35938	no	n/a	n/a
753.1640625	n/a	192810	largeTSmallH	correct	incongruent	0.42578	no	T	H
753.5898438	n/a	192919	responseLargeT	correct	n/a	0.42578	no	n/a	n/a
754.6601562	n/a	193193	largeTSmallT	correct	congruent	0.41406	no	T	T
755.0742188	n/a	193299	responseLargeT	correct	n/a	0.41406	no	n/a	n/a
756.1523438	n/a	193575	largeTSmallT	correct	congruent	0.38672	no	T	T
756.5390625	n/a	193674	responseLargeT	correct	n/a	0.38672	no	n/a	n/a
757.6171875	n/a	193950	largeHSmallH	correct	congruent	0.39453	no	H	H
758.0117188	n/a	194051	responseLargeH	correct	n/a	0.39453	no	n/a	n/a
759.0859375	n/a	194326	largeHSmallH	correct	congruent	0.38672	no	H	H
759.4726562	n/a	194425	responseLargeH	correct	n/a	0.38672	no	n/a	n/a
760.5390625	n/a	194698	largeTSmallT	correct	congruent	0.44922	no	T	T
760.9882812	n/a	194813	responseLargeT	correct	n/a	0.44922	no	n/a	n/a
762.0585938	n/a	195087	largeHSmallT	correct	incongruent	0.41406	no	H	T
762.4726562	n/a	195193	responseLargeH	correct	n/a	0.41406	no	n/a	n/a
763.5390625	n/a	195466	largeTSmallT	correct	congruent	0.40625	no	T	T
763.9453125	n/a	195570	responseLargeT	correct	n/a	0.40625	no	n/a	n/a
765.0195312	n/a	195845	largeTSmallT	correct	congruent	0.48047	no	T	T
765.5	n/a	195968	responseLargeT	correct	n/a	0.48047	no	n/a	n/a
766.5664062	n/a	196241	largeTSmallH	correct	incongruent	0.41016	no	T	H
766.9765625	n/a	196346	responseLargeT	correct	n/a	0.41016	no	n/a	n/a
768.046875	n/a	196620	largeTSmallT	correct	congruent	0.42969	no	T	T
768.4765625	n/a	196730	responseLargeT	correct	n/a	0.42969	no	n/a	n/a
769.5507812	n/a	197005	largeHSmallH	correct	congruent	0.69141	no	H	H
770.2421875	n/a	197182	responseLargeH	correct	n/a	0.69141	no	n/a	n/a
771.3125	n/a	197456	largeHSmallT	correct	incongruent	0.45312	no	H	T
771.765625	n/a	197572	responseLargeH	correct	n/a	0.45312	no	n/a	n/a
772.84375	n/a	197848	largeHSmallH	correct	congruent	0.38672	no	H	H
773.2304688	n/a	197947	responseLargeH	correct	n/a	0.38672	no	n/a	n/a
774.3125	n/a	198224	largeHSmallT	correct	incongruent	0.53906	no	H	T
774.8515625	n/a	198362	responseLargeH	correct	n/a	0.53906	no	n/a	n/a
775.9257812	n/a	198637	largeHSmallT	correct	incongruent	0.30469	no	H	T
776.2304688	n/a	198715	responseLargeH	correct	n/a	0.30469	no	n/a	n/a
777.296875	n/a	198988	largeTSmallT	correct	congruent	0.46875	no	T	T
777.765625	n/a	199108	responseLargeT	correct	n/a	0.46875	no	n/a	n/a
778.84375	n/a	199384	largeTSmallH	error	incongruent	0.3125	no	T	H
779.15625	n/a	199464	responseLargeH	error	n/a	0.3125	no	n/a	n/a
780.2304688	n/a	199739	largeHSmallH	correct	congruent	0.32031	no	H	H
780.5507812	n/a	199821	responseLargeH	correct	n/a	0.32031	no	n/a	n/a
781.6171875	n/a	200094	largeTSmallH	correct	incongruent	0.5	no	T	H
782.1171875	n/a	200222	responseLargeT	correct	n/a	0.5	no	n/a	n/a
783.1796875	n/a	200494	largeTSmallT	correct	congruent	0.42578	no	T	T
783.6054688	n/a	200603	responseLargeT	correct	n/a	0.42578	no	n/a	n/a
784.6835938	n/a	200879	largeTSmallH	correct	incongruent	0.40625	no	T	H
785.0898438	n/a	200983	responseLargeT	correct	n/a	0.40625	no	n/a	n/a
786.1640625	n/a	201258	largeHSmallH	correct	congruent	0.54688	no	H	H
786.7109375	n/a	201398	responseLargeH	correct	n/a	0.54688	no	n/a	n/a
787.7773438	n/a	201671	largeTSmallT	correct	congruent	0.48438	no	T	T
788.2617188	n/a	201795	responseLargeT	correct	n/a	0.48438	no	n/a	n/a
789.3242188	n/a	202067	largeTSmallH	correct	incongruent	0.53906	no	T	H
789.8632812	n/a	202205	responseLargeT	correct	n/a	0.53906	no	n/a	n/a
790.9375	n/a	202480	largeHSmallT	correct	incongruent	0.46094	no	H	T
791.3984375	n/a	202598	responseLargeH	correct	n/a	0.46094	no	n/a	n/a
792.4570312	n/a	202869	largeTSmallH	correct	incongruent	0.49609	no	T	H
792.953125	n/a	202996	responseLargeT	correct	n/a	0.49609	no	n/a	n/a
794.0195312	n/a	203269	largeTSmallH	correct	incongruent	0.46484	no	T	H
794.484375	n/a	203388	responseLargeT	correct	n/a	0.46484	no	n/a	n/a
795.5507812	n/a	203661	largeHSmallT	correct	incongruent	0.44141	no	H	T
795.9921875	n/a	203774	responseLargeH	correct	n/a	0.44141	no	n/a	n/a
797.0703125	n/a	204050	largeHSmallH	correct	congruent	0.42969	no	H	H
797.5	n/a	204160	responseLargeH	correct	n/a	0.42969	no	n/a	n/a
798.578125	n/a	204436	largeHSmallH	correct	congruent	0.39844	no	H	H
798.9765625	n/a	204538	responseLargeH	correct	n/a	0.39844	no	n/a	n/a
800.0429688	n/a	204811	largeTSmallT	correct	congruent	0.48047	no	T	T
800.5234375	n/a	204934	responseLargeT	correct	n/a	0.48047	no	n/a	n/a
801.5898438	n/a	205207	largeTSmallT	correct	congruent	0.44531	no	T	T
802.0351562	n/a	205321	responseLargeT	correct	n/a	0.44531	no	n/a	n/a
803.0976562	n/a	205593	largeHSmallT	correct	incongruent	0.44922	no	H	T
803.546875	n/a	205708	responseLargeH	correct	n/a	0.44922	no	n/a	n/a
804.6171875	n/a	205982	largeTSmallH	correct	incongruent	0.47656	no	T	H
805.09375	n/a	206104	responseLargeT	correct	n/a	0.47656	no	n/a	n/a
806.1640625	n/a	206378	largeHSmallT	correct	incongruent	0.42578	no	H	T
806.5898438	n/a	206487	responseLargeH	correct	n/a	0.42578	no	n/a	n/a
807.65625	n/a	206760	largeTSmallH	correct	incongruent	0.35938	no	T	H
808.015625	n/a	206852	responseLargeT	correct	n/a	0.35938	no	n/a	n/a
809.0976562	n/a	207129	largeTSmallH	correct	incongruent	0.32812	no	T	H
809.4257812	n/a	207213	responseLargeT	correct	n/a	0.32812	no	n/a	n/a
810.4960938	n/a	207487	largeHSmallT	correct	incongruent	0.33984	no	H	T
810.8359375	n/a	207574	responseLargeH	correct	n/a	0.33984	no	n/a	n/a
811.8984375	n/a	207846	largeTSmallH	correct	incongruent	0.38672	no	T	H
812.2851562	n/a	207945	responseLargeT	correct	n/a	0.38672	no	n/a	n/a
813.3515625	n/a	208218	largeTSmallH	correct	incongruent	0.375	no	T	H
813.7265625	n/a	208314	responseLargeT	correct	n/a	0.375	no	n/a	n/a
814.8046875	n/a	208590	largeHSmallH	correct	congruent	0.44531	no	H	H
815.25	n/a	208704	responseLargeH	correct	n/a	0.44531	no	n/a	n/a
816.3125	n/a	208976	largeHSmallH	error	congruent	0.33984	no	H	H
816.6523438	n/a	209063	responseLargeT	error	n/a	0.33984	no	n/a	n/a
817.7226562	n/a	209337	largeTSmallT	correct	congruent	0.38281	no	T	T
818.1054688	n/a	209435	responseLargeT	correct	n/a	0.38281	no	n/a	n/a
819.1914062	n/a	209713	largeTSmallT	correct	congruent	0.42969	no	T	T
819.6210938	n/a	209823	responseLargeT	correct	n/a	0.42969	no	n/a	n/a
820.6953125	n/a	210098	largeTSmallT	correct	congruent	0.39062	no	T	T
821.0859375	n/a	210198	responseLargeT	correct	n/a	0.39062	no	n/a	n/a
822.1484375	n/a	210470	largeHSmallH	correct	congruent	0.46484	no	H	H
822.6132812	n/a	210589	responseLargeH	correct	n/a	0.46484	no	n/a	n/a
823.6835938	n/a	210863	largeTSmallH	correct	incongruent	0.43359	no	T	H
824.1171875	n/a	210974	responseLargeT	correct	n/a	0.43359	no	n/a	n/a
825.1914062	n/a	211249	largeHSmallH	correct	congruent	0.44141	no	H	H
825.6328125	n/a	211362	responseLargeH	correct	n/a	0.44141	no	n/a	n/a
826.6953125	n/a	211634	largeTSmallH	error	incongruent	0.41797	no	T	H
827.1132812	n/a	211741	responseLargeH	error	n/a	0.41797	no	n/a	n/a
828.1914062	n/a	212017	largeTSmallT	correct	congruent	0.36328	no	T	T
828.5546875	n/a	212110	responseLargeT	correct	n/a	0.36328	no	n/a	n/a
829.6171875	n/a	212382	largeTSmallT	correct	congruent	0.39062	no	T	T
830.0078125	n/a	212482	responseLargeT	correct	n/a	0.39062	no	n/a	n/a
831.0703125	n/a	212754	largeTSmallT	correct	congruent	0.64062	no	T	T
831.7109375	n/a	212918	responseLargeT	correct	n/a	0.64062	no	n/a	n/a
832.7890625	n/a	213194	largeHSmallT	correct	incongruent	0.45312	no	H	T
833.2421875	n/a	213310	responseLargeH	correct	n/a	0.45312	no	n/a	n/a
834.3242188	n/a	213587	largeTSmallH	correct	incongruent	0.36328	no	T	H
834.6875	n/a	213680	responseLargeT	correct	n/a	0.36328	no	n/a	n/a
835.75	n/a	213952	largeTSmallT	correct	congruent	0.38281	no	T	T
836.1328125	n/a	214050	responseLargeT	correct	n/a	0.38281	no	n/a	n/a
837.203125	n/a	214324	largeHSmallT	correct	incongruent	0.45312	no	H	T
837.65625	n/a	214440	responseLargeH	correct	n/a	0.45312	no	n/a	n/a
838.7382812	n/a	214717	largeTSmallH	correct	incongruent	0.3125	no	T	H
839.0507812	n/a	214797	responseLargeT	correct	n/a	0.3125	no	n/a	n/a
840.125	n/a	215072	largeTSmallT	correct	congruent	0.39453	no	T	T
840.5195312	n/a	215173	responseLargeT	correct	n/a	0.39453	no	n/a	n/a
841.5898438	n/a	215447	largeTSmallH	correct	incongruent	0.36719	no	T	H
841.9570312	n/a	215541	responseLargeT	correct	n/a	0.36719	no	n/a	n/a
843.03125	n/a	215816	largeHSmallH	error	congruent	0.38672	no	H	H
843.4179688	n/a	215915	responseLargeT	error	n/a	0.38672	no	n/a	n/a
844.484375	n/a	216188	largeHSmallH	correct	congruent	0.50781	no	H	H
844.9921875	n/a	216318	responseLargeH	correct	n/a	0.50781	no	n/a	n/a
846.0703125	n/a	216594	largeTSmallT	correct	congruent	0.40234	no	T	T
846.4726562	n/a	216697	responseLargeT	correct	n/a	0.40234	no	n/a	n/a
847.5507812	n/a	216973	largeTSmallT	correct	congruent	0.4375	no	T	T
847.9882812	n/a	217085	responseLargeT	correct	n/a	0.4375	no	n/a	n/a
849.0546875	n/a	217358	largeHSmallH	correct	congruent	0.43359	no	H	H
849.4882812	n/a	217469	responseLargeH	correct	n/a	0.43359	no	n/a	n/a
850.5625	n/a	217744	largeHSmallH	error	congruent	0.29297	no	H	H
850.8554688	n/a	217819	responseLargeT	error	n/a	0.29297	no	n/a	n/a
851.9375	n/a	218096	largeTSmallT	correct	congruent	0.42578	no	T	T
852.3632812	n/a	218205	responseLargeT	correct	n/a	0.42578	no	n/a	n/a
853.4296875	n/a	218478	largeTSmallH	correct	incongruent	0.43359	no	T	H
853.8632812	n/a	218589	responseLargeT	correct	n/a	0.43359	no	n/a	n/a
854.9375	n/a	218864	largeHSmallT	correct	incongruent	0.46875	no	H	T
855.40625	n/a	218984	responseLargeH	correct	n/a	0.46875	no	n/a	n/a
856.484375	n/a	219260	largeHSmallT	correct	incongruent	0.44922	no	H	T
856.9335938	n/a	219375	responseLargeH	correct	n/a	0.44922	no	n/a	n/a
858.0039062	n/a	219649	largeHSmallH	correct	congruent	0.42188	no	H	H
858.4257812	n/a	219757	responseLargeH	correct	n/a	0.42188	no	n/a	n/a
859.4960938	n/a	220031	largeHSmallT	correct	incongruent	0.37109	no	H	T
859.8671875	n/a	220126	responseLargeH	correct	n/a	0.37109	no	n/a	n/a
860.921875	n/a	220396	largeHSmallT	error	incongruent	0.41016	no	H	T
861.3320312	n/a	220501	responseLargeT	error	n/a	0.41016	no	n/a	n/a
862.4023438	n/a	220775	largeHSmallT	correct	incongruent	0.48438	no	H	T
862.8867188	n/a	220899	responseLargeH	correct	n/a	0.48438	no	n/a	n/a
863.9609375	n/a	221174	largeTSmallT	correct	congruent	0.39453	no	T	T
864.3554688	n/a	221275	responseLargeT	correct	n/a	0.39453	no	n/a	n/a
865.4296875	n/a	221550	largeHSmallT	correct	incongruent	0.38672	no	H	T
865.8164062	n/a	221649	responseLargeH	correct	n/a	0.38672	no	n/a	n/a
866.8945312	n/a	221925	largeHSmallH	correct	congruent	0.43359	no	H	H
867.328125	n/a	222036	responseLargeH	correct	n/a	0.43359	no	n/a	n/a
868.4023438	n/a	222311	largeHSmallT	correct	incongruent	0.37891	no	H	T
868.78125	n/a	222408	responseLargeH	correct	n/a	0.37891	no	n/a	n/a
869.8554688	n/a	222683	largeHSmallT	correct	incongruent	0.38672	no	H	T
870.2421875	n/a	222782	responseLargeH	correct	n/a	0.38672	no	n/a	n/a
871.3242188	n/a	223059	largeTSmallT	correct	congruent	0.47266	no	T	T
871.796875	n/a	223180	responseLargeT	correct	n/a	0.47266	no	n/a	n/a
872.8710938	n/a	223455	largeHSmallT	correct	incongruent	0.33203	no	H	T
873.203125	n/a	223540	responseLargeH	correct	n/a	0.33203	no	n/a	n/a
874.2695312	n/a	223813	largeHSmallH	correct	congruent	0.42188	no	H	H
874.6914062	n/a	223921	responseLargeH	correct	n/a	0.42188	no	n/a	n/a
875.7617188	n/a	224195	largeHSmallH	correct	congruent	0.50391	no	H	H
876.265625	n/a	224324	responseLargeH	correct	n/a	0.50391	no	n/a	n/a
877.3359375	n/a	224598	largeHSmallT	correct	incongruent	0.41406	no	H	T
877.75	n/a	224704	responseLargeH	correct	n/a	0.41406	no	n/a	n/a
878.828125	n/a	224980	largeTSmallT	correct	congruent	0.47266	no	T	T
879.3007812	n/a	225101	responseLargeT	correct	n/a	0.47266	no	n/a	n/a
880.3632812	n/a	225373	largeHSmallT	correct	incongruent	0.35938	no	H	T
880.7226562	n/a	225465	responseLargeH	correct	n/a	0.35938	no	n/a	n/a
881.7890625	n/a	225738	largeHSmallT	correct	incongruent	0.44141	no	H	T
882.2304688	n/a	225851	responseLargeH	correct	n/a	0.44141	no	n/a	n/a
883.3085938	n/a	226127	largeHSmallT	correct	incongruent	0.38281	no	H	T
883.6914062	n/a	226225	responseLargeH	correct	n/a	0.38281	no	n/a	n/a
884.7617188	n/a	226499	largeTSmallT	correct	congruent	0.46094	no	T	T
885.2226562	n/a	226617	responseLargeT	correct	n/a	0.46094	no	n/a	n/a
886.296875	n/a	226892	largeTSmallH	correct	incongruent	0.51172	no	T	H
886.8085938	n/a	227023	responseLargeT	correct	n/a	0.51172	no	n/a	n/a
887.8671875	n/a	227294	largeHSmallT	correct	incongruent	0.35938	no	H	T
888.2265625	n/a	227386	responseLargeH	correct	n/a	0.35938	no	n/a	n/a
889.296875	n/a	227660	largeTSmallT	correct	congruent	0.51562	no	T	T
889.8125	n/a	227792	responseLargeT	correct	n/a	0.51562	no	n/a	n/a
890.8828125	n/a	228066	largeTSmallH	correct	incongruent	0.44922	no	T	H
891.3320312	n/a	228181	responseLargeT	correct	n/a	0.44922	no	n/a	n/a
892.4140625	n/a	228458	largeHSmallH	correct	congruent	0.41406	no	H	H
892.828125	n/a	228564	responseLargeH	correct	n/a	0.41406	no	n/a	n/a
893.8945312	n/a	228837	largeHSmallT	correct	incongruent	0.4375	no	H	T
894.3320312	n/a	228949	responseLargeH	correct	n/a	0.4375	no	n/a	n/a
895.4023438	n/a	229223	largeHSmallH	correct	congruent	0.375	no	H	H
895.7773438	n/a	229319	responseLargeH	correct	n/a	0.375	no	n/a	n/a
896.84375	n/a	229592	largeTSmallH	correct	incongruent	0.64453	no	T	H
897.4882812	n/a	229757	responseLargeT	correct	n/a	0.64453	no	n/a	n/a
898.5625	n/a	230032	largeTSmallH	correct	incongruent	0.64453	no	T	H
899.2070312	n/a	230197	responseLargeT	correct	n/a	0.64453	no	n/a	n/a
900.28125	n/a	230472	largeHSmallT	error	incongruent	0.53516	no	H	T
900.8164062	n/a	230609	responseLargeT	error	n/a	0.53516	no	n/a	n/a
901.8945312	n/a	230885	largeHSmallT	correct	incongruent	0.63281	no	H	T
902.5273438	n/a	231047	responseLargeH	correct	n/a	0.63281	no	n/a	n/a
903.6015625	n/a	231322	largeHSmallH	correct	congruent	0.41016	no	H	H
904.0117188	n/a	231427	responseLargeH	correct	n/a	0.41016	no	n/a	n/a
905.0820312	n/a	231701	largeTSmallT	correct	congruent	0.69922	no	T	T
905.78125	n/a	231880	responseLargeT	correct	n/a	0.69922	no	n/a	n/a
906.8554688	n/a	232155	largeHSmallT	correct	incongruent	0.51953	no	H	T
907.375	n/a	232288	responseLargeH	correct	n/a	0.51953	no	n/a	n/a
908.453125	n/a	232564	largeHSmallT	error	incongruent	0.46875	no	H	T
908.921875	n/a	232684	responseLargeT	error	n/a	0.46875	no	n/a	n/a
909.9882812	n/a	232957	largeTSmallH	correct	incongruent	0.35156	no	T	H
910.3398438	n/a	233047	responseLargeT	correct	n/a	0.35156	no	n/a	n/a
911.4140625	n/a	233322	largeTSmallT	correct	congruent	0.46484	no	T	T
911.8789062	n/a	233441	responseLargeT	correct	n/a	0.46484	no	n/a	n/a
912.9609375	n/a	233718	largeHSmallH	correct	congruent	0.41797	no	H	H
913.3789062	n/a	233825	responseLargeH	correct	n/a	0.41797	no	n/a	n/a
914.453125	n/a	234100	largeTSmallT	correct	congruent	0.42969	no	T	T
914.8828125	n/a	234210	responseLargeT	correct	n/a	0.42969	no	n/a	n/a
915.9492188	n/a	234483	largeTSmallT	correct	congruent	0.44141	no	T	T
916.390625	n/a	234596	responseLargeT	correct	n/a	0.44141	no	n/a	n/a
917.46875	n/a	234872	largeTSmallT	correct	congruent	0.43359	no	T	T
917.9023438	n/a	234983	responseLargeT	correct	n/a	0.43359	no	n/a	n/a
918.9726562	n/a	235257	largeHSmallT	correct	incongruent	0.49609	no	H	T
919.46875	n/a	235384	responseLargeH	correct	n/a	0.49609	no	n/a	n/a
920.5351562	n/a	235657	largeHSmallT	correct	incongruent	0.50391	no	H	T
921.0390625	n/a	235786	responseLargeH	correct	n/a	0.50391	no	n/a	n/a
922.1210938	n/a	236063	largeTSmallT	correct	congruent	0.5	no	T	T
922.6210938	n/a	236191	responseLargeT	correct	n/a	0.5	no	n/a	n/a
923.6953125	n/a	236466	largeHSmallT	correct	incongruent	0.60547	no	H	T
924.3007812	n/a	236621	responseLargeH	correct	n/a	0.60547	no	n/a	n/a
925.375	n/a	236896	largeHSmallH	correct	congruent	0.51172	no	H	H
925.8867188	n/a	237027	responseLargeH	correct	n/a	0.51172	no	n/a	n/a
926.9726562	n/a	237305	largeHSmallH	correct	congruent	0.82812	no	H	H
927.8007812	n/a	237517	responseLargeH	correct	n/a	0.82812	no	n/a	n/a
928.8671875	n/a	237790	largeHSmallT	correct	incongruent	0.78906	no	H	T
929.65625	n/a	237992	responseLargeH	correct	n/a	0.78906	no	n/a	n/a
930.7226562	n/a	238265	largeTSmallH	correct	incongruent	0.47266	no	T	H
931.1953125	n/a	238386	responseLargeT	correct	n/a	0.47266	no	n/a	n/a
932.2695312	n/a	238661	largeTSmallH	correct	incongruent	0.44922	no	T	H
932.71875	n/a	238776	responseLargeT	correct	n/a	0.44922	no	n/a	n/a
933.7890625	n/a	239050	largeHSmallT	correct	incongruent	0.45703	no	H	T
934.2460938	n/a	239167	responseLargeH	correct	n/a	0.45703	no	n/a	n/a
935.3085938	n/a	239439	largeTSmallH	correct	incongruent	0.43359	no	T	H
935.7421875	n/a	239550	responseLargeT	correct	n/a	0.43359	no	n/a	n/a
936.8125	n/a	239824	largeTSmallH	correct	incongruent	0.42578	no	T	H
937.2382812	n/a	239933	responseLargeT	correct	n/a	0.42578	no	n/a	n/a
938.3085938	n/a	240207	largeHSmallH	correct	congruent	0.41797	no	H	H
938.7265625	n/a	240314	responseLargeH	correct	n/a	0.41797	no	n/a	n/a
940.8398438	n/a	240855	largeTSmallH	error	incongruent	0.46094	no	T	H
941.3007812	n/a	240973	responseSmallT	error	n/a	0.46094	no	n/a	n/a
942.359375	n/a	241244	largeTSmallH	correct	incongruent	0.44922	no	T	H
942.8085938	n/a	241359	responseSmallH	correct	n/a	0.44922	no	n/a	n/a
943.8789062	n/a	241633	largeHSmallH	correct	congruent	0.4375	no	H	H
944.3164062	n/a	241745	responseSmallH	correct	n/a	0.4375	no	n/a	n/a
945.3867188	n/a	242019	largeTSmallH	correct	incongruent	0.38281	no	T	H
945.7695312	n/a	242117	responseSmallH	correct	n/a	0.38281	no	n/a	n/a
946.8398438	n/a	242391	largeHSmallH	correct	congruent	0.42188	no	H	H
947.2617188	n/a	242499	responseSmallH	correct	n/a	0.42188	no	n/a	n/a
948.3359375	n/a	242774	largeHSmallH	correct	congruent	0.39062	no	H	H
948.7265625	n/a	242874	responseSmallH	correct	n/a	0.39062	no	n/a	n/a
949.8007812	n/a	243149	largeHSmallH	correct	congruent	0.42969	no	H	H
950.2304688	n/a	243259	responseSmallH	correct	n/a	0.42969	no	n/a	n/a
951.3085938	n/a	243535	largeTSmallH	correct	incongruent	0.45703	no	T	H
951.765625	n/a	243652	responseSmallH	correct	n/a	0.45703	no	n/a	n/a
952.828125	n/a	243924	largeTSmallH	correct	incongruent	0.39453	no	T	H
953.2226562	n/a	244025	responseSmallH	correct	n/a	0.39453	no	n/a	n/a
954.2929688	n/a	244299	largeHSmallT	correct	incongruent	0.41406	no	H	T
954.7070312	n/a	244405	responseSmallT	correct	n/a	0.41406	no	n/a	n/a
955.7851562	n/a	244681	largeHSmallH	correct	congruent	0.42578	no	H	H
956.2109375	n/a	244790	responseSmallH	correct	n/a	0.42578	no	n/a	n/a
957.28125	n/a	245064	largeHSmallH	correct	congruent	0.39453	no	H	H
957.6757812	n/a	245165	responseSmallH	correct	n/a	0.39453	no	n/a	n/a
958.7460938	n/a	245439	largeTSmallH	correct	incongruent	0.41797	no	T	H
959.1640625	n/a	245546	responseSmallH	correct	n/a	0.41797	no	n/a	n/a
960.2265625	n/a	245818	largeTSmallT	correct	congruent	0.52734	no	T	T
960.7539062	n/a	245953	responseSmallT	correct	n/a	0.52734	no	n/a	n/a
961.828125	n/a	246228	largeHSmallT	correct	incongruent	0.46094	no	H	T
962.2890625	n/a	246346	responseSmallT	correct	n/a	0.46094	no	n/a	n/a
963.359375	n/a	246620	largeHSmallH	correct	congruent	0.41016	no	H	H
963.7695312	n/a	246725	responseSmallH	correct	n/a	0.41016	no	n/a	n/a
964.8398438	n/a	246999	largeTSmallT	correct	congruent	0.39062	no	T	T
965.2304688	n/a	247099	responseSmallT	correct	n/a	0.39062	no	n/a	n/a
966.3085938	n/a	247375	largeHSmallH	correct	congruent	0.38281	no	H	H
966.6914062	n/a	247473	responseSmallH	correct	n/a	0.38281	no	n/a	n/a
967.7617188	n/a	247747	largeTSmallH	error	incongruent	0.42969	no	T	H
968.1914062	n/a	247857	responseSmallT	error	n/a	0.42969	no	n/a	n/a
969.2539062	n/a	248129	largeTSmallH	correct	incongruent	0.41016	no	T	H
969.6640625	n/a	248234	responseSmallH	correct	n/a	0.41016	no	n/a	n/a
970.734375	n/a	248508	largeHSmallT	correct	incongruent	0.57812	no	H	T
971.3125	n/a	248656	responseSmallT	correct	n/a	0.57812	no	n/a	n/a
972.375	n/a	248928	largeHSmallH	correct	congruent	0.41016	no	H	H
972.7851562	n/a	249033	responseSmallH	correct	n/a	0.41016	no	n/a	n/a
973.8671875	n/a	249310	largeHSmallH	correct	congruent	0.44922	no	H	H
974.3164062	n/a	249425	responseSmallH	correct	n/a	0.44922	no	n/a	n/a
975.3867188	n/a	249699	largeTSmallT	correct	congruent	0.45312	no	T	T
975.8398438	n/a	249815	responseSmallT	correct	n/a	0.45312	no	n/a	n/a
976.9179688	n/a	250091	largeTSmallH	correct	incongruent	0.85547	no	T	H
977.7734375	n/a	250310	responseSmallH	correct	n/a	0.85547	no	n/a	n/a
978.8515625	n/a	250586	largeTSmallH	correct	incongruent	0.42969	no	T	H
979.28125	n/a	250696	responseSmallH	correct	n/a	0.42969	no	n/a	n/a
980.3476562	n/a	250969	largeHSmallT	correct	incongruent	0.42188	no	H	T
980.7695312	n/a	251077	responseSmallT	correct	n/a	0.42188	no	n/a	n/a
981.828125	n/a	251348	largeHSmallT	correct	incongruent	0.48438	no	H	T
982.3125	n/a	251472	responseSmallT	correct	n/a	0.48438	no	n/a	n/a
983.3710938	n/a	251743	largeTSmallT	correct	congruent	0.42969	no	T	T
983.8007812	n/a	251853	responseSmallT	correct	n/a	0.42969	no	n/a	n/a
984.8789062	n/a	252129	largeHSmallH	correct	congruent	0.38281	no	H	H
985.2617188	n/a	252227	responseSmallH	correct	n/a	0.38281	no	n/a	n/a
986.3476562	n/a	252505	largeHSmallT	correct	incongruent	0.70312	no	H	T
987.0507812	n/a	252685	responseSmallT	correct	n/a	0.70312	no	n/a	n/a
988.1210938	n/a	252959	largeTSmallT	correct	congruent	0.41797	no	T	T
988.5390625	n/a	253066	responseSmallT	correct	n/a	0.41797	no	n/a	n/a
989.6132812	n/a	253341	largeHSmallH	correct	congruent	0.36719	no	H	H
989.9804688	n/a	253435	responseSmallH	correct	n/a	0.36719	no	n/a	n/a
991.0507812	n/a	253709	largeTSmallH	correct	incongruent	0.44141	no	T	H
991.4921875	n/a	253822	responseSmallH	correct	n/a	0.44141	no	n/a	n/a
992.5742188	n/a	254099	largeTSmallH	correct	incongruent	0.45703	no	T	H
993.03125	n/a	254216	responseSmallH	correct	n/a	0.45703	no	n/a	n/a
994.1054688	n/a	254491	largeTSmallH	correct	incongruent	0.35547	no	T	H
994.4609375	n/a	254582	responseSmallH	correct	n/a	0.35547	no	n/a	n/a
995.53125	n/a	254856	largeTSmallH	correct	incongruent	0.40625	no	T	H
995.9375	n/a	254960	responseSmallH	correct	n/a	0.40625	no	n/a	n/a
997.0117188	n/a	255235	largeTSmallH	correct	incongruent	0.42578	no	T	H
997.4375	n/a	255344	responseSmallH	correct	n/a	0.42578	no	n/a	n/a
998.5078125	n/a	255618	largeHSmallT	correct	incongruent	0.44141	no	H	T
998.9492188	n/a	255731	responseSmallT	correct	n/a	0.44141	no	n/a	n/a
1000.027344	n/a	256007	largeTSmallT	correct	congruent	0.43359	no	T	T
1000.460938	n/a	256118	responseSmallT	correct	n/a	0.43359	no	n/a	n/a
1001.53125	n/a	256392	largeHSmallT	correct	incongruent	0.48438	no	H	T
1002.015625	n/a	256516	responseSmallT	correct	n/a	0.48438	no	n/a	n/a
1003.078125	n/a	256788	largeHSmallH	error	congruent	0.44141	no	H	H
1003.519531	n/a	256901	responseSmallT	error	n/a	0.44141	no	n/a	n/a
1004.597656	n/a	257177	largeHSmallH	correct	congruent	0.62891	no	H	H
1005.226562	n/a	257338	responseSmallH	correct	n/a	0.62891	no	n/a	n/a
1006.292969	n/a	257611	largeHSmallT	correct	incongruent	0.43359	no	H	T
1006.726562	n/a	257722	responseSmallT	correct	n/a	0.43359	no	n/a	n/a
1007.785156	n/a	257993	largeTSmallH	correct	incongruent	0.42188	no	T	H
1008.207031	n/a	258101	responseSmallH	correct	n/a	0.42188	no	n/a	n/a
1009.265625	n/a	258372	largeHSmallT	correct	incongruent	0.55078	no	H	T
1009.816406	n/a	258513	responseSmallT	correct	n/a	0.55078	no	n/a	n/a
1010.878906	n/a	258785	largeTSmallH	correct	incongruent	0.51953	no	T	H
1011.398438	n/a	258918	responseSmallH	correct	n/a	0.51953	no	n/a	n/a
1012.464844	n/a	259191	largeHSmallH	correct	congruent	0.53516	no	H	H
1013	n/a	259328	responseSmallH	correct	n/a	0.53516	no	n/a	n/a
1014.078125	n/a	259604	largeHSmallH	correct	congruent	0.89453	no	H	H
1014.972656	n/a	259833	responseSmallH	correct	n/a	0.89453	no	n/a	n/a
1016.039062	n/a	260106	largeHSmallH	correct	congruent	0.42969	no	H	H
1016.46875	n/a	260216	responseSmallH	correct	n/a	0.42969	no	n/a	n/a
1017.546875	n/a	260492	largeTSmallH	correct	incongruent	0.40234	no	T	H
1017.949219	n/a	260595	responseSmallH	correct	n/a	0.40234	no	n/a	n/a
1019.023438	n/a	260870	largeHSmallH	correct	congruent	0.35938	no	H	H
1019.382812	n/a	260962	responseSmallH	correct	n/a	0.35938	no	n/a	n/a
1020.453125	n/a	261236	largeHSmallT	error	incongruent	0.36719	no	H	T
1020.820312	n/a	261330	responseSmallH	error	n/a	0.36719	no	n/a	n/a
1021.890625	n/a	261604	largeTSmallT	correct	congruent	0.45312	no	T	T
1022.34375	n/a	261720	responseSmallT	correct	n/a	0.45312	no	n/a	n/a
1023.410156	n/a	261993	largeTSmallH	correct	incongruent	0.40234	no	T	H
1023.8125	n/a	262096	responseSmallH	correct	n/a	0.40234	no	n/a	n/a
1024.890625	n/a	262372	largeHSmallT	correct	incongruent	0.66016	no	H	T
1025.550781	n/a	262541	responseSmallT	correct	n/a	0.66016	no	n/a	n/a
1026.625	n/a	262816	largeTSmallH	correct	incongruent	0.58984	no	T	H
1027.214844	n/a	262967	responseSmallH	correct	n/a	0.58984	no	n/a	n/a
1028.292969	n/a	263243	largeHSmallT	correct	incongruent	0.64453	no	H	T
1028.9375	n/a	263408	responseSmallT	correct	n/a	0.64453	no	n/a	n/a
1030	n/a	263680	largeTSmallH	correct	incongruent	0.38672	no	T	H
1030.386719	n/a	263779	responseSmallH	correct	n/a	0.38672	no	n/a	n/a
1031.453125	n/a	264052	largeTSmallT	correct	congruent	0.4375	no	T	T
1031.890625	n/a	264164	responseSmallT	correct	n/a	0.4375	no	n/a	n/a
1032.972656	n/a	264441	largeHSmallT	error	incongruent	0.42969	no	H	T
1033.402344	n/a	264551	responseSmallH	error	n/a	0.42969	no	n/a	n/a
1034.476562	n/a	264826	largeTSmallH	correct	incongruent	0.33984	no	T	H
1034.816406	n/a	264913	responseSmallH	correct	n/a	0.33984	no	n/a	n/a
1035.890625	n/a	265188	largeHSmallT	correct	incongruent	0.60938	no	H	T
1036.5	n/a	265344	responseSmallT	correct	n/a	0.60938	no	n/a	n/a
1037.570312	n/a	265618	largeTSmallT	correct	congruent	0.70312	no	T	T
1038.273438	n/a	265798	responseSmallT	correct	n/a	0.70312	no	n/a	n/a
1039.34375	n/a	266072	largeTSmallH	error	incongruent	0.34766	no	T	H
1039.691406	n/a	266161	responseSmallT	error	n/a	0.34766	no	n/a	n/a
1040.769531	n/a	266437	largeTSmallT	correct	congruent	0.62109	no	T	T
1041.390625	n/a	266596	responseSmallT	correct	n/a	0.62109	no	n/a	n/a
1042.464844	n/a	266871	largeTSmallT	correct	congruent	0.47656	no	T	T
1042.941406	n/a	266993	responseSmallT	correct	n/a	0.47656	no	n/a	n/a
1044.011719	n/a	267267	largeTSmallH	correct	incongruent	0.41016	no	T	H
1044.421875	n/a	267372	responseSmallH	correct	n/a	0.41016	no	n/a	n/a
1045.492188	n/a	267646	largeTSmallT	correct	congruent	0.44922	no	T	T
1045.941406	n/a	267761	responseSmallT	correct	n/a	0.44922	no	n/a	n/a
1047.011719	n/a	268035	largeTSmallT	correct	congruent	0.48047	no	T	T
1047.492188	n/a	268158	responseSmallT	correct	n/a	0.48047	no	n/a	n/a
1048.570312	n/a	268434	largeTSmallT	correct	congruent	0.42578	no	T	T
1048.996094	n/a	268543	responseSmallT	correct	n/a	0.42578	no	n/a	n/a
1050.066406	n/a	268817	largeTSmallT	correct	congruent	0.44922	no	T	T
1050.515625	n/a	268932	responseSmallT	correct	n/a	0.44922	no	n/a	n/a
1051.585938	n/a	269206	largeTSmallT	error	congruent	0.35938	no	T	T
1051.945312	n/a	269298	responseSmallH	error	n/a	0.35938	no	n/a	n/a
1053.011719	n/a	269571	largeTSmallH	correct	incongruent	0.38672	no	T	H
1053.398438	n/a	269670	responseSmallH	correct	n/a	0.38672	no	n/a	n/a
1054.464844	n/a	269943	largeHSmallH	correct	congruent	0.44922	no	H	H
1054.914062	n/a	270058	responseSmallH	correct	n/a	0.44922	no	n/a	n/a
1055.984375	n/a	270332	largeTSmallT	correct	congruent	0.40625	no	T	T
1056.390625	n/a	270436	responseSmallT	correct	n/a	0.40625	no	n/a	n/a
1057.464844	n/a	270711	largeTSmallH	correct	incongruent	0.38672	no	T	H
1057.851562	n/a	270810	responseSmallH	correct	n/a	0.38672	no	n/a	n/a
1058.929688	n/a	271086	largeTSmallT	correct	congruent	0.37109	no	T	T
1059.300781	n/a	271181	responseSmallT	correct	n/a	0.37109	no	n/a	n/a
1060.371094	n/a	271455	largeHSmallH	correct	congruent	0.40625	no	H	H
1060.777344	n/a	271559	responseSmallH	correct	n/a	0.40625	no	n/a	n/a
1061.851562	n/a	271834	largeTSmallH	correct	incongruent	0.45312	no	T	H
1062.304688	n/a	271950	responseSmallH	correct	n/a	0.45312	no	n/a	n/a
1063.371094	n/a	272223	largeTSmallT	correct	congruent	0.46094	no	T	T
1063.832031	n/a	272341	responseSmallT	correct	n/a	0.46094	no	n/a	n/a
1064.902344	n/a	272615	largeHSmallT	correct	incongruent	0.57031	no	H	T
1065.472656	n/a	272761	responseSmallT	correct	n/a	0.57031	no	n/a	n/a
1066.542969	n/a	273035	largeHSmallT	correct	incongruent	0.48828	no	H	T
1067.03125	n/a	273160	responseSmallT	correct	n/a	0.48828	no	n/a	n/a
1068.105469	n/a	273435	largeHSmallT	correct	incongruent	0.43359	no	H	T
1068.539062	n/a	273546	responseSmallT	correct	n/a	0.43359	no	n/a	n/a
1069.609375	n/a	273820	largeHSmallH	correct	congruent	0.46484	no	H	H
1070.074219	n/a	273939	responseSmallH	correct	n/a	0.46484	no	n/a	n/a
1071.144531	n/a	274213	largeTSmallH	correct	incongruent	0.50781	no	T	H
1071.652344	n/a	274343	responseSmallH	correct	n/a	0.50781	no	n/a	n/a
1072.71875	n/a	274616	largeHSmallT	correct	incongruent	0.39844	no	H	T
1073.117188	n/a	274718	responseSmallT	correct	n/a	0.39844	no	n/a	n/a
1074.183594	n/a	274991	largeTSmallT	correct	congruent	0.42578	no	T	T
1074.609375	n/a	275100	responseSmallT	correct	n/a	0.42578	no	n/a	n/a
1075.675781	n/a	275373	largeTSmallT	correct	congruent	0.44141	no	T	T
1076.117188	n/a	275486	responseSmallT	correct	n/a	0.44141	no	n/a	n/a
1077.195312	n/a	275762	largeHSmallT	correct	incongruent	0.42969	no	H	T
1077.625	n/a	275872	responseSmallT	correct	n/a	0.42969	no	n/a	n/a
1078.691406	n/a	276145	largeHSmallT	correct	incongruent	0.46094	no	H	T
1079.152344	n/a	276263	responseSmallT	correct	n/a	0.46094	no	n/a	n/a
1080.222656	n/a	276537	largeHSmallH	correct	congruent	0.38672	no	H	H
1080.609375	n/a	276636	responseSmallH	correct	n/a	0.38672	no	n/a	n/a
1081.675781	n/a	276909	largeHSmallT	error	incongruent	0.41797	no	H	T
1082.09375	n/a	277016	responseSmallH	error	n/a	0.41797	no	n/a	n/a
1083.171875	n/a	277292	largeTSmallT	correct	congruent	0.40234	no	T	T
1083.574219	n/a	277395	responseSmallT	correct	n/a	0.40234	no	n/a	n/a
1084.636719	n/a	277667	largeHSmallH	correct	congruent	0.35938	no	H	H
1084.996094	n/a	277759	responseSmallH	correct	n/a	0.35938	no	n/a	n/a
1086.078125	n/a	278036	largeTSmallH	correct	incongruent	0.41016	no	T	H
1086.488281	n/a	278141	responseSmallH	correct	n/a	0.41016	no	n/a	n/a
1087.558594	n/a	278415	largeTSmallH	correct	incongruent	0.41797	no	T	H
1087.976562	n/a	278522	responseSmallH	correct	n/a	0.41797	no	n/a	n/a
1089.050781	n/a	278797	largeHSmallT	correct	incongruent	0.44531	no	H	T
1089.496094	n/a	278911	responseSmallT	correct	n/a	0.44531	no	n/a	n/a
1090.558594	n/a	279183	largeHSmallT	correct	incongruent	0.53906	no	H	T
1091.097656	n/a	279321	responseSmallT	correct	n/a	0.53906	no	n/a	n/a
1092.171875	n/a	279596	largeHSmallH	correct	congruent	0.34766	no	H	H
1092.519531	n/a	279685	responseSmallH	correct	n/a	0.34766	no	n/a	n/a
1093.597656	n/a	279961	largeTSmallT	correct	congruent	0.32031	no	T	T
1093.917969	n/a	280043	responseSmallT	correct	n/a	0.32031	no	n/a	n/a
1094.996094	n/a	280319	largeHSmallH	correct	congruent	0.41406	no	H	H
1095.410156	n/a	280425	responseSmallH	correct	n/a	0.41406	no	n/a	n/a
1096.476562	n/a	280698	largeHSmallT	correct	incongruent	0.29297	no	H	T
1096.769531	n/a	280773	responseSmallT	correct	n/a	0.29297	no	n/a	n/a
1097.835938	n/a	281046	largeTSmallH	correct	incongruent	0.48828	no	T	H
1098.324219	n/a	281171	responseSmallH	correct	n/a	0.48828	no	n/a	n/a
1099.394531	n/a	281445	largeTSmallT	correct	congruent	0.36719	no	T	T
1099.761719	n/a	281539	responseSmallT	correct	n/a	0.36719	no	n/a	n/a
1100.835938	n/a	281814	largeHSmallH	correct	congruent	0.45312	no	H	H
1101.289062	n/a	281930	responseSmallH	correct	n/a	0.45312	no	n/a	n/a
1102.355469	n/a	282203	largeHSmallH	correct	congruent	0.44922	no	H	H
1102.804688	n/a	282318	responseSmallH	correct	n/a	0.44922	no	n/a	n/a
1103.875	n/a	282592	largeTSmallT	correct	congruent	0.46484	no	T	T
1104.339844	n/a	282711	responseSmallT	correct	n/a	0.46484	no	n/a	n/a
1105.410156	n/a	282985	largeTSmallH	correct	incongruent	0.47266	no	T	H
1105.882812	n/a	283106	responseSmallH	correct	n/a	0.47266	no	n/a	n/a
1106.957031	n/a	283381	largeHSmallT	error	incongruent	0.43359	no	H	T
1107.390625	n/a	283492	responseSmallH	error	n/a	0.43359	no	n/a	n/a
1108.464844	n/a	283767	largeTSmallT	correct	congruent	0.48828	no	T	T
1108.953125	n/a	283892	responseSmallT	correct	n/a	0.48828	no	n/a	n/a
1110.023438	n/a	284166	largeHSmallH	correct	congruent	0.40625	no	H	H
1110.429688	n/a	284270	responseSmallH	correct	n/a	0.40625	no	n/a	n/a
1111.503906	n/a	284545	largeTSmallH	correct	incongruent	0.41406	no	T	H
1111.917969	n/a	284651	responseSmallH	correct	n/a	0.41406	no	n/a	n/a
1112.984375	n/a	284924	largeTSmallT	correct	congruent	0.37891	no	T	T
1113.363281	n/a	285021	responseSmallT	correct	n/a	0.37891	no	n/a	n/a
1114.4375	n/a	285296	largeHSmallH	correct	congruent	0.60547	no	H	H
1115.042969	n/a	285451	responseSmallH	correct	n/a	0.60547	no	n/a	n/a
1116.117188	n/a	285726	largeHSmallT	correct	incongruent	0.55859	no	H	T
1116.675781	n/a	285869	responseSmallT	correct	n/a	0.55859	no	n/a	n/a
1117.742188	n/a	286142	largeHSmallH	correct	congruent	0.35938	no	H	H
1118.101562	n/a	286234	responseSmallH	correct	n/a	0.35938	no	n/a	n/a
1119.167969	n/a	286507	largeTSmallH	correct	incongruent	0.50781	no	T	H
1119.675781	n/a	286637	responseSmallH	correct	n/a	0.50781	no	n/a	n/a
1120.742188	n/a	286910	largeHSmallT	correct	incongruent	0.42969	no	H	T
1121.171875	n/a	287020	responseSmallT	correct	n/a	0.42969	no	n/a	n/a
1122.25	n/a	287296	largeHSmallT	correct	incongruent	0.42969	no	H	T
1122.679688	n/a	287406	responseSmallT	correct	n/a	0.42969	no	n/a	n/a
1123.742188	n/a	287678	largeTSmallH	correct	incongruent	0.41406	no	T	H
1124.15625	n/a	287784	responseSmallH	correct	n/a	0.41406	no	n/a	n/a
1125.222656	n/a	288057	largeTSmallT	correct	congruent	0.78906	no	T	T
1126.011719	n/a	288259	responseSmallT	correct	n/a	0.78906	no	n/a	n/a
1127.089844	n/a	288535	largeHSmallH	correct	congruent	0.88672	no	H	H
1127.976562	n/a	288762	responseSmallH	correct	n/a	0.88672	no	n/a	n/a
1129.050781	n/a	289037	largeHSmallH	correct	congruent	0.43359	no	H	H
1129.484375	n/a	289148	responseSmallH	correct	n/a	0.43359	no	n/a	n/a
1130.542969	n/a	289419	largeTSmallT	error	congruent	0.47266	no	T	T
1131.015625	n/a	289540	responseSmallH	error	n/a	0.47266	no	n/a	n/a
1132.089844	n/a	289815	largeTSmallT	error	congruent	0.43359	no	T	T
1132.523438	n/a	289926	responseSmallH	error	n/a	0.43359	no	n/a	n/a
1133.582031	n/a	290197	largeHSmallT	correct	incongruent	0.44141	no	H	T
1134.023438	n/a	290310	responseSmallT	correct	n/a	0.44141	no	n/a	n/a
1135.101562	n/a	290586	largeTSmallT	correct	congruent	0.41016	no	T	T
1135.511719	n/a	290691	responseSmallT	correct	n/a	0.41016	no	n/a	n/a
1136.582031	n/a	290965	largeTSmallH	correct	incongruent	1.2734	no	T	H
1137.855469	n/a	291291	responseSmallH	correct	n/a	1.2734	no	n/a	n/a
1138.929688	n/a	291566	largeHSmallT	correct	incongruent	0.44922	no	H	T
